time,seconds_elapsed,z,y,x
1751013796979902500,0.11590234375,-0.1411198377609253,-0.08358730375766754,-0.008219846524298191
1751013796989845500,0.125845458984375,-0.1833471953868866,-0.0988546758890152,0.01224734541028738
1751013796999788500,0.13578857421875,-0.1879858821630478,-0.0908428207039833,0.04332190752029419
1751013797009732600,0.145732666015625,-0.17499764263629913,-0.08920417726039886,0.07781516760587692
1751013797019675400,0.15567529296875,-0.1442868709564209,-0.06452226638793945,0.08415216207504272
1751013797029619700,0.16561962890625,-0.09833668917417526,-0.026749055832624435,0.06504078209400177
1751013797039562800,0.175562744140625,-0.04338955134153366,0.00720678037032485,0.03824911639094353
1751013797049506600,0.185506591796875,0.0021015002857893705,0.041732002049684525,0.02160409465432167
1751013797059449600,0.19544970703125,0.02304886095225811,0.06399522721767426,0.014994129538536072
1751013797069393700,0.2053935546875,0.029263347387313843,0.0807129517197609,0.01004837267100811
1751013797079336700,0.215336669921875,0.029379194602370262,0.0983864888548851,0.02159557305276394
1751013797089280500,0.225280517578125,0.01799418032169342,0.10816828161478043,0.03297020122408867
1751013797099223600,0.2352236328125,-0.0010612696642056108,0.11041572690010071,0.04325239732861519
1751013797109167600,0.245167724609375,-0.025624403730034828,0.10230986028909683,0.05330104008316994
1751013797119110700,0.255110595703125,-0.05096997320652008,0.08958820253610611,0.040776725858449936
1751013797129054500,0.265054443359375,-0.07039932906627655,0.06577608734369278,0.022759906947612762
1751013797138997500,0.27499755859375,-0.07940800487995148,0.04139058291912079,0.00891013815999031
1751013797148941600,0.284941650390625,-0.08072174340486526,0.018638931214809418,0.010245979763567448
1751013797158884600,0.294884521484375,-0.07558530569076538,0.0006801713607273996,0.02400813065469265
1751013797168828400,0.304828369140625,-0.07272347062826157,-0.00815193634480238,0.04695019870996475
1751013797178771500,0.314771484375,-0.06350414454936981,-0.01079698745161295,0.06878705322742462
1751013797188715800,0.3247158203125,-0.06270226091146469,0.005404619034379721,0.08041813969612122
1751013797198658800,0.334658935546875,-0.054002780467271805,0.022363629192113876,0.07298845797777176
1751013797208602600,0.3446025390625,-0.047019172459840775,0.0329773910343647,0.047680702060461044
1751013797218545700,0.354545654296875,-0.049914561212062836,0.030251646414399147,0.010970359668135643
1751013797228489700,0.36448974609375,-0.055682435631752014,0.022671490907669067,-0.020929250866174698
1751013797238432800,0.374432861328125,-0.06779449433088303,0.020831245929002762,-0.022354308515787125
1751013797248375600,0.38437548828125,-0.07243797928094864,0.012228969484567642,-0.0033071134239435196
1751013797258319600,0.394319580078125,-0.07437116652727127,-0.0015393070643767715,0.026316292583942413
1751013797268262700,0.4042626953125,-0.07552485167980194,-0.02256869152188301,0.05462063476443291
1751013797278206500,0.41420654296875,-0.08328024297952652,-0.03634602203965187,0.0702587142586708
1751013797288149500,0.4241494140625,-0.09136001020669937,-0.050165433436632156,0.07147444784641266
1751013797298093600,0.434093505859375,-0.09831511974334717,-0.06161649152636528,0.0711817666888237
1751013797308036600,0.44403662109375,-0.09789939969778061,-0.05573143810033798,0.06921742111444473
1751013797317980400,0.45398046875,-0.08856289088726044,-0.04223320633172989,0.06160930171608925
1751013797327923500,0.46392333984375,-0.07973530888557434,-0.030609840527176857,0.04929963871836662
1751013797337867500,0.473867431640625,-0.06749888509511948,-0.006997722201049328,0.02984045259654522
1751013797347810600,0.483810546875,-0.054423827677965164,0.01173495315015316,0.013125123456120491
1751013797357754600,0.493754638671875,-0.044202081859111786,0.040167659521102905,0.003964914008975029
1751013797367697400,0.503697509765625,-0.03265967592597008,0.05546272546052933,0.004803011193871498
1751013797377641700,0.513641845703125,-0.03663178160786629,0.05053800716996193,0.006481068674474955
1751013797387584800,0.523584716796875,-0.039500802755355835,0.02935868687927723,0.010456635616719723
1751013797397528600,0.533528564453125,-0.0418957844376564,0.003858387703076005,0.029283054172992706
1751013797407471600,0.5434716796875,-0.04844316467642784,-0.022526880726218224,0.04867805540561676
1751013797417415700,0.553415771484375,-0.05991712957620621,-0.0432414785027504,0.07428648322820663
1751013797427358700,0.563358642578125,-0.06724774837493896,-0.051485028117895126,0.09798328578472137
1751013797437302500,0.573302490234375,-0.07818055897951126,-0.04031120240688324,0.08341819047927856
1751013797447245600,0.58324560546875,-0.06344528496265411,-0.02955416403710842,0.05612745136022568
1751013797457189600,0.593189697265625,-0.03958788886666298,-0.0070856064558029175,0.03591619059443474
1751013797467132700,0.603132568359375,-0.01242045033723116,0.009572732262313366,0.02768062986433506
1751013797477076500,0.613076416015625,0.007383613847196102,0.023314910009503365,0.036130838096141815
1751013797487019500,0.62301953125,0.01423619408160448,0.03582111373543739,0.04446014389395714
1751013797496963600,0.632963623046875,0.011753329075872898,0.04421380162239075,0.03965367004275322
1751013797506906600,0.64290673828125,0.01215440034866333,0.04573526233434677,0.030305441468954086
1751013797516850700,0.6528505859375,0.007984423078596592,0.039438486099243164,0.01769830286502838
1751013797526793500,0.66279345703125,-0.004240551497787237,0.022368421778082848,0.00914316438138485
1751013797536737800,0.67273779296875,-0.016448747366666794,0.0054389736615121365,0.007719172164797783
1751013797546680600,0.6826806640625,-0.023961259052157402,-0.0060059609822928905,0.008262723684310913
1751013797556624600,0.692624755859375,-0.0318940170109272,-0.01414537988603115,0.014522217214107513
1751013797566567700,0.702567626953125,-0.040051545947790146,-0.02010340429842472,0.014112357050180435
1751013797576510700,0.7125107421875,-0.04784741625189781,-0.013481720350682735,0.02245524153113365
1751013797586454500,0.72245458984375,-0.04801040142774582,-0.011785286478698254,0.03370629623532295
1751013797596397600,0.7323974609375,-0.04595044627785683,-0.008437426760792732,0.042211104184389114
1751013797606341600,0.742341552734375,-0.04969405382871628,-0.0023470439482480288,0.04490862041711807
1751013797616284700,0.75228466796875,-0.05808807164430618,0.004465055651962757,0.056591641157865524
1751013797626228500,0.762228515625,-0.07237672805786133,0.010365289635956287,0.0864131823182106
1751013797636171500,0.772171630859375,-0.10442893952131271,0.017792312428355217,0.13442838191986084
1751013797646115600,0.782115478515625,-0.14093102514743805,-0.005329518113285303,0.19439584016799927
1751013797656058600,0.79205859375,-0.1721627116203308,-0.02474263124167919,0.25359711050987244
1751013797666002400,0.80200244140625,-0.18759998679161072,-0.04736378788948059,0.28305861353874207
1751013797675945500,0.811945556640625,-0.1981932520866394,-0.05540520325303078,0.2495533674955368
1751013797685889500,0.8218896484375,-0.1889326423406601,-0.05169728398323059,0.17454011738300323
1751013797695831600,0.83183154296875,-0.15867513418197632,-0.021274395287036896,0.08890164643526077
1751013797705775600,0.841775634765625,-0.119267538189888,0.024714933708310127,0.006247776094824076
1751013797715718400,0.851718505859375,-0.07348300516605377,0.06441494077444077,-0.04767617583274841
1751013797725662500,0.861662353515625,-0.026697391644120216,0.09299492090940475,-0.07479194551706314
1751013797735605500,0.87160546875,0.012850018218159676,0.1070723906159401,-0.07424706965684891
1751013797745549600,0.881549560546875,0.03634682297706604,0.10247417539358139,-0.0508061908185482
1751013797755492400,0.891492431640625,0.03946218639612198,0.09139729291200638,-0.014298778027296066
1751013797765436400,0.9014365234375,0.0383836068212986,0.07321722060441971,0.030467094853520393
1751013797775379500,0.91137939453125,0.029639119282364845,0.04538585618138313,0.059721920639276505
1751013797785323300,0.9213232421875,0.013039635494351387,0.018641861155629158,0.06345487385988235
1751013797795266300,0.931266357421875,0.003064233111217618,-0.012959741055965424,0.048226386308670044
1751013797805210400,0.94121044921875,0.010471017099916935,-0.03531324863433838,0.03275341913104057
1751013797815153400,0.9511533203125,0.022063490003347397,-0.04489503800868988,0.025132251903414726
1751013797825097500,0.961097412109375,0.030345389619469643,-0.030609307810664177,0.02683374471962452
1751013797835040500,0.97104052734375,0.04959285259246826,-0.010151437483727932,0.03984382003545761
1751013797844984600,0.980984619140625,0.0648500993847847,0.006736998446285725,0.04050081968307495
1751013797854927600,0.990927734375,0.06161569431424141,0.01016608439385891,0.027706196531653404
1751013797864871400,1.000871337890625,0.057203102856874466,0.009402289986610413,0.017470071092247963
1751013797874814500,1.010814453125,0.045168012380599976,0.0034285534638911486,0.024591097608208656
1751013797884758500,1.020758544921875,0.027124295011162758,-0.00971521157771349,0.029019400477409363
1751013797894701600,1.03070166015625,0.008419317193329334,-0.015800800174474716,0.0330844484269619
1751013797904645400,1.040645263671875,-0.0034964641090482473,-0.01197011023759842,0.040887776762247086
1751013797914588400,1.05058837890625,-0.004569984506815672,0.0008615325787104666,0.045350171625614166
1751013797924532500,1.060532470703125,-0.007561513222754002,0.012152803130447865,0.03880491852760315
1751013797934475500,1.0704755859375,-0.005636846646666527,0.031857799738645554,0.015368303284049034
1751013797944419300,1.08041943359375,0.0028367992490530014,0.04512673243880272,-0.015488145872950554
1751013797954362400,1.0903623046875,0.015264440327882767,0.05596233531832695,-0.04024462401866913
1751013797964306400,1.100306396484375,0.031495075672864914,0.04020627588033676,-0.05975840613245964
1751013797974249500,1.11024951171875,0.031739555299282074,0.01588868536055088,-0.06015921011567116
1751013797984193500,1.120193603515625,0.03305568918585777,-0.016829846426844597,-0.03754391148686409
1751013797994136600,1.130136474609375,0.03477981686592102,-0.04474616423249245,0.013252155855298042
1751013798004080600,1.14008056640625,0.03628956526517868,-0.06279227882623672,0.06619712710380554
1751013798014023400,1.1500234375,0.048118527978658676,-0.06293316185474396,0.11402617394924164
1751013798023966500,1.159966552734375,0.0663079172372818,-0.05385657399892807,0.14638863503932953
1751013798033910500,1.16991064453125,0.09335551410913467,-0.037044838070869446,0.14959748089313507
1751013798043853600,1.179853515625,0.12281966209411621,-0.020178504288196564,0.1326906681060791
1751013798053797400,1.18979736328125,0.13659486174583435,-0.014825285412371159,0.09641016274690628
1751013798063740400,1.199740478515625,0.12966318428516388,-0.013660685159265995,0.04253095015883446
1751013798073684500,1.2096845703125,0.10429231822490692,-0.017642643302679062,-0.009672068059444427
1751013798083627500,1.21962744140625,0.07062916457653046,-0.029531260952353477,-0.0536203496158123
1751013798093571300,1.2295712890625,0.020622454583644867,-0.040395092219114304,-0.0755821093916893
1751013798103514400,1.239514404296875,-0.021798240020871162,-0.0447528250515461,-0.0632154569029808
1751013798113458400,1.24945849609375,-0.054246194660663605,-0.03879586607217789,-0.019215239211916924
1751013798123401500,1.2594013671875,-0.08362405747175217,-0.04442498832941055,0.03278244659304619
1751013798133345300,1.26934521484375,-0.09891965240240097,-0.0453680157661438,0.0723000317811966
1751013798143288300,1.279288330078125,-0.09521200507879257,-0.04471873492002487,0.09324073046445847
1751013798153232600,1.289232666015625,-0.07150667160749435,-0.027775172144174576,0.10151650756597519
1751013798163175700,1.29917578125,-0.03561605140566826,-0.007958324626088142,0.09157838672399521
1751013798173119500,1.309119384765625,0.000606934423558414,0.013583453372120857,0.07149522006511688
1751013798183062500,1.3190625,0.03356727957725525,0.039202529937028885,0.0612521730363369
1751013798193006600,1.329006591796875,0.06283622235059738,0.06136935204267502,0.060926735401153564
1751013798202949600,1.33894970703125,0.08622170239686966,0.07290776073932648,0.0714440867304802
1751013798212893400,1.3488935546875,0.0983492061495781,0.062372032552957535,0.08383311331272125
1751013798222836500,1.35883642578125,0.09008169174194336,0.049068208783864975,0.08423604816198349
1751013798232780500,1.368780517578125,0.07638158649206161,0.04205344244837761,0.06935617327690125
1751013798242723600,1.3787236328125,0.06710126996040344,0.037115678191185,0.0459858663380146
1751013798252667400,1.38866748046875,0.05555194243788719,0.029499568045139313,0.031028224155306816
1751013798262610400,1.3986103515625,0.04791319742798805,0.03803500160574913,0.0143520412966609
1751013798272554500,1.408554443359375,0.04867459461092949,0.06069450452923775,0.027782628312706947
1751013798282497300,1.418497314453125,0.052864547818899155,0.08719641715288162,0.053408097475767136
1751013798292441300,1.42844140625,0.05247758701443672,0.08069857209920883,0.07301881909370422
1751013798302384400,1.43838427734375,0.050691671669483185,0.0659172311425209,0.08528587222099304
1751013798312328700,1.44832861328125,0.05108742043375969,0.054432615637779236,0.07611474394798279
1751013798322271500,1.458271484375,0.06288335472345352,0.0376693494617939,0.05386163294315338
1751013798332215600,1.468215576171875,0.07523563504219055,0.019650932401418686,0.018101505935192108
1751013798342158600,1.47815869140625,0.08219020813703537,0.0006564692012034357,-0.020599817857146263
1751013798352102400,1.488102294921875,0.08197396248579025,-0.019847741350531578,-0.05233191326260567
1751013798362045400,1.49804541015625,0.08066315203905106,-0.024109596386551857,-0.06611137837171555
1751013798371989500,1.507989501953125,0.07810278981924057,-0.014710502699017525,-0.05681614577770233
1751013798381932500,1.5179326171875,0.06781526654958725,-0.015343536622822285,-0.0259849950671196
1751013798391876400,1.52787646484375,0.05404539033770561,-0.02828996069729328,0.016041284427046776
1751013798401819400,1.5378193359375,0.040166061371564865,-0.04898778349161148,0.06461254507303238
1751013798411763500,1.547763427734375,0.03032088838517666,-0.08486402779817581,0.09884588420391083
1751013798421706500,1.55770654296875,0.020253339782357216,-0.11355452239513397,0.12514141201972961
1751013798431650300,1.567650390625,0.016335297375917435,-0.12372353672981262,0.14573615789413452
1751013798441593300,1.57759326171875,0.02363954856991768,-0.11914263665676117,0.1515011042356491
1751013798451537400,1.587537353515625,0.02358921617269516,-0.10953741520643234,0.1357668787240982
1751013798461480400,1.59748046875,0.02773469127714634,-0.09886239469051361,0.08907048404216766
1751013798471424500,1.607424560546875,0.027534687891602516,-0.0845460444688797,0.02924790047109127
1751013798481367600,1.617367431640625,0.018736669793725014,-0.07030665129423141,-0.03375609964132309
1751013798491311600,1.6273115234375,0.0017624800093472004,-0.06360720843076706,-0.10197509825229645
1751013798501254700,1.637254638671875,-0.025379393249750137,-0.060683585703372955,-0.15129205584526062
1751013798511198500,1.647198486328125,-0.047619450837373734,-0.0706707090139389,-0.15961682796478271
1751013798521141500,1.6571416015625,-0.06185884028673172,-0.06452865898609161,-0.13064801692962646
1751013798531085600,1.66708544921875,-0.05678818002343178,-0.044317129999399185,-0.06847013533115387
1751013798541028600,1.677028564453125,-0.03957830369472504,-0.0163576677441597,0.002767823403701186
1751013798550972400,1.686972412109375,-0.02376951090991497,0.01636938564479351,0.05976532772183418
1751013798560915500,1.69691552734375,-0.024925589561462402,0.044085968285799026,0.07932731509208679
1751013798570859500,1.706859619140625,-0.0494098924100399,0.06593453884124756,0.05848940834403038
1751013798580802600,1.716802490234375,-0.09028702229261398,0.08021068572998047,0.00621155695989728
1751013798590746400,1.726746337890625,-0.1305803805589676,0.07658212631940842,-0.053764428943395615
1751013798600689400,1.736689453125,-0.1601257622241974,0.04284626618027687,-0.12184733897447586
1751013798610633500,1.746633544921875,-0.18586014211177826,-0.011899802833795547,-0.189614936709404
1751013798620576300,1.756576171875,-0.20925362408161163,-0.05234123393893242,-0.22863450646400452
1751013798630519300,1.766519287109375,-0.22248579561710358,-0.06372864544391632,-0.2306571751832962
1751013798640463400,1.77646337890625,-0.20993618667125702,-0.05672719329595566,-0.19575245678424835
1751013798650406400,1.786406494140625,-0.1801716387271881,-0.03214568644762039,-0.14268045127391815
1751013798660350500,1.7963505859375,-0.14013047516345978,-0.0014924354618415236,-0.09252434223890305
1751013798670293500,1.80629345703125,-0.09483782947063446,0.02586302161216736,-0.05168796330690384
1751013798680237600,1.816237548828125,-0.06263861060142517,0.04562980309128761,-0.032338500022888184
1751013798690180400,1.826180419921875,-0.04338528960943222,0.05522171035408974,-0.03466903045773506
1751013798700124400,1.83612451171875,-0.03569088503718376,0.042689938098192215,-0.05573569983243942
1751013798710067200,1.846067138671875,-0.03235714137554169,0.012630840763449669,-0.0844416469335556
1751013798720011500,1.856011474609375,-0.027705930173397064,-0.02532666176557541,-0.09376005083322525
1751013798729954600,1.86595458984375,-0.017467673867940903,-0.04748549312353134,-0.07951586693525314
1751013798739898400,1.8758984375,-0.002251702593639493,-0.061045508831739426,-0.039508260786533356
1751013798749841400,1.88584130859375,0.006562827620655298,-0.06001406908035278,0.014472948387265205
1751013798759785500,1.895785400390625,0.00996475014835596,-0.048765141516923904,0.06748902797698975
1751013798769728500,1.905728515625,0.013883058913052082,-0.020621921867132187,0.10251519083976746
1751013798779672300,1.91567236328125,0.016041018068790436,0.008505337871611118,0.11716603487730026
1751013798789615400,1.925615478515625,0.017791246995329857,0.0325922966003418,0.1086236834526062
1751013798799559400,1.935559326171875,0.01625140756368637,0.04460741579532623,0.08911442756652832
1751013798809502500,1.94550244140625,0.007201453670859337,0.04652169719338417,0.06538327038288116
1751013798819446300,1.9554462890625,-0.0032927324064075947,0.04692729562520981,0.04965117573738098
1751013798829389300,1.965389404296875,-0.007903196848928928,0.052024319767951965,0.042338669300079346
1751013798839333400,1.97533349609375,-0.0065353973768651485,0.059781040996313095,0.03978869318962097
1751013798849276400,1.9852763671875,-0.00592473428696394,0.07042542845010757,0.040353816002607346
1751013798859220500,1.995220458984375,-0.008945824578404427,0.08329781889915466,0.04621223732829094
1751013798869163300,2.005163330078125,-0.0011566109023988247,0.09371370822191238,0.05823773890733719
1751013798879107600,2.015107666015625,0.007792143151164055,0.09481465816497803,0.06564239412546158
1751013798889050400,2.02505029296875,0.012714463286101818,0.08383417874574661,0.06438218802213669
1751013798898994400,2.034994384765625,0.013333382084965706,0.06775454431772232,0.05427682027220726
1751013798908937500,2.0449375,0.023813188076019287,0.051839761435985565,0.0409943051636219
1751013798918881500,2.054881591796875,0.037518613040447235,0.05786542966961861,0.02479296363890171
1751013798928824300,2.06482421875,0.053588394075632095,0.08469704538583755,-0.014697186648845673
1751013798938768400,2.074768310546875,0.06431054323911667,0.12942349910736084,-0.06114484742283821
1751013798948711400,2.08471142578125,0.07574456185102463,0.17848452925682068,-0.10654748231172562
1751013798958655200,2.0946552734375,0.08796021342277527,0.21781249344348907,-0.1295473426580429
1751013798968598300,2.104598388671875,0.08325494080781937,0.22201308608055115,-0.1333191692829132
1751013798978542300,2.114542236328125,0.06296911090612411,0.17556490004062653,-0.1142410859465599
1751013798988485400,2.1244853515625,0.027642013505101204,0.0883817970752716,-0.049435194581747055
1751013798998429200,2.13442919921875,-0.012330702506005764,-0.0065476479940116405,0.04682636260986328
1751013799008372200,2.144372314453125,-0.047028496861457825,-0.07961413264274597,0.1471567004919052
1751013799018316300,2.15431640625,-0.07396077364683151,-0.12615340948104858,0.20711563527584076
1751013799028259300,2.16425927734375,-0.08365601301193237,-0.14436224102973938,0.2126675248146057
1751013799038203400,2.174203369140625,-0.06036853417754173,-0.13049276173114777,0.1782352477312088
1751013799048146400,2.184146484375,-0.026400448754429817,-0.09579789638519287,0.12114906311035156
1751013799058090500,2.194090576171875,0.0037816886324435472,-0.06444929540157318,0.05434633046388626
1751013799068033500,2.204033447265625,0.027576500549912453,-0.03580353781580925,0.003518834710121155
1751013799077977300,2.213977294921875,0.040105875581502914,-0.004066647030413151,-0.010688330978155136
1751013799087920400,2.22392041015625,0.04162361100316048,0.017487380653619766,-0.006311958190053701
1751013799097864400,2.233864501953125,0.04055355116724968,0.02749474160373211,0.006960970349609852
1751013799107807500,2.243807373046875,0.0317576639354229,0.03609035909175873,0.031125428155064583
1751013799117751300,2.253751220703125,0.022764168679714203,0.038910381495952606,0.0591282993555069
1751013799127694300,2.2636943359375,0.01878327503800392,0.02153538540005684,0.07849667221307755
1751013799137638400,2.273638427734375,0.007221161387860775,-0.00437956815585494,0.08003438264131546
1751013799147581400,2.28358154296875,-0.00675297761335969,-0.019460516050457954,0.07713472843170166
1751013799157525200,2.293525146484375,-0.01642850786447525,-0.029394906014204025,0.05777275189757347
1751013799167468300,2.30346826171875,-0.027095001190900803,-0.042635876685380936,0.032452214509248734
1751013799177412400,2.313412353515625,-0.04014448821544647,-0.04541542008519173,0.004968659486621618
1751013799187355400,2.32335546875,-0.058763448148965836,-0.04972095042467117,-0.02520788460969925
1751013799197299500,2.333299560546875,-0.07415971159934998,-0.05691388249397278,-0.04692995920777321
1751013799207242500,2.343242431640625,-0.09397976100444794,-0.07540766894817352,-0.06171929091215134
1751013799217186600,2.3531865234375,-0.11308527737855911,-0.10360202193260193,-0.07686788588762283
1751013799227129300,2.36312939453125,-0.12648896872997284,-0.13099876046180725,-0.08220566064119339
1751013799237073400,2.373073486328125,-0.1348171979188919,-0.1450200378894806,-0.0716472864151001
1751013799247016400,2.383016357421875,-0.1314709335565567,-0.14116324484348297,-0.06036640331149101
1751013799256960500,2.39296044921875,-0.11780732870101929,-0.11285384744405746,-0.04520689323544502
1751013799266903300,2.4029033203125,-0.091490238904953,-0.049066610634326935,-0.018371284008026123
1751013799276847400,2.412847412109375,-0.06795002520084381,0.021948441863059998,0.008407865650951862
1751013799286790400,2.422790283203125,-0.051248807460069656,0.0782998651266098,0.033787257969379425
1751013799296734200,2.432734130859375,-0.05499986931681633,0.10189946740865707,0.04793956130743027
1751013799306677200,2.44267724609375,-0.07104461640119553,0.09970235824584961,0.053609699010849
1751013799316621300,2.452621337890625,-0.07993397861719131,0.08524991571903229,0.05263631418347359
1751013799326564400,2.462564453125,-0.0885264053940773,0.06595185399055481,0.03208576515316963
1751013799336508200,2.472508056640625,-0.09447084367275238,0.03892263025045395,0.0029891319572925568
1751013799346451200,2.482451171875,-0.0927128940820694,0.024108266457915306,-0.01600133627653122
1751013799356395500,2.4923955078125,-0.0865229070186615,0.011937619186937809,-0.02010233886539936
1751013799366338600,2.502338623046875,-0.07956086844205856,0.01720508560538292,-0.016410132870078087
1751013799376282400,2.512282470703125,-0.07272081077098846,0.0185270793735981,-0.005264803301542997
1751013799386225400,2.522225341796875,-0.06826028227806091,0.01912549138069153,0.008302138186991215
1751013799396169500,2.53216943359375,-0.05950087681412697,0.010897388681769371,0.01613529399037361
1751013799406112500,2.542112548828125,-0.04788310453295708,-0.004887433256953955,0.026583140715956688
1751013799416056300,2.552056396484375,-0.03454918786883354,-0.017667410895228386,0.03551458567380905
1751013799425999400,2.561999267578125,-0.025231853127479553,-0.03254782408475876,0.04211283102631569
1751013799435943400,2.571943359375,-0.012321380898356438,-0.042394861578941345,0.05299930274486542
1751013799445886500,2.581886474609375,-0.005995574407279491,-0.041965026408433914,0.06955218315124512
1751013799455830300,2.591830322265625,-0.006015548016875982,-0.03527889400720596,0.0804586261510849
1751013799465774300,2.6017744140625,-0.013799169100821018,-0.02707449346780777,0.08969366550445557
1751013799475717400,2.61171728515625,-0.02100221998989582,-0.021377194672822952,0.08212416619062424
1751013799485661400,2.621661376953125,-0.020133497193455696,-0.022544456645846367,0.07443615049123764
1751013799495604200,2.631604248046875,-0.00678307143971324,-0.016878316178917885,0.07496079057455063
1751013799505548500,2.641548583984375,0.010774883441627026,0.018432803452014923,0.08529545366764069
1751013799515491600,2.65149169921875,0.032107602804899216,0.050869304686784744,0.10010742396116257
1751013799525435400,2.661435302734375,0.03580540046095848,0.05939488485455513,0.11023223400115967
1751013799535378400,2.67137841796875,0.005528189707547426,0.06294913589954376,0.09799420833587646
1751013799545322500,2.681322509765625,-0.04211762547492981,0.07823675125837326,0.05740976333618164
1751013799555265500,2.691265625,-0.07986900210380554,0.092247374355793,-0.016033561900258064
1751013799565209300,2.701209228515625,-0.08919326215982437,0.10020036995410919,-0.09691029787063599
1751013799575152400,2.71115234375,-0.0884704738855362,0.10597570240497589,-0.16747207939624786
1751013799585096400,2.721096435546875,-0.07813741266727448,0.10852887481451035,-0.21153035759925842
1751013799595039500,2.73103955078125,-0.07652060687541962,0.10991132259368896,-0.2208160012960434
1751013799604983300,2.7409833984375,-0.07808761298656464,0.0955294519662857,-0.1895156055688858
1751013799614926300,2.75092626953125,-0.07296528667211533,0.07043235749006271,-0.13038836419582367
1751013799624870400,2.760870361328125,-0.06862913072109222,0.03894633427262306,-0.053106095641851425
1751013799634813200,2.770813232421875,-0.0665406808257103,0.007872570306062698,0.03405224159359932
1751013799644757200,2.78075732421875,-0.0573306679725647,-0.012074772268533707,0.11257687956094742
1751013799654700300,2.7907001953125,-0.052020855247974396,-0.035239480435848236,0.16802868247032166
1751013799664644400,2.800644287109375,-0.0421687588095665,-0.04230457916855812,0.18229976296424866
1751013799674587400,2.81058740234375,-0.03560646250844002,-0.03977404534816742,0.16245415806770325
1751013799684531500,2.820531494140625,-0.014365890063345432,-0.03903714939951897,0.12627458572387695
1751013799694475000,2.83047509765625,0.0044046021066606045,-0.034273818135261536,0.08212123811244965
1751013799704418800,2.840418701171875,0.013975470326840878,-0.03750210255384445,0.03247405216097832
1751013799714361900,2.85036181640625,0.02238333597779274,-0.03440564498305321,-0.004031759686768055
1751013799724306000,2.860305908203125,0.03033287264406681,-0.034445591270923615,-0.020248014479875565
1751013799734249000,2.8702490234375,0.03356914594769478,-0.03423387184739113,-0.019114039838314056
1751013799744192800,2.88019287109375,0.027456391602754593,-0.04474776238203049,-0.0027153589762747288
1751013799754135800,2.8901357421875,0.010215619578957558,-0.058701395988464355,0.01895105466246605
1751013799764079900,2.900079833984375,0.00455666845664382,-0.06241730600595474,0.05138169974088669
1751013799774023000,2.91002294921875,0.0041244374588131905,-0.06226683780550957,0.08160724490880966
1751013799783966700,2.919966796875,0.005870672408491373,-0.05132231116294861,0.08608641475439072
1751013799793909800,2.92990966796875,0.004229632206261158,-0.03281653672456741,0.06601070612668991
1751013799803853800,2.939853759765625,-0.0028477180749177933,-0.013531787320971489,0.03545413166284561
1751013799813796900,2.949796875,-0.012821788899600506,-0.005086637567728758,0.004307396709918976
1751013799823741000,2.959740966796875,-0.026564233005046844,0.002162486780434847,-0.004405933897942305
1751013799833683700,2.96968359375,-0.03242052346467972,0.019392073154449463,0.003213103860616684
1751013799843628000,2.9796279296875,-0.025772741064429283,0.03686533868312836,0.015721438452601433
1751013799853570800,2.98957080078125,-0.007708519697189331,0.041305627673864365,0.023779364302754402
1751013799863515000,2.999514892578125,0.010324276052415371,0.037891190499067307,0.029941653832793236
1751013799873458000,3.0094580078125,0.019773438572883606,0.03868933767080307,0.044704619795084
1751013799883402000,3.019402099609375,0.025138642638921738,0.04266304150223732,0.0619315430521965
1751013799893344800,3.0293447265625,0.024331439286470413,0.03326048329472542,0.08470902591943741
1751013799903288800,3.039288818359375,0.012868660502135754,0.01068220566958189,0.09890767186880112
1751013799913232000,3.04923193359375,0.002787530655041337,-0.020739899948239326,0.12147822976112366
1751013799923176000,3.059176025390625,-0.016405871137976646,-0.04736458510160446,0.14006656408309937
1751013799933118700,3.06911865234375,-0.03281547129154205,-0.059665992856025696,0.14393000304698944
1751013799943062800,3.079062744140625,-0.04531554877758026,-0.05458787828683853,0.1396002471446991
1751013799953005800,3.089005859375,-0.05307493731379509,-0.038843002170324326,0.12192457169294357
1751013799962949600,3.09894970703125,-0.05179235711693764,-0.021073326468467712,0.08677724003791809
1751013799972892700,3.108892578125,-0.046068958938121796,-0.0039084553718566895,0.037394508719444275
1751013799982837000,3.1188369140625,-0.03810930252075195,0.006756706163287163,-0.018395785242319107
1751013799992780800,3.12878076171875,-0.029588252305984497,0.010659036226570606,-0.05597858130931854
1751013800002723800,3.138723876953125,-0.024582307785749435,0.014226606115698814,-0.07164329290390015
1751013800012668000,3.14866796875,-0.027297934517264366,0.006060555577278137,-0.07397782057523727
1751013800022611000,3.15861083984375,-0.028509406372904778,-0.0008847020799294114,-0.05077129974961281
1751013800032554800,3.1685546875,-0.03230680525302887,-0.005765477195382118,-0.030354177579283714
1751013800042497800,3.178497802734375,-0.03350789099931717,-0.005789179354906082,-0.021332452073693275
1751013800052441900,3.18844189453125,-0.03838280960917473,0.0034650389570742846,-0.04156129062175751
1751013800062385000,3.198385009765625,-0.04289500415325165,0.02586621791124344,-0.07039107382297516
1751013800072328700,3.20832861328125,-0.0384690947830677,0.04201509431004524,-0.08721799403429031
1751013800082271700,3.218271728515625,-0.02516287751495838,0.04405853897333145,-0.0950934886932373
1751013800092215800,3.2282158203125,-0.009270730428397655,0.03290548548102379,-0.09028834849596024
1751013800102158800,3.238158935546875,0.014590926468372345,0.008170844055712223,-0.07083608955144882
1751013800112102700,3.2481025390625,0.028268922120332718,-0.02576635032892227,-0.042163167148828506
1751013800122045700,3.258045654296875,0.03629755228757858,-0.05577058717608452,-0.013804495334625244
1751013800131990000,3.267989990234375,0.02905535325407982,-0.07755125313997269,0.013010607101023197
1751013800141933000,3.27793310546875,0.012960273772478104,-0.08841215074062347,0.024598820134997368
1751013800151876900,3.287876953125,0.000529436394572258,-0.0963374525308609,0.026127474382519722
1751013800161820000,3.29781982421875,-0.01079858560115099,-0.10089865326881409,0.025563683360815048
1751013800171764000,3.307763916015625,-0.01480424590408802,-0.11108524352312088,0.03049931861460209
1751013800181707000,3.31770703125,-0.006217415910214186,-0.11464695632457733,0.035661324858665466
1751013800191650800,3.32765087890625,0.012031362392008305,-0.10231199115514755,0.04460235685110092
1751013800201593900,3.33759375,0.03242158889770508,-0.07596267759799957,0.0656202882528305
1751013800211538000,3.347537841796875,0.05283045768737793,-0.056709084659814835,0.08456654846668243
1751013800221481000,3.35748095703125,0.06660406291484833,-0.031188545748591423,0.10920904576778412
1751013800231424800,3.3674248046875,0.0661313459277153,-0.017790181562304497,0.12374910712242126
1751013800241367800,3.377367919921875,0.05708912014961243,-0.026517894119024277,0.11465121805667877
1751013800251311900,3.387311767578125,0.04201589152216911,-0.055513858795166016,0.07415226101875305
1751013800261255000,3.3972548828125,0.022005699574947357,-0.08990725129842758,0.033969685435295105
1751013800271198700,3.40719873046875,-0.01113068126142025,-0.1248101070523262,0.01095438003540039
1751013800281141800,3.417141845703125,-0.05771922320127487,-0.13789156079292297,0.011010573245584965
1751013800291086000,3.427086181640625,-0.10757146775722504,-0.13770566880702972,0.04794382303953171
1751013800301028600,3.437028564453125,-0.1543152630329132,-0.11651729047298431,0.11061519384384155
1751013800310973000,3.446972900390625,-0.18426623940467834,-0.09255683422088623,0.16912084817886353
1751013800320917000,3.4569169921875,-0.18842370808124542,-0.06883419305086136,0.20846346020698547
1751013800330859800,3.46685986328125,-0.15561702847480774,-0.0390683077275753,0.2170976996421814
1751013800340803800,3.476803955078125,-0.10225579887628555,-0.005997971165925264,0.1831517070531845
1751013800350747000,3.486746826171875,-0.045468416064977646,0.029439648613333702,0.12083613872528076
1751013800360691000,3.49669091796875,0.00037763622822239995,0.055504538118839264,0.03802355006337166
1751013800370633700,3.5066337890625,0.030783211812376976,0.08358970284461975,-0.048240501433610916
1751013800380577800,3.516577880859375,0.041432395577430725,0.11062664538621902,-0.10978135466575623
1751013800390520800,3.526520751953125,0.040528785437345505,0.12529081106185913,-0.13879196345806122
1751013800400465000,3.53646484375,0.028779717162251472,0.11804727464914322,-0.1461569368839264
1751013800410407700,3.54640771484375,0.02448616735637188,0.09383168816566467,-0.13888651132583618
1751013800420351700,3.556351806640625,0.018373681232333183,0.06748156994581223,-0.10668303817510605
1751013800430294800,3.566294677734375,0.013793842867016792,0.02737889438867569,-0.07215994596481323
1751013800440238800,3.57623876953125,0.0013006879016757011,-0.0019406455103307962,-0.026275279000401497
1751013800450182000,3.586181884765625,-0.006375873927026987,-0.0051990230567753315,0.015422631986439228
1751013800460126000,3.5961259765625,-0.007434213999658823,0.006494917441159487,0.04977075010538101
1751013800470069000,3.606069091796875,0.002630137838423252,0.02137186750769615,0.07336369901895523
1751013800480012800,3.6160126953125,0.02406645379960537,0.023616379126906395,0.077556312084198
1751013800489955800,3.625955810546875,0.04737204313278198,0.013623933307826519,0.07850279659032822
1751013800499900000,3.63589990234375,0.058885153383016586,-0.004261856433004141,0.07053062319755554
1751013800509843000,3.645843017578125,0.05920153856277466,-0.02792777121067047,0.05218171328306198
1751013800519786800,3.655786865234375,0.052311141043901443,-0.043358124792575836,0.028357073664665222
1751013800529729800,3.665729736328125,0.03717586398124695,-0.0587991327047348,-0.0034911378752440214
1751013800539673900,3.675673828125,0.02238253690302372,-0.06468471884727478,-0.049785397946834564
1751013800549617000,3.685616943359375,-0.0016298545524477959,-0.062009841203689575,-0.11067698150873184
1751013800559560700,3.695560791015625,-0.03710848465561867,-0.051289819180965424,-0.18943756818771362
1751013800569503700,3.705503662109375,-0.07228751480579376,-0.03591565787792206,-0.25993677973747253
1751013800579447800,3.71544775390625,-0.09789620339870453,-0.04369768127799034,-0.3129770755767822
1751013800589390800,3.725390869140625,-0.1311684101819992,0.006130064371973276,-0.38174256682395935
1751013800599335000,3.7353349609375,-0.14958177506923676,0.03526771068572998,-0.4474496841430664
1751013800609279000,3.745279052734375,-0.10539966076612473,0.05210021883249283,-0.4057674705982208
1751013800619222000,3.755221923828125,-0.05668165534734726,0.101307712495327,-0.27554261684417725
1751013800629165800,3.765165771484375,-0.04026592895388603,0.11859269440174103,-0.12286786735057831
1751013800639108900,3.77510888671875,-0.046060170978307724,0.11887232214212418,-0.028427647426724434
1751013800649053000,3.785052978515625,-0.0421099029481411,0.08501822501420975,0.026916302740573883
1751013800658996000,3.794995849609375,-0.019328957423567772,0.05115106701850891,0.0562472939491272
1751013800668939800,3.804939697265625,0.011777297593653202,0.024272849783301353,0.057616692036390305
1751013800678882800,3.8148828125,0.03025990165770054,-0.0012101404136046767,0.04337916523218155
1751013800688827000,3.824826904296875,0.03723977878689766,-0.026861708611249924,0.01383858360350132
1751013800698775000,3.834775146484375,0.02888038381934166,-0.04244386404752731,-0.015121161937713623
1751013800708719000,3.844718994140625,0.01158634852617979,-0.03892502933740616,-0.03590020909905434
1751013800718662100,3.854662109375,-0.004751878324896097,-0.03466903045773506,-0.045932870358228683
1751013800728606000,3.86460595703125,-0.01176291611045599,-0.03281067684292793,-0.04258580878376961
1751013800738549000,3.874549072265625,-0.012910205870866776,-0.03873221576213837,-0.021886123344302177
1751013800748493000,3.8844931640625,-0.009916280396282673,-0.04012132063508034,0.007839547470211983
1751013800758435800,3.894435791015625,0.0005765743553638458,-0.04081454128026962,0.04039908945560455
1751013800768380000,3.9043798828125,0.009533850476145744,-0.034330274909734726,0.0723080188035965
1751013800778323000,3.914322998046875,0.02509550005197525,-0.021695975214242935,0.10530804842710495
1751013800788267000,3.92426708984375,0.042695000767707825,-0.007224357221275568,0.12658937275409698
1751013800798209800,3.934209716796875,0.057565025985240936,0.0020631509833037853,0.13656051456928253
1751013800808153900,3.94415380859375,0.06399629265069962,0.00202293717302382,0.12385563552379608
1751013800818097000,3.954096923828125,0.05832509323954582,-0.0030003173742443323,0.09710337966680527
1751013800828041000,3.964041015625,0.03821556270122528,-0.009357815608382225,0.05877916142344475
1751013800837984000,3.97398388671875,0.015090269967913628,-0.019695406779646873,0.028332838788628578
1751013800847928000,3.983927978515625,-0.00566960358992219,-0.0306327436119318,0.011306450702250004
1751013800857872100,3.9938720703125,-0.024392690509557724,-0.03953196108341217,0.008006527088582516
1751013800867815000,4.00381494140625,-0.03820943832397461,-0.030946198850870132,0.00833569373935461
1751013800877759000,4.013759033203125,-0.03952557221055031,-0.015016766265034676,0.011781025677919388
1751013800887702000,4.023701904296875,-0.021833127364516258,0.008376972749829292,0.015721438452601433
1751013800897645800,4.033645751953125,0.0020967067684978247,0.02683774009346962,0.015750734135508537
1751013800907588900,4.0435888671875,0.027290210127830505,0.03941744565963745,0.009704292751848698
1751013800917533000,4.053532958984375,0.03935033455491066,0.04872439429163933,0.006431800313293934
1751013800927476000,4.06347607421875,0.04074476659297943,0.04715952277183533,-0.0037587855476886034
1751013800937419800,4.073419677734375,0.034501783549785614,0.02671683207154274,-0.020839501172304153
1751013800947362800,4.08336279296875,0.01398958545178175,0.003950000274926424,-0.03719876706600189
1751013800957307000,4.093306884765625,-0.013640178367495537,-0.0030453247018158436,-0.0737844780087471
1751013800967250000,4.10325,-0.02177400514483452,0.010456369258463383,-0.12052614986896515
1751013800977194000,4.113194091796875,-0.022899722680449486,0.06579285860061646,-0.16517403721809387
1751013800987137000,4.123136962890625,-0.03418300300836563,0.15847912430763245,-0.19657137989997864
1751013800997081000,4.1330810546875,-0.06576409935951233,0.30926382541656494,-0.17083193361759186
1751013801007024000,4.143024169921875,-0.10657437890768051,0.4318739175796509,-0.07386250793933868
1751013801016968000,4.152968017578125,-0.1568055897951126,0.48769670724868774,0.054538875818252563
1751013801026911000,4.162910888671875,-0.17622056603431702,0.4771631062030792,0.17383117973804474
1751013801036855000,4.17285498046875,-0.15415814518928528,0.38826704025268555,0.25684189796447754
1751013801046798000,4.182798095703125,-0.09137225896120071,0.27520573139190674,0.2882254123687744
1751013801056742000,4.192741943359375,-0.0292364489287138,0.1773228496313095,0.2815278172492981
1751013801066685000,4.202684814453125,0.01506923045963049,0.09581494331359863,0.22484776377677917
1751013801076629000,4.21262890625,0.0422864705324173,0.03821130096912384,0.14124155044555664
1751013801086572000,4.222572021484375,0.04685672000050545,-0.00762862479314208,0.048705488443374634
1751013801096515800,4.232515869140625,0.038772162050008774,-0.036138031631708145,-0.03191186115145683
1751013801106460000,4.2424599609375,0.04421992599964142,-0.03640221431851387,-0.08769256621599197
1751013801116403000,4.25240283203125,0.05264270305633545,-0.02666143886744976,-0.11060800403356552
1751013801126347000,4.262346923828125,0.05113402381539345,-0.003329217666760087,-0.11107432097196579
1751013801136290000,4.2722900390625,0.03899293765425682,0.016509734094142914,-0.07819680124521255
1751013801146234000,4.282234130859375,0.02696130983531475,0.01907968521118164,-0.03495798259973526
1751013801156177200,4.29217724609375,0.024839036166667938,0.0005187837523408234,0.016139822080731392
1751013801166121000,4.302120849609375,0.02798316441476345,-0.025947177782654762,0.05488188937306404
1751013801176064000,4.31206396484375,0.02882658876478672,-0.07046937197446823,0.06420082598924637
1751013801186008000,4.322008056640625,-0.0011712582781910896,-0.11257847398519516,0.034385137259960175
1751013801195951000,4.331951171875,-0.04802451655268669,-0.13436712324619293,-0.02334207482635975
1751013801205895000,4.34189501953125,-0.11078830063343048,-0.1468493640422821,-0.09332142770290375
1751013801215838000,4.351837890625,-0.19151537120342255,-0.1522425264120102,-0.1600266844034195
1751013801225782000,4.361781982421875,-0.24043604731559753,-0.13505049049854279,-0.21341347694396973
1751013801235724800,4.371724853515625,-0.24220117926597595,-0.10848865658044815,-0.25896337628364563
1751013801245668900,4.3816689453125,-0.2222900539636612,-0.06631270796060562,-0.27852776646614075
1751013801255612000,4.39161181640625,-0.19485950469970703,-0.019237609580159187,-0.2680436968803406
1751013801265556000,4.401555908203125,-0.15298156440258026,0.024924790486693382,-0.24359774589538574
1751013801275498800,4.411498779296875,-0.11510182172060013,0.07393228262662888,-0.2398456186056137
1751013801285443000,4.421443115234375,-0.03771888464689255,0.07209576666355133,-0.2126438170671463
1751013801295386000,4.43138623046875,0.031156321987509727,0.0865631178021431,-0.17534571886062622
1751013801305330000,4.441329833984375,0.044197555631399155,0.09214137494564056,-0.15014848113059998
1751013801315273000,4.45127294921875,0.022790798917412758,0.08334176242351532,-0.13829661905765533
1751013801325217000,4.461217041015625,-0.00387356779538095,0.08154439181089401,-0.12903547286987305
1751013801335160000,4.47116015625,-0.02648007683455944,0.07801437377929688,-0.11278300732374191
1751013801345104000,4.481103759765625,-0.04236716404557228,0.06914471834897995,-0.1019684448838234
1751013801355047000,4.491046875,-0.05125519633293152,0.06055735424160957,-0.08971976488828659
1751013801364991000,4.500990966796875,-0.047689758241176605,0.05024266242980957,-0.06788530945777893
1751013801374934000,4.51093408203125,-0.04519783705472946,0.03515505790710449,-0.046962182968854904
1751013801384877800,4.5208779296875,-0.03640327975153923,0.01967410184442997,-0.020720457658171654
1751013801394822000,4.53082177734375,-0.019062906503677368,0.00501153664663434,0.006911169271916151
1751013801404765000,4.540764892578125,0.00398595305159688,-0.0014210627414286137,0.042394861578941345
1751013801414708700,4.550708740234375,0.018498050048947334,-0.0011408982099965215,0.0686831921339035
1751013801424651800,4.56065185546875,0.014389592222869396,0.0005587312043644488,0.06606850028038025
1751013801434596000,4.57059619140625,-0.00965529028326273,0.006334328558295965,0.04146861284971237
1751013801444539100,4.5805390625,-0.036982785910367966,0.007473895326256752,0.008042746223509312
1751013801454483000,4.59048291015625,-0.06644932925701141,-0.0007145261042751372,-0.02755546197295189
1751013801464426000,4.600426025390625,-0.09016424417495728,0.0025390577502548695,-0.05582598224282265
1751013801474370000,4.6103701171875,-0.11538305133581161,0.014578676782548428,-0.08185065537691116
1751013801484313000,4.62031298828125,-0.1368611752986908,0.022727150470018387,-0.09594570100307465
1751013801494257000,4.6302568359375,-0.12679016590118408,0.019476495683193207,-0.09615582972764969
1751013801504200000,4.640199951171875,-0.11199444532394409,0.004838164895772934,-0.07964875549077988
1751013801514144000,4.65014404296875,-0.08751999586820602,-0.015530490316450596,-0.048221323639154434
1751013801524087000,4.660087158203125,-0.06125164031982422,-0.023187611252069473,-0.003944940399378538
1751013801534030800,4.67003076171875,-0.031320638954639435,-0.029622340574860573,0.04273787513375282
1751013801543974000,4.679973876953125,-0.01702798530459404,-0.03539980202913284,0.05988224223256111
1751013801553918000,4.68991796875,-0.00802943017333746,-0.042336802929639816,0.06400907784700394
1751013801563861000,4.699861083984375,-0.007136206608265638,-0.03810876980423927,0.0587349534034729
1751013801573804800,4.7098046875,-0.027965055778622627,-0.036966804414987564,0.024755414575338364
1751013801583747800,4.719747802734375,-0.046121422201395035,-0.03624136000871658,-0.01577203907072544
1751013801593692200,4.729692138671875,-0.047384560108184814,-0.036076243966817856,-0.0392235703766346
1751013801603635200,4.73963525390625,-0.04092852398753166,-0.03813566640019417,-0.04625830799341202
1751013801613579000,4.7495791015625,-0.027029220014810562,-0.036791302263736725,-0.03211825340986252
1751013801623522000,4.75952197265625,-0.004031759686768055,-0.025530926883220673,-0.004467186518013477
1751013801633466000,4.769466064453125,0.013892113231122494,-0.013461213558912277,0.030104372650384903
1751013801643409000,4.779408935546875,0.029413016512989998,-0.00042530681821517646,0.06244659796357155
1751013801653353000,4.78935302734375,0.033312417566776276,0.004216849338263273,0.07130294293165207
1751013801663296000,4.7992958984375,0.0322069376707077,0.010790862143039703,0.05566566064953804
1751013801673240000,4.809239990234375,0.024325579404830933,0.020678913220763206,0.015604792162775993
1751013801683183900,4.819183837890625,0.01799817569553852,0.03712046891450882,-0.0389292910695076
1751013801693121800,4.829121826171875,0.02407151460647583,0.0497121624648571,-0.09889062494039536
1751013801703065900,4.83906591796875,0.012583170086145401,0.05377614498138428,-0.13929690420627594
1751013801713009000,4.8490087890625,-0.0067628310061991215,0.06010621413588524,-0.15947434306144714
1751013801722953000,4.858952880859375,-0.023333018645644188,0.06215604767203331,-0.15205344557762146
1751013801732895700,4.868895751953125,-0.0411761999130249,0.04673927649855614,-0.13260304927825928
1751013801742839800,4.87883984375,-0.05854480341076851,0.01344576757401228,-0.09738621115684509
1751013801752782800,4.888782958984375,-0.06349455565214157,-0.021756693720817566,-0.04817764833569527
1751013801762726700,4.8987265625,-0.06300293654203415,-0.045395445078611374,-0.002496979897841811
1751013801772669700,4.908669677734375,-0.060446564108133316,-0.048960618674755096,0.02947826310992241
1751013801782613800,4.91861376953125,-0.045218609273433685,-0.019719375297427177,0.059959206730127335
1751013801792556800,4.928556884765625,-0.026792464777827263,0.027029752731323242,0.07717947661876678
1751013801802500600,4.93850048828125,-0.002600310370326042,0.08506988734006882,0.07325690239667892
1751013801812443600,4.948443603515625,0.023991618305444717,0.1233203336596489,0.05422941595315933
1751013801822387700,4.9583876953125,0.05332181230187416,0.1451185792684555,0.03279310092329979
1751013801832330800,4.968330810546875,0.0687393844127655,0.1411009281873703,0.019645340740680695
1751013801842274600,4.978274658203125,0.06460056453943253,0.09917425364255905,0.014593590050935745
1751013801852217600,4.988217529296875,0.042986348271369934,0.04560929536819458,0.014151505194604397
1751013801862162000,4.998161865234375,0.013796771876513958,0.00606348505243659,0.030224747955799103
1751013801872104700,5.008104736328125,-0.010385795496404171,-0.023199062794446945,0.03810450807213783
1751013801882048800,5.018048828125,-0.03617424890398979,-0.038064561784267426,0.04141055792570114
1751013801891991800,5.02799169921875,-0.042204178869724274,-0.030471090227365494,0.0388864129781723
1751013801901935900,5.037935791015625,-0.04153812304139137,-0.015589346177875996,0.04224439337849617
1751013801911879000,5.04787890625,-0.03235767409205437,-0.003841077210381627,0.048162203282117844
1751013801921822700,5.05782275390625,-0.025411617010831833,-0.006972155533730984,0.05727953463792801
1751013801931765800,5.067765869140625,-0.020057065412402153,-0.009090167470276356,0.0654786080121994
1751013801941709800,5.077709716796875,-0.024471255019307137,-0.005666674114763737,0.062018364667892456
1751013801951652900,5.08765283203125,-0.030313430353999138,-0.011151987127959728,0.041614554822444916
1751013801961596700,5.0975966796875,-0.032759010791778564,-0.01907462440431118,0.012093947269022465
1751013801971539700,5.107539794921875,-0.03676973283290863,-0.030303044244647026,-0.006423011887818575
1751013801981483800,5.11748388671875,-0.030316893011331558,-0.03653803840279579,-0.003228283952921629
1751013801991426800,5.1274267578125,-0.017012538388371468,-0.03856363892555237,0.002730805426836014
1751013802001370600,5.13737060546875,-0.00126766471657902,-0.038117293268442154,0.017849303781986237
1751013802011313700,5.147313720703125,0.013365340419113636,-0.03273504227399826,0.04219299182295799
1751013802021258000,5.157258056640625,0.01666979119181633,-0.017781393602490425,0.07222706079483032
1751013802031200800,5.16720068359375,0.005907423794269562,0.014520086348056793,0.10390109568834305
1751013802041144800,5.177144775390625,-0.005271727219223976,0.056714411824941635,0.1164746806025505
1751013802051088000,5.187087890625,-0.00977513287216425,0.08544912189245224,0.11601981520652771
1751013802061032000,5.197031982421875,-0.00436092633754015,0.09968212246894836,0.119155153632164
1751013802070975700,5.206975830078125,-0.0015675366157665849,0.0867849588394165,0.12151684612035751
1751013802080918800,5.216918701171875,-0.005476790945976973,0.07186460494995117,0.11232520639896393
1751013802090862800,5.22686279296875,-0.010417487472295761,0.053818490356206894,0.08953201025724411
1751013802100805600,5.2368056640625,-0.020857078954577446,0.04117966070771217,0.05438894033432007
1751013802110749700,5.246749755859375,-0.03098161891102791,0.029643645510077477,0.02088717184960842
1751013802120692700,5.256692626953125,-0.03681473806500435,0.02455887198448181,-0.007869374938309193
1751013802130636800,5.26663671875,-0.032645296305418015,0.02275298349559307,-0.0254592876881361
1751013802140579600,5.27657958984375,-0.029561620205640793,0.009014533832669258,-0.033013343811035156
1751013802150523600,5.286523681640625,-0.028310200199484825,-0.004340153653174639,-0.03316061571240425
1751013802160466700,5.296466796875,-0.029416212812066078,-0.015588014386594296,-0.018387796357274055
1751013802170410800,5.30641064453125,-0.028486503288149834,-0.01955612376332283,0.0007552724564447999
1751013802180353800,5.316353759765625,-0.02130076102912426,-0.016879115253686905,0.01019751001149416
1751013802190297900,5.3262978515625,-0.011817244812846184,-0.0027976506389677525,0.01510225422680378
1751013802200241000,5.336240966796875,0.0021086910273879766,0.01563595049083233,0.01691560074687004
1751013802210184700,5.346184814453125,0.024029435589909554,0.038601987063884735,0.032696425914764404
1751013802220127700,5.356127685546875,0.037039775401353836,0.061888400465250015,0.07145367562770844
1751013802230071800,5.36607177734375,0.03472575545310974,0.09966374188661575,0.12441116571426392
1751013802240014800,5.376014892578125,0.028295021504163742,0.12401941418647766,0.16061124205589294
1751013802249958700,5.385958740234375,0.021197697147727013,0.1334427446126938,0.17531855404376984
1751013802259901700,5.395901611328125,0.021975606679916382,0.1398947834968567,0.1564740240573883
1751013802269845800,5.405845703125,0.01878087781369686,0.142074316740036,0.1137143149971962
1751013802279788800,5.415788818359375,0.01624714583158493,0.13334687054157257,0.052375856786966324
1751013802289732600,5.425732666015625,0.00896979309618473,0.11099602282047272,-0.0037228327710181475
1751013802299675600,5.435675537109375,0.0009992180857807398,0.0865790992975235,-0.039271239191293716
1751013802309619700,5.44561962890625,-0.014248711057007313,0.05880259722471237,-0.04893851280212402
1751013802319562800,5.455562744140625,-0.02570429816842079,0.03238430619239807,-0.04416799545288086
1751013802329506800,5.4655068359375,-0.0268276184797287,0.016595222055912018,-0.03555932641029358
1751013802339449600,5.47544970703125,-0.025611886754631996,0.015306252054870129,-0.033551834523677826
1751013802349394000,5.485393798828125,-0.025623871013522148,0.00908457487821579,-0.027153057977557182
1751013802359337000,5.4953369140625,-0.030589867383241653,0.01143028773367405,-0.015797073021531105
1751013802369280800,5.50528076171875,-0.028538167476654053,0.010862767696380615,0.0031065773218870163
1751013802379223800,5.515223876953125,-0.019342804327607155,0.010871023871004581,0.020167052745819092
1751013802389167900,5.52516796875,-0.011726696975529194,0.007816111668944359,0.030437268316745758
1751013802399111000,5.53511083984375,-0.00043995422311127186,0.015360580757260323,0.03153342381119728
1751013802409054700,5.5450546875,0.013463078066706657,0.02075641043484211,0.02707263082265854
1751013802418997800,5.554997802734375,0.018065819516777992,0.024584971368312836,0.025237180292606354
1751013802428941800,5.56494189453125,0.010806042701005936,0.022296249866485596,0.013041500002145767
1751013802438884600,5.574884521484375,-0.011464376002550125,0.01375016663223505,0.0004958806093782187
1751013802448828700,5.58482861328125,-0.036257341504096985,0.004832572303712368,-0.01594514399766922
1751013802458771700,5.594771728515625,-0.06232143193483353,0.005201419815421104,-0.03441043943166733
1751013802468715800,5.6047158203125,-0.08162935078144073,0.009321330115199089,-0.04289819672703743
1751013802478658600,5.614658447265625,-0.08839564025402069,0.010090184397995472,-0.050088733434677124
1751013802488603000,5.624602783203125,-0.07456664741039276,0.010860370472073555,-0.0510978065431118
1751013802498545700,5.634545654296875,-0.04483964294195175,0.018368620425462723,-0.046597596257925034
1751013802508489700,5.64448974609375,-0.013689713552594185,0.020108196884393692,-0.04231736436486244
1751013802518432800,5.654432861328125,0.0126982182264328,0.019780362024903297,-0.05008846893906593
1751013802528376800,5.664376953125,0.04217195510864258,0.015811985358595848,-0.050271693617105484
1751013802538320000,5.67431982421875,0.06220158934593201,0.007816910743713379,-0.045824747532606125
1751013802548263700,5.684263671875,0.05965640768408775,-0.0023523701820522547,-0.039318643510341644
1751013802558207700,5.694207763671875,0.04542340710759163,-0.0032352081034332514,-0.03218856081366539
1751013802568150800,5.70415087890625,0.03195234015583992,-0.002627208363264799,-0.02588246390223503
1751013802578094800,5.7140947265625,0.013113937340676785,-0.008290686644613743,-0.02696557156741619
1751013802588037600,5.72403759765625,0.0015156050212681293,-0.0065444521605968475,-0.024283502250909805
1751013802597981700,5.733981689453125,0.004057592246681452,0.0032743564806878567,-0.020988373085856438
1751013802607924700,5.7439248046875,0.00984251033514738,0.003870638320222497,-0.015292936004698277
1751013802617868500,5.75386865234375,0.02594371698796749,0.010830809362232685,-0.015235411934554577
1751013802627811600,5.7638115234375,0.03949388116598129,0.019183548167347908,-0.015115569345653057
1751013802637756000,5.773755859375,0.04294693470001221,0.02532453089952469,-0.010105098597705364
1751013802647699000,5.783698974609375,0.047438088804483414,0.05518123134970665,-0.0020474381744861603
1751013802657642800,5.793642822265625,0.045699577778577805,0.10723963379859924,-0.0046639940701425076
1751013802667585800,5.803585693359375,0.04536188766360283,0.15657496452331543,-0.014649515971541405
1751013802677529900,5.81352978515625,0.05462010204792023,0.19411994516849518,-0.01176264975219965
1751013802687473000,5.823472900390625,0.0770559012889862,0.2217283993959427,-0.002927612978965044
1751013802697416400,5.83341650390625,0.09667647629976273,0.23110459744930267,0.002969424705952406
1751013802707359500,5.843359375,0.10560072958469391,0.2120552659034729,0.006583600305020809
1751013802717303600,5.853303466796875,0.10018545389175415,0.16014599800109863,-0.0001382180635118857
1751013802727246600,5.86324658203125,0.07724791765213013,0.09897744655609131,0.003917243797332048
1751013802737190400,5.8731904296875,0.04781971871852875,0.03135818988084793,0.023061642423272133
1751013802747133400,5.883133544921875,0.013554956763982773,-0.015267635695636272,0.048161670565605164
1751013802757077800,5.893077880859375,-0.02225310727953911,-0.04098445177078247,0.058455586433410645
1751013802767020800,5.903020751953125,-0.043721914291381836,-0.0387580469250679,0.055741291493177414
1751013802776964600,5.912964599609375,-0.046367764472961426,-0.01768631860613823,0.0541098415851593
1751013802786907600,5.92290771484375,-0.03442508354783058,0.00878976285457611,0.04478931054472923
1751013802796851700,5.932851806640625,-0.01611771620810032,0.031386952847242355,0.029744580388069153
1751013802806794800,5.942794677734375,-0.0041220407001674175,0.040111999958753586,0.007947404868900776
1751013802816738600,5.952738525390625,0.016833841800689697,0.03262212499976158,-0.005898102652281523
1751013802826681600,5.962681640625,0.029688119888305664,0.023748472332954407,-0.005687979515641928
1751013802836625700,5.972625732421875,0.02624358795583248,0.010334929451346397,-0.0016490293201059103
1751013802846568700,5.982568603515625,0.004944957327097654,0.0005281048361212015,-0.0007411577389575541
1751013802856512500,5.992512451171875,-0.013880395330488682,-0.0017310547409579158,0.005929528269916773
1751013802866455600,6.00245556640625,-0.033309753984212875,0.0025326660834252834,0.002603239845484495
1751013802876399600,6.012399658203125,-0.05829339846968651,0.01666606217622757,-0.008629174903035164
1751013802886342400,6.02234228515625,-0.07736216485500336,0.040833450853824615,-0.025306155905127525
1751013802896286500,6.032286376953125,-0.09109661728143692,0.05811337009072304,-0.0358235128223896
1751013802906229500,6.0422294921875,-0.08986970037221909,0.07510486990213394,-0.026693928986787796
1751013802916173800,6.052173828125,-0.06190650910139084,0.08869844675064087,0.0049004824832081795
1751013802926116600,6.06211669921875,-0.02268081158399582,0.08912641555070877,0.051545750349760056
1751013802936060700,6.072060791015625,0.0015004249289631844,0.07664337754249573,0.07188937067985535
1751013802946003700,6.082003662109375,0.01654808409512043,0.06366872787475586,0.058578889816999435
1751013802955947500,6.091947509765625,0.019874637946486473,0.03701714053750038,0.021695708855986595
1751013802965890600,6.101890625,0.019601929932832718,0.013074522837996483,-0.0022711437195539474
1751013802975834600,6.111834716796875,0.007144995033740997,-0.0033358754590153694,-0.012807940132915974
1751013802985777700,6.121777587890625,-0.005450425669550896,-0.004372644238173962,-0.0010684601729735732
1751013802995721500,6.131721435546875,-0.006909038871526718,0.009647833183407784,0.02226908691227436
1751013803005664500,6.14166455078125,0.0012602078495547175,0.0332234688103199,0.04884397238492966
1751013803015608600,6.151608642578125,0.011096592992544174,0.04965170845389366,0.06533186882734299
1751013803025551600,6.161551513671875,0.02598739229142666,0.055755939334630966,0.06518539786338806
1751013803035495400,6.171495361328125,0.0362301766872406,0.048117995262145996,0.05337001383304596
1751013803045438500,6.1814384765625,0.04412005841732025,0.02804708108305931,0.035587288439273834
1751013803055382500,6.191382568359375,0.04235038533806801,0.0017694041598588228,0.022231003269553185
1751013803065325600,6.20132568359375,0.038114629685878754,-0.023780429735779762,0.00947765726596117
1751013803075269600,6.21126953125,0.027934694662690163,-0.0472806952893734,-0.00884915143251419
1751013803085212700,6.221212646484375,0.015533685684204102,-0.05968676507472992,-0.021158015355467796
1751013803095156700,6.23115673828125,0.00410473020747304,-0.06096747890114784,-0.030832480639219284
1751013803105099800,6.241099853515625,0.0025561018846929073,-0.0555839017033577,-0.03449006751179695
1751013803115043600,6.251043701171875,0.004897020757198334,-0.04206569492816925,-0.03199228644371033
1751013803124986600,6.260986572265625,0.014119547791779041,-0.025854233652353287,-0.022284531965851784
1751013803134930700,6.2709306640625,0.023013707250356674,-0.032337699085474014,-0.020805146545171738
1751013803144873700,6.280873779296875,0.023086942732334137,-0.07390911132097244,-0.014970427379012108
1751013803154817500,6.290817626953125,0.008646219037473202,-0.14371508359909058,0.007254983298480511
1751013803164760600,6.300760498046875,-0.02045094594359398,-0.22006338834762573,0.050465039908885956
1751013803174704600,6.31070458984375,-0.054060839116573334,-0.27113109827041626,0.10930944979190826
1751013803184647700,6.320647705078125,-0.07589689642190933,-0.2972034513950348,0.15663275122642517
1751013803194591500,6.330591552734375,-0.08306825160980225,-0.2879020869731903,0.1872338056564331
1751013803204534500,6.340534423828125,-0.07516532391309738,-0.2536700963973999,0.18885940313339233
1751013803214478600,6.350478515625,-0.054795339703559875,-0.18361777067184448,0.1644512563943863
1751013803224421400,6.36042138671875,-0.02105868048965931,-0.08243495225906372,0.1123017743229866
1751013803234365700,6.37036572265625,0.027952272444963455,0.015044196508824825,0.03038986399769783
1751013803244309800,6.380309814453125,0.08313296735286713,0.09020925313234329,-0.05650268867611885
1751013803254252800,6.390252685546875,0.12943974137306213,0.13174018263816833,-0.1258772313594818
1751013803264195600,6.400195556640625,0.14657984673976898,0.14037548005580902,-0.15463857352733612
1751013803274139600,6.4101396484375,0.13318122923374176,0.130997434258461,-0.14590181410312653
1751013803284082700,6.420082763671875,0.09674198925495148,0.10922635346651077,-0.1074950322508812
1751013803294026500,6.430026611328125,0.0666450709104538,0.08433432132005692,-0.05108289048075676
1751013803303970600,6.439970458984375,0.037994518876075745,0.06711965054273605,-0.0007960188668221235
1751013803313913600,6.44991357421875,0.012838833034038544,0.04637788608670235,0.02329467050731182
1751013803323857700,6.459857666015625,0.001627191435545683,0.030837541446089745,0.026083000004291534
1751013803333800400,6.469800537109375,-0.0014671353856101632,0.022658174857497215,0.021984394639730453
1751013803343744500,6.47974462890625,0.005879727192223072,0.022517826408147812,0.019296998158097267
1751013803353687600,6.4896875,0.013846573419868946,0.02804788015782833,0.022222481667995453
1751013803363631400,6.49963134765625,0.018689531832933426,0.035476233810186386,0.038901060819625854
1751013803373574400,6.509574462890625,0.020598486065864563,0.04186888784170151,0.054605986922979355
1751013803383518700,6.519518798828125,0.024412399157881737,0.038363900035619736,0.0653931200504303
1751013803393461800,6.529461669921875,0.021755894646048546,0.039202261716127396,0.07376796007156372
1751013803403405600,6.539405517578125,0.021947909146547318,0.03304556757211685,0.07179749011993408
1751013803413348600,6.5493486328125,0.024049144238233566,0.01996678300201893,0.0671289712190628
1751013803423292700,6.559292724609375,0.02829049341380596,0.008569519966840744,0.0628623217344284
1751013803433235700,6.569235595703125,0.03592471033334732,-0.00023276027059182525,0.0659760907292366
1751013803443179500,6.579179443359375,0.035476766526699066,0.00039947417099028826,0.06245645508170128
1751013803453122600,6.58912255859375,0.025775671005249023,0.002389388158917427,0.04880189523100853
1751013803463066600,6.599066650390625,0.01333098579198122,0.006800914648920298,0.0161262396723032
1751013803473009700,6.609009765625,0.006674414500594139,0.013494770042598248,-0.013036173768341541
1751013803482953500,6.618953369140625,-0.00043302998528815806,0.02840527519583702,-0.041675008833408356
1751013803492896500,6.628896484375,0.0024170849937945604,0.039976444095373154,-0.05106557905673981
1751013803502840600,6.638840576171875,0.0029854036401957273,0.03742833063006401,-0.049243178218603134
1751013803512783600,6.64878369140625,0.010852914303541183,0.036615002900362015,-0.03755057230591774
1751013803522727400,6.6587275390625,0.01925012655556202,0.03581445664167404,-0.015796540305018425
1751013803532670500,6.66867041015625,0.026758909225463867,0.04243534058332443,0.011698467656970024
1751013803542614800,6.67861474609375,0.02889263443648815,0.039873380213975906,0.0280928872525692
1751013803552557800,6.688557861328125,0.026642795652151108,0.0429471991956234,0.029917152598500252
1751013803562501600,6.698501708984375,0.01938781328499317,0.03807521238923073,0.014059093780815601
1751013803572444700,6.708444580078125,0.008779909461736679,0.03869892656803131,-0.02178598940372467
1751013803582388700,6.718388671875,-0.0035060516092926264,0.050809118896722794,-0.057074204087257385
1751013803592331500,6.72833154296875,-0.019340142607688904,0.060334712266922,-0.09441305696964264
1751013803602275600,6.738275634765625,-0.04159591346979141,0.06893645972013474,-0.11262747645378113
1751013803612218600,6.748218505859375,-0.05059553310275078,0.08919272571802139,-0.11499982327222824
1751013803622162700,6.75816259765625,-0.04571688920259476,0.10314928740262985,-0.0970999151468277
1751013803632105500,6.76810546875,-0.04085448756814003,0.10073699802160263,-0.08488266915082932
1751013803642049500,6.778049560546875,-0.024836907163262367,0.0869133248925209,-0.08241045475006104
1751013803651992600,6.78799267578125,-0.015338475815951824,0.07910174131393433,-0.09028542041778564
1751013803661936600,6.7979365234375,-0.010568488389253616,0.061708372086286545,-0.09129448980093002
1751013803671879400,6.80787939453125,-0.011092065833508968,0.04478451609611511,-0.0648019015789032
1751013803681823500,6.817823486328125,-0.007720770314335823,0.03593562915921211,-0.017604559659957886
1751013803691766500,6.8277666015625,-0.004896221682429314,0.025849441066384315,0.030429011210799217
1751013803701710600,6.837710693359375,-0.003983023576438427,0.015152587555348873,0.07126512378454208
1751013803711653600,6.847653564453125,0.007109042257070541,0.015894543379545212,0.09845945984125137
1751013803721597700,6.85759765625,0.0181084293872118,0.015229286625981331,0.1061520054936409
1751013803731540700,6.867540771484375,0.028485437855124474,0.012879046611487865,0.0849045068025589
1751013803741484500,6.877484619140625,0.03247964754700661,0.0015475628897547722,0.046689473092556
1751013803751427600,6.887427490234375,0.038899727165699005,-0.0009100021561607718,0.010521883144974709
1751013803761371600,6.89737158203125,0.04466307535767555,-0.0026293389964848757,-0.011841746047139168
1751013803771314700,6.907314697265625,0.053213153034448624,-0.008301072753965855,-0.02117905393242836
1751013803781258800,6.9172587890625,0.050339069217443466,-0.002758768619969487,-0.01429212000221014
1751013803791201800,6.927201904296875,0.050686612725257874,0.0009318400407209992,-0.0013068130938336253
1751013803801145900,6.937145751953125,0.04891108348965645,0.002433330286294222,0.014090253040194511
1751013803811089000,6.9470888671875,0.05620281770825386,0.011271563358604908,0.02666489966213703
1751013803821032700,6.95703271484375,0.061762966215610504,0.014496118761599064,0.03885845094919205
1751013803830975700,6.966975830078125,0.06804802268743515,0.015254320576786995,0.04674619808793068
1751013803840919800,6.976919921875,0.06298668682575226,0.0112196309491992,0.0521545484662056
1751013803850862800,6.98686279296875,0.05766063183546066,0.0121852932497859,0.0560893677175045
1751013803860806700,6.996806640625,0.05006662756204605,0.00806272029876709,0.04965383931994438
1751013803870749700,7.006749755859375,0.041201233863830566,0.0011715245200321078,0.03988190367817879
1751013803880693800,7.01669384765625,0.031684160232543945,-0.0012522183824330568,0.03622564673423767
1751013803890636800,7.02663671875,0.018386730924248695,0.003988349810242653,0.030957384034991264
1751013803900580600,7.03658056640625,0.007297860458493233,0.02719087526202202,0.033301763236522675
1751013803910523600,7.046523681640625,0.005844040773808956,0.05253085121512413,0.03241706266999245
1751013803920467700,7.0564677734375,0.00911600049585104,0.08202536404132843,0.029454028233885765
1751013803930410500,7.066410400390625,0.01387160737067461,0.10887482017278671,0.022728748619556427
1751013803940354800,7.076354736328125,0.0350746288895607,0.12178688496351242,0.02207867056131363
1751013803950297900,7.0862978515625,0.063146211206913,0.12944960594177246,0.03307193145155907
1751013803960242000,7.096241943359375,0.08419956266880035,0.12714357674121857,0.0529998354613781
1751013803970184700,7.106184814453125,0.0893184244632721,0.10132955014705658,0.07003607600927353
1751013803980128800,7.116128662109375,0.06980118900537491,0.06207908317446709,0.06663548946380615
1751013803990071800,7.12607177734375,0.040296025574207306,0.01751880533993244,0.057909104973077774
1751013804000015600,7.136015625,0.007754592224955559,-0.011858257465064526,0.04946928098797798
1751013804009958700,7.145958740234375,-0.019725501537322998,-0.02666569873690605,0.04620451480150223
1751013804019902700,7.15590283203125,-0.03729331120848656,-0.028178108856081963,0.04180843383073807
1751013804029845800,7.165845703125,-0.03182078152894974,-0.027223898097872734,0.048225320875644684
1751013804039789600,7.17578955078125,-0.009491772390902042,-0.018547585234045982,0.06419656425714493
1751013804049732600,7.185732666015625,0.013197294436395168,-0.004652276169508696,0.07281854748725891
1751013804059676700,7.1956767578125,0.03242318704724312,-0.0005696501466445625,0.07461804151535034
1751013804069619700,7.20561962890625,0.04084783047437668,0.0035092474427074194,0.06555051356554031
1751013804079563500,7.2155634765625,0.04289793223142624,0.00905368197709322,0.048773929476737976
1751013804089506600,7.225506591796875,0.04843304678797722,0.005474127363413572,0.04000653699040413
1751013804099451000,7.235450927734375,0.047927312552928925,-0.0027624969370663166,0.03844539448618889
1751013804109394000,7.245393798828125,0.04860508814454079,-0.012179967015981674,0.04258474335074425
1751013804119337700,7.255337646484375,0.043355997651815414,-0.01552036963403225,0.05597671493887901
1751013804129280800,7.26528076171875,0.03815218061208725,-0.012413259595632553,0.05814665928483009
1751013804139224800,7.275224853515625,0.035594213753938675,-0.0046538738533854485,0.051425639539957047
1751013804149167900,7.28516796875,0.029100893065333366,-0.0004005394293926656,0.03597930446267128
1751013804159111700,7.295111572265625,0.019772905856370926,0.003460777923464775,0.005097024142742157
1751013804169054700,7.3050546875,0.006313822232186794,0.0017188041238114238,-0.03237711265683174
1751013804178998800,7.314998779296875,-0.011958925053477287,-0.006688529159873724,-0.07683033496141434
1751013804188941800,7.32494189453125,-0.029529130086302757,-0.018501779064536095,-0.10607556998729706
1751013804198885600,7.3348857421875,-0.041241444647312164,-0.02135748602449894,-0.10841116309165955
1751013804208828700,7.34482861328125,-0.05109461024403572,-0.01780802570283413,-0.0835481584072113
1751013804218772700,7.354772705078125,-0.050330016762018204,-0.0013494236627593637,-0.035469043999910355
1751013804228715800,7.3647158203125,-0.03906724229454994,0.023852068930864334,0.030117688700556755
1751013804238659600,7.37465966796875,-0.015385880134999752,0.045036185532808304,0.09075866639614105
1751013804248602600,7.3846025390625,0.0020908478181809187,0.05199981853365898,0.13116760551929474
1751013804258547000,7.394546875,0.014156032353639603,0.04981149733066559,0.1421976238489151
1751013804268489700,7.40448974609375,0.016437562182545662,0.05037742108106613,0.11855088174343109
1751013804278433800,7.414433837890625,0.015188007615506649,0.04640105366706848,0.07243158668279648
1751013804288376800,7.424376953125,0.007937018759548664,0.038906652480363846,0.028136029839515686
1751013804298321000,7.43432080078125,-0.007126619108021259,0.026998061686754227,-0.015604259446263313
1751013804308263700,7.444263671875,-0.028690233826637268,0.017437579110264778,-0.04391952231526375
1751013804318207700,7.454207763671875,-0.04687323421239853,0.0003787015157286078,-0.05999515950679779
1751013804328150800,7.46415087890625,-0.04814702272415161,-0.02424914762377739,-0.06005215272307396
1751013804338094600,7.474094482421875,-0.04367131367325783,-0.03826482966542244,-0.04565190523862839
1751013804348037600,7.48403759765625,-0.035965193063020706,-0.05547497794032097,-0.026006300002336502
1751013804357981700,7.493981689453125,-0.023429425433278084,-0.052254680544137955,-0.00032730249222368
1751013804367924700,7.5039248046875,-0.008992429822683334,-0.043178364634513855,0.03440351411700249
1751013804377868500,7.51386865234375,0.002171275205910206,-0.027409253641963005,0.0684506967663765
1751013804387811600,7.5238115234375,0.010990599170327187,-0.017827732488512993,0.08183468133211136
1751013804397755600,7.533755615234375,0.01925944909453392,-0.0204490814357996,0.07585002481937408
1751013804407698700,7.54369873046875,0.01617737114429474,-0.03947923332452774,0.04525536298751831
1751013804417642800,7.553642822265625,0.013203952461481094,-0.05150526762008667,0.01495285052806139
1751013804427585500,7.56358544921875,0.003043993143364787,-0.05319371446967125,-0.021435517817735672
1751013804437529900,7.57352978515625,0.0017651431262493134,-0.03351854532957077,-0.038306642323732376
1751013804447473000,7.583472900390625,0.006223008502274752,-0.0005560680292546749,-0.03248364105820656
1751013804457416700,7.593416748046875,0.010176205076277256,0.021892782300710678,-0.008304002694785595
1751013804467359700,7.60335986328125,0.0038149782922118902,0.03785283863544464,0.017885522916913033
1751013804477303800,7.6133037109375,0.009503223933279514,0.04153252765536308,0.046914778649806976
1751013804487246800,7.623246826171875,0.013521667569875717,0.0351923406124115,0.06855455785989761
1751013804497190700,7.633190673828125,0.015410115011036396,0.02352023869752884,0.08030948787927628
1751013804507133700,7.6431337890625,0.021465344354510307,0.007954595610499382,0.08858712017536163
1751013804517077800,7.653077880859375,0.01932389661669731,-0.008170577697455883,0.08725874125957489
1751013804527020800,7.663020751953125,0.017671404406428337,-0.018257301300764084,0.08813785016536713
1751013804536964600,7.672964599609375,0.012694490142166615,-0.015426094643771648,0.08708083629608154
1751013804546907600,7.68290771484375,0.00618252856656909,-0.0020479708909988403,0.0905994102358818
1751013804556851700,7.692851806640625,0.00009241169027518481,0.01913614384829998,0.0893716886639595
1751013804566794800,7.702794677734375,-0.0021582257468253374,0.03617105260491371,0.0937264934182167
1751013804576738800,7.71273876953125,-0.0021254688035696745,0.05350476875901222,0.09172326326370239
1751013804586681600,7.722681640625,0.004896754398941994,0.06452120095491409,0.07689424604177475
1751013804596626000,7.7326259765625,0.01477361936122179,0.06923925876617432,0.06286205351352692
1751013804606568700,7.742568603515625,0.0279765073210001,0.06960517913103104,0.05077023804187775
1751013804616512800,7.7525126953125,0.03900092840194702,0.06178746744990349,0.05199449136853218
1751013804626455800,7.762455810546875,0.03753006458282471,0.05798740312457085,0.0635499507188797
1751013804636399900,7.77239990234375,0.03780490159988403,0.05114094913005829,0.09229051321744919
1751013804646342700,7.7823427734375,0.039745815098285675,0.03924247622489929,0.12667272984981537
1751013804656286700,7.79228662109375,0.046600259840488434,0.02804841287434101,0.17023324966430664
1751013804666229800,7.802229736328125,0.04061879962682724,0.02028157003223896,0.19128979742527008
1751013804676173600,7.812173583984375,0.01913880743086338,0.005623797420412302,0.17608101665973663
1751013804686117600,7.82211767578125,-0.0011827098205685616,0.0006894923863001168,0.12869219481945038
1751013804696060200,7.83206005859375,0.0023901870008558035,-0.005547630600631237,0.05192019045352936
1751013804706004500,7.84200439453125,0.026318956166505814,-0.013827132061123848,-0.022380406036973
1751013804715947300,7.851947265625,0.06626451015472412,-0.01074026245623827,-0.08165092021226883
1751013804725891300,7.861891357421875,0.0979318916797638,0.0024410535115748644,-0.12297732383012772
1751013804735834400,7.87183447265625,0.11072198301553726,0.007453389000147581,-0.1338198482990265
1751013804745778400,7.8817783203125,0.09962619096040726,0.016272446140646935,-0.10819091647863388
1751013804755721200,7.89172119140625,0.08559053391218185,0.026325613260269165,-0.0593208484351635
1751013804765664300,7.901664306640625,0.06564319133758545,0.01236239355057478,-0.001745968358591199
1751013804775608300,7.9116083984375,0.05048847571015358,-0.010993529111146927,0.052263472229242325
1751013804785552400,7.921552490234375,0.044391434639692307,-0.018017882481217384,0.0964365229010582
1751013804795495200,7.9314951171875,0.044262271374464035,-0.016231967136263847,0.11928112059831619
1751013804805439200,7.941439208984375,0.06252196431159973,-0.0037531929556280375,0.12309955805540085
1751013804815382300,7.95138232421875,0.12648417055606842,0.011333081871271133,0.14690662920475006
1751013804825325300,7.9613251953125,0.14301201701164246,0.0522373728454113,0.13018037378787994
1751013804835269000,7.97126904296875,0.12048166990280151,0.05655009299516678,0.08804197609424591
1751013804845213200,7.981213134765625,0.08939646184444427,0.06562348455190659,0.033425066620111465
1751013804855156200,7.99115625,0.07557092607021332,0.0768846645951271,0.0015041533624753356
1751013804865100000,8.00110009765625,0.07077936083078384,0.0797070786356926,-0.01907169446349144
1751013804875043000,8.01104296875,0.06167135387659073,0.0777754858136177,-0.03442109003663063
1751013804884987400,8.0209873046875,0.044436439871788025,0.0645209327340126,-0.05037582293152809
1751013804894930400,8.030930419921875,0.02219291962683201,0.06087986379861832,-0.06620245426893234
1751013804904874200,8.040874267578126,0.01786874607205391,0.06960118561983109,-0.07407476007938385
1751013804914817300,8.0508173828125,0.023844346404075623,0.08861641585826874,-0.08642277121543884
1751013804924761300,8.06076123046875,0.04171708598732948,0.10193728655576706,-0.11013076454401016
1751013804934704400,8.070704345703126,0.06295713037252426,0.11867312341928482,-0.1321958601474762
1751013804944648200,8.080648193359375,0.08396174758672714,0.12645940482616425,-0.13755573332309723
1751013804954591200,8.09059130859375,0.10394850373268127,0.13378550112247467,-0.12976890802383423
1751013804964535300,8.100535400390624,0.11655670404434204,0.1244463175535202,-0.12514327466487885
1751013804974478300,8.110478271484375,0.12287452071905136,0.11612633615732193,-0.11357636004686356
1751013804984422100,8.120422119140626,0.11674366146326065,0.09826505184173584,-0.1059836894273758
1751013804994365200,8.130365234375,0.09923124313354492,0.07288326323032379,-0.10659807920455933
1751013805004309200,8.140309326171876,0.0828099250793457,0.044555217027664185,-0.10193861275911331
1751013805014252300,8.150252197265624,0.07158657163381577,0.03425011411309242,-0.09732016175985336
1751013805024196000,8.160196044921875,0.06524504721164703,0.021636053919792175,-0.10573069006204605
1751013805034139100,8.17013916015625,0.06710979342460632,0.018579808995127678,-0.1139710396528244
1751013805044083500,8.18008349609375,0.06991676986217499,0.020136959850788116,-0.11479848623275757
1751013805054026200,8.190026123046875,0.08470077067613602,0.02346191555261612,-0.107583187520504
1751013805063970300,8.19997021484375,0.09260077029466629,0.03453001379966736,-0.09519442915916443
1751013805073913300,8.209913330078125,0.09996335208415985,0.048161670565605164,-0.08387492597103119
1751013805083857400,8.219857421875,0.10695227980613708,0.06377951055765152,-0.08318250626325607
1751013805093800200,8.22980029296875,0.10738451033830643,0.07539995014667511,-0.08843212574720383
1751013805103744300,8.239744140625,0.121546670794487,0.08233828097581863,-0.09606234729290009
1751013805113687300,8.249687255859374,0.13277003169059753,0.07492377609014511,-0.09311183542013168
1751013805123631400,8.25963134765625,0.13806386291980743,0.05994482710957527,-0.07858455926179886
1751013805133574100,8.26957421875,0.12877608835697174,0.04525056853890419,-0.05859433859586716
1751013805143518200,8.279518310546875,0.1148003488779068,0.02983752451837063,-0.036431245505809784
1751013805153461200,8.289461181640625,0.09223219007253647,0.016864733770489693,-0.013993047177791595
1751013805163405000,8.299405029296874,0.06566955894231796,0.011712050065398216,0.006163353566080332
1751013805173348000,8.30934814453125,0.04619412496685982,0.017169931903481483,0.025104554370045662
1751013805183292200,8.319292236328126,0.033732131123542786,0.02251010201871395,0.03141491487622261
1751013805193235200,8.329235107421875,0.025895247235894203,0.018619224429130554,0.03087588958442211
1751013805203179300,8.33917919921875,0.026253174990415573,0.013772271573543549,0.023690681904554367
1751013805213122300,8.349122314453124,0.032169122248888016,0.0312199704349041,0.009593771770596504
1751013805223066400,8.35906640625,0.04806632921099663,0.050753459334373474,-0.023249397054314613
1751013805233009400,8.369009521484376,0.06550230830907822,0.07078016549348831,-0.06663761287927628
1751013805242953200,8.378953125,0.08075530081987381,0.0859450027346611,-0.10304515808820724
1751013805252896300,8.388896240234375,0.08055396378040314,0.08179046958684921,-0.12329903244972229
1751013805262840300,8.39884033203125,0.063295878469944,0.06392332166433334,-0.127094566822052
1751013805272783400,8.408783447265625,0.03700302541255951,0.04626230522990227,-0.11152280122041702
1751013805282727200,8.41872705078125,0.018805645406246185,0.025614017620682716,-0.09065506607294083
1751013805292670200,8.428670166015625,0.006179599091410637,0.003090598387643695,-0.06987442076206207
1751013805302614300,8.4386142578125,-0.010436395183205605,-0.01733424887061119,-0.06075975298881531
1751013805312557300,8.448557373046874,-0.016023706644773483,-0.029712621122598648,-0.057504039257764816
1751013805322501000,8.458501220703125,-0.012489160522818565,-0.02979251742362976,-0.05535007268190384
1751013805332444200,8.468444091796876,-0.009165002964437008,-0.02744893543422222,-0.06230012699961662
1751013805342388200,8.47838818359375,-0.004177967086434364,-0.02322329767048359,-0.06943127512931824
1751013805352331300,8.488331298828125,-0.0005174521938897669,-0.021386248990893364,-0.06825069338083267
1751013805362275300,8.498275390625,0.008656605146825314,-0.022610770538449287,-0.06079597398638725
1751013805372218400,8.50821826171875,0.016929714009165764,-0.027669178321957588,-0.04080016165971756
1751013805382162400,8.518162353515624,0.023742614313960075,-0.028263861313462257,-0.024059263989329338
1751013805392105200,8.528105224609375,0.025115739554166794,-0.030105970799922943,-0.0206924956291914
1751013805402049300,8.53804931640625,0.018605642020702362,-0.030841534957289696,-0.031797878444194794
1751013805411992300,8.547992431640624,0.018210696056485176,-0.025050757452845573,-0.04511155188083649
1751013805421936400,8.557936279296875,0.01840457320213318,-0.0240001417696476,-0.05697273835539818
1751013805431879200,8.567879150390626,0.019772106781601906,-0.018643992021679878,-0.0610889196395874
1751013805441823200,8.5778232421875,0.026395920664072037,-0.0035451999865472317,-0.05500918999314308
1751013805451766300,8.587766357421875,0.030366428196430206,0.0036093820817768574,-0.042209506034851074
1751013805461710300,8.59771044921875,0.025982864201068878,0.018872490152716637,-0.021868281066417694
1751013805471653000,8.607653076171875,0.02706757001578808,0.05362141504883766,-0.006120210513472557
1751013805481597200,8.61759716796875,0.025554629042744637,0.08701745420694351,-0.022418756037950516
1751013805491540200,8.627540283203125,0.03682459518313408,0.11434707790613174,-0.06702004373073578
1751013805501484000,8.637484130859375,0.04631556570529938,0.11554097384214401,-0.11962200701236725
1751013805511427000,8.647427001953124,0.0411013625562191,0.08706992119550705,-0.15701518952846527
1751013805521370000,8.6573701171875,0.021572669968008995,0.055026501417160034,-0.16194576025009155
1751013805531314400,8.667314453125,-0.0017590179340913892,0.028059331700205803,-0.14545519649982452
1751013805541257500,8.677257568359375,-0.019408585503697395,0.02238892950117588,-0.12412860244512558
1751013805551201300,8.687201171875,-0.02149197645485401,0.03838147595524788,-0.1039130836725235
1751013805561145300,8.697145263671874,-0.013984259217977524,0.05070898309350014,-0.09579496830701828
1751013805571088400,8.70708837890625,-0.0012599414912983775,0.05997172370553017,-0.10313650220632553
1751013805581031400,8.717031494140626,0.005528722424060106,0.05681454762816429,-0.12276693433523178
1751013805590975200,8.726975341796875,0.015804795548319817,0.05385923758149147,-0.1429763287305832
1751013805600918300,8.736918212890625,0.025297632440924644,0.05054013803601265,-0.15084384381771088
1751013805610862300,8.7468623046875,0.0377817340195179,0.05023813620209694,-0.14836576581001282
1751013805620805400,8.756805419921875,0.05377614498138428,0.0494740754365921,-0.14045937359333038
1751013805630749200,8.766749267578126,0.04417944699525833,0.06037253141403198,-0.13848863542079926
1751013805640692200,8.776692138671875,0.025418274104595184,0.0758337751030922,-0.14434413611888885
1751013805650636300,8.78663623046875,0.015586149878799915,0.06857027113437653,-0.15960323810577393
1751013805660579300,8.796579345703124,0.0052019525319337845,0.07817229628562927,-0.1879238337278366
1751013805670523100,8.806523193359375,-0.0065079666674137115,0.08223788440227509,-0.21388645470142365
1751013805680466200,8.816466064453126,-0.008959938772022724,0.08551383763551712,-0.2247401624917984
1751013805690410500,8.826410400390625,-0.010466489009559155,0.0871570035815239,-0.2168058156967163
1751013805700353000,8.83635302734375,-0.007822769694030285,0.06263089179992676,-0.1934264600276947
1751013805710297000,8.846297119140624,-0.019358783960342407,0.03274010494351387,-0.16421903669834137
1751013805720240000,8.856240234375,-0.027712853625416756,0.019578494131565094,-0.11475587636232376
1751013805730184200,8.86618408203125,-0.024174312129616737,0.05247572436928749,-0.05937863886356354
1751013805740127200,8.876127197265625,-0.011217501014471054,0.07985968142747879,-0.03759025037288666
1751013805750071300,8.8860712890625,-0.0041396175511181355,0.08578334748744965,-0.04712729901075363
1751013805760014300,8.896014404296874,0.01044225413352251,0.07520021498203278,-0.06280665844678879
1751013805769958100,8.905958251953125,0.008677111007273197,0.04968979209661484,-0.060683052986860275
1751013805779901200,8.915901123046876,-0.00917352456599474,0.02237508073449135,-0.044564805924892426
1751013805789845200,8.92584521484375,-0.029895581305027008,0.012537895701825619,-0.007697068154811859
1751013805799788300,8.935788330078125,-0.03820570930838585,0.040098950266838074,0.03245727717876434
1751013805809732000,8.945732177734374,-0.016921458765864372,0.0696917325258255,0.055331431329250336
1751013805819675100,8.955675048828125,0.021555092185735703,0.07364412397146225,0.047316115349531174
1751013805829619200,8.965619140625,0.03905871883034706,0.049616288393735886,0.024989239871501923
1751013805839562200,8.975562255859375,0.030295055359601974,0.03273850679397583,0.013230850920081139
1751013805849506000,8.985506103515625,0.005656553898006678,0.032288432121276855,0.004017644561827183
1751013805859449000,8.995448974609374,-0.00860334187746048,0.02557753212749958,-0.006473612040281296
1751013805869393200,9.00539306640625,-0.007562578655779362,0.0075692362152040005,-0.017222929745912552
1751013805879336200,9.015336181640626,0.0008809737046249211,-0.003615241264924407,-0.021382786333560944
1751013805889280300,9.0252802734375,0.012048141099512577,-0.0010804444318637252,-0.025138642638921738
1751013805899223300,9.035223388671875,0.021927936002612114,0.005243497900664806,-0.017099624499678612
1751013805909167400,9.04516748046875,0.03092755563557148,0.01774544082581997,-0.016451677307486534
1751013805919110400,9.0551103515625,0.03825124725699425,0.015682822093367577,-0.02286084182560444
1751013805929054200,9.06505419921875,0.030976824462413788,-0.004583832807838917,-0.05085119605064392
1751013805938997200,9.074997314453125,0.01588202826678753,-0.02412344515323639,-0.0806005671620369
1751013805948941300,9.08494140625,0.003832821501418948,-0.0413929782807827,-0.09695024788379669
1751013805958884400,9.09488427734375,0.004788097459822893,-0.04940403625369072,-0.10394370555877686
1751013805968828200,9.104828125,0.0009523464250378311,-0.06529884785413742,-0.10453865677118301
1751013805978771200,9.114771240234376,-0.007574562914669514,-0.06716518849134445,-0.10209547728300095
1751013805988715300,9.12471533203125,-0.00566827179864049,-0.05341954901814461,-0.08190631866455078
1751013805998658300,9.134658203125,0.0065351310186088085,-0.03490152582526207,-0.06455156207084656
1751013806008602000,9.14460205078125,0.02292662113904953,-0.0361446887254715,-0.055507201701402664
1751013806018545200,9.154545166015625,0.03285808116197586,-0.045040443539619446,-0.037573475390672684
1751013806028489200,9.1644892578125,0.037396106868982315,-0.06337657570838928,-0.02382756769657135
1751013806038432000,9.174431884765625,0.03068174608051777,-0.07690170407295227,-0.012209261767566204
1751013806048376300,9.184376220703125,0.024892833083868027,-0.08550771325826645,-0.013921407982707024
1751013806058319400,9.1943193359375,0.023780429735779762,-0.0771283432841301,-0.013559484854340553
1751013806068263200,9.20426318359375,0.018318818882107735,-0.06139811500906944,-0.01750442571938038
1751013806078206200,9.214206298828126,0.0021318604703992605,-0.046055108308792114,-0.03241626173257828
1751013806088150300,9.224150390625,-0.005271194502711296,-0.02875468321144581,-0.0411495678126812
1751013806098093300,9.23409326171875,-0.011154916137456894,-0.011092065833508968,-0.041014011949300766
1751013806108037000,9.244037109375,-0.0164780430495739,0.010085923597216606,-0.04356532171368599
1751013806117980200,9.253980224609375,-0.01731960102915764,0.027064107358455658,-0.04826260358095169
1751013806127924200,9.26392431640625,-0.0019387812353670597,0.03591059520840645,-0.04647056385874748
1751013806137867300,9.2738671875,0.017401892691850662,0.03856656700372696,-0.04020068421959877
1751013806147811000,9.28381103515625,0.031009048223495483,0.028627650812268257,-0.031129157170653343
1751013806157754000,9.293754150390624,0.028984513133764267,0.012229502201080322,-0.02142433263361454
1751013806167698200,9.3036982421875,0.008281099610030651,-0.010159959085285664,-0.022778283804655075
1751013806177641200,9.31364111328125,-0.029443375766277313,-0.03381335735321045,-0.0332341194152832
1751013806187585000,9.3235849609375,-0.07177538424730301,-0.05090206116437912,-0.0506029911339283
1751013806197528000,9.333528076171875,-0.10347339510917664,-0.06055682152509689,-0.06425648182630539
1751013806207472400,9.343472412109374,-0.1038353219628334,-0.05823054909706116,-0.06739049404859543
1751013806217415400,9.35341552734375,-0.08825582265853882,-0.045349106192588806,-0.06587408483028412
1751013806227359200,9.363359130859376,-0.05275615677237511,-0.03555399924516678,-0.07346169650554657
1751013806237302300,9.37330224609375,-0.02111220918595791,-0.020774254575371742,-0.07637546211481094
1751013806247246300,9.383246337890625,0.00177925790194422,0.004567853640764952,-0.08453352749347687
1751013806257189400,9.393189453125,0.021090637892484665,0.025357021018862724,-0.08721479773521423
1751013806267133200,9.40313330078125,0.037880003452301025,0.04085315763950348,-0.07118070125579834
1751013806277076200,9.413076171875,0.049912963062524796,0.04362071305513382,-0.04080841690301895
1751013806287020300,9.423020263671875,0.05748140066862106,0.029678532853722572,-0.0015028218040242791
1751013806296963300,9.43296337890625,0.062378689646720886,0.007020625285804272,0.03458540886640549
1751013806306907100,9.4429072265625,0.061289455741643906,-0.01065237820148468,0.05578949674963951
1751013806316850200,9.45285009765625,0.04941681772470474,-0.0223830696195364,0.05898182839155197
1751013806326794200,9.462794189453126,0.04698242247104645,-0.018817629665136337,0.054060839116573334
1751013806336737300,9.4727373046875,0.043247073888778687,-0.01321220863610506,0.0487385094165802
1751013806346681000,9.48268115234375,0.03837934508919716,-0.009543970227241516,0.038667768239974976
1751013806356624100,9.4926240234375,0.020542027428746223,-0.0108284130692482,0.010519219562411308
1751013806366568400,9.502568359375,0.008851282298564911,-0.011158911511301994,-0.016515860334038734
1751013806376511200,9.51251123046875,0.014568822458386421,-0.007861651480197906,-0.024719461798667908
1751013806386455300,9.522455322265625,0.013561881147325039,-0.008260859176516533,-0.028085164725780487
1751013806396398300,9.5323984375,0.009676063433289528,-0.014597584493458271,-0.02147706225514412
1751013806406342100,9.542342041015624,-0.0062493737787008286,-0.037346307188272476,-0.021198229864239693
1751013806416285200,9.55228515625,-0.05140326917171478,-0.07791956514120102,-0.04446706548333168
1751013806426229200,9.562229248046876,-0.11785180121660233,-0.11728428304195404,-0.07836165279150009
1751013806436172300,9.57217236328125,-0.17343810200691223,-0.13091567158699036,-0.0997910425066948
1751013806446116000,9.5821162109375,-0.19714128971099854,-0.1325410008430481,-0.09252966940402985
1751013806456059100,9.59205908203125,-0.19349730014801025,-0.12448946386575699,-0.061712633818387985
1751013806466003200,9.602003173828125,-0.1681535840034485,-0.10616958141326904,-0.034514300525188446
1751013806475946200,9.6119462890625,-0.12626846134662628,-0.06316831707954407,-0.012542955577373505
1751013806485890000,9.62189013671875,-0.07407289743423462,-0.011663580313324928,-0.016944628208875656
1751013806495833000,9.6318330078125,-0.03321414440870285,0.022901054471731186,-0.03215261176228523
1751013806505777200,9.641777099609374,-0.013973339460790157,0.034873295575380325,-0.06361759454011917
1751013806515720200,9.65172021484375,-0.01296213734894991,0.034819234162569046,-0.08594606816768646
1751013806525664300,9.661664306640626,-0.018456239253282547,0.03755030408501625,-0.09596247971057892
1751013806535607300,9.671607177734375,-0.02640790492296219,0.03936950862407684,-0.09608631581068039
1751013806545551400,9.68155126953125,-0.033432792872190475,0.03380323573946953,-0.08480437099933624
1751013806555494400,9.691494384765624,-0.03783978894352913,0.03521231561899185,-0.04758482798933983
1751013806565438200,9.701438232421875,-0.03286953270435333,0.04192481189966202,0.00407463638111949
1751013806575381200,9.71138134765625,-0.02365126647055149,0.04224332794547081,0.04667828977108002
1751013806585325300,9.7213251953125,-0.01732705906033516,0.0410398431122303,0.08041707426309586
1751013806595268400,9.731268310546875,-0.004239219706505537,0.03923741728067398,0.09260103851556778
1751013806605212200,9.741212158203124,0.006894924212247133,0.03574148565530777,0.08315081149339676
1751013806615155200,9.7511552734375,0.017538247630000114,0.03367993235588074,0.06651777774095535
1751013806625099300,9.761099365234376,0.036429379135370255,0.034377146512269974,0.052433378994464874
1751013806635042300,9.771042236328125,0.042161036282777786,0.03674789518117905,0.03345010057091713
1751013806644986000,9.780986083984375,0.03484639897942543,0.03269056975841522,0.00373135507106781
1751013806654929200,9.79092919921875,0.02587900124490261,0.029578665271401405,-0.01122442539781332
1751013806664873200,9.800873291015625,0.013679859228432178,0.031674571335315704,-0.022825688123703003
1751013806674816300,9.810816162109376,0.004629106726497412,0.022522618994116783,-0.02117133140563965
1751013806684760300,9.82076025390625,0.001404018490575254,0.018248245120048523,-0.010332265868782997
1751013806694703000,9.830703125,0.006532734259963036,0.01381115335971117,0.011717642657458782
1751013806704647400,9.8406474609375,0.007386011071503162,0.016412794589996338,0.02388988621532917
1751013806714590200,9.850590087890625,0.013800767250359058,0.019332950934767723,0.03321520984172821
1751013806724534300,9.8605341796875,0.01649348996579647,0.027692081406712532,0.04416586458683014
1751013806734477300,9.870477294921875,0.018148377537727356,0.03218190371990204,0.0414009690284729
1751013806744421400,9.88042138671875,0.015935290604829788,0.03478274866938591,0.03404797986149788
1751013806754364400,9.890364501953124,0.011772503145039082,0.03732207044959068,0.02051273174583912
1751013806764308500,9.90030859375,0.014366689138114452,0.045470546931028366,0.00418435875326395
1751013806774251500,9.91025146484375,0.020317789167165756,0.050924431532621384,-0.007692806888371706
1751013806784195300,9.9201953125,0.01973535493016243,0.05904680863022804,-0.015793876722455025
1751013806794138400,9.930138427734375,0.01888553984463215,0.058223091065883636,-0.02406512200832367
1751013806804082400,9.94008251953125,0.015993880107998848,0.059779711067676544,-0.02847025729715824
1751013806814025500,9.950025390625,0.00911733228713274,0.05585234612226486,-0.029562419280409813
1751013806823969300,9.95996923828125,0.001332645770162344,0.049860499799251556,-0.023244069889187813
1751013806833912300,9.969912353515625,-0.0006133259739726782,0.051956675946712494,-0.013497432693839073
1751013806843856400,9.9798564453125,0.008225439116358757,0.046544600278139114,-0.001059405505657196
1751013806853799400,9.98979931640625,0.009974603541195393,0.025663018226623535,0.009383914060890675
1751013806863743200,9.9997431640625,-0.013775466941297054,-0.005061337724328041,0.023900005966424942
1751013806873686300,10.009686279296876,-0.03670981153845787,0.0062453788705170155,0.06211397051811218
1751013806883630300,10.01963037109375,-0.03910452499985695,0.08612076938152313,0.099654421210289
1751013806893573400,10.029573486328125,-0.02347203716635704,0.1748322695493698,0.05564595013856888
1751013806903517400,10.039517333984374,-0.0018413095967844129,0.181637704372406,-0.05354338511824608
1751013806913460500,10.04946044921875,0.007217432837933302,0.08312444388866425,-0.13897572457790375
1751013806923404500,10.059404541015626,-0.004021373111754656,-0.005252286326140165,-0.14331507682800293
1751013806933347600,10.06934765625,-0.02930089645087719,-0.03906670957803726,-0.09167879074811935
1751013806943291400,10.07929150390625,-0.04092186689376831,-0.04128459095954895,-0.03275075554847717
1751013806953234400,10.089234375,-0.025476863607764244,-0.04200603812932968,-0.007423028815537691
1751013806963178500,10.099178466796875,-0.001612277701497078,-0.047266047447919846,-0.0015725966077297926
1751013806973121300,10.109121337890626,0.006304234731942415,-0.040822532027959824,-0.004596616141498089
1751013806983065300,10.1190654296875,0.008388957008719444,-0.03383306413888931,-0.010122142732143402
1751013806993008400,10.12900830078125,0.01787194050848484,-0.02430853620171547,-0.023143403232097626
1751013807002952400,10.138952392578124,0.037451766431331635,-0.006854710169136524,-0.03737586736679077
1751013807012895200,10.148895263671875,0.053336724638938904,0.00726510351523757,-0.05127250775694847
1751013807022839300,10.15883935546875,0.05467735975980759,0.00455773388966918,-0.054975900799036026
1751013807032782300,10.1687822265625,0.028111528605222702,-0.013213805854320526,-0.053339920938014984
1751013807042726400,10.178726318359375,-0.0016056197928264737,-0.03657372295856476,-0.04073651134967804
1751013807052669200,10.188669189453124,-0.026342125609517097,-0.05375111103057861,-0.022292789071798325
1751013807062613500,10.198613525390625,-0.03596599027514458,-0.04192294925451279,0.008619586937129498
1751013807072556500,10.208556640625,-0.028687037527561188,-0.02004215121269226,0.03235793858766556
1751013807082500400,10.218500244140625,-0.0073234266601502895,0.0009651295840740204,0.04025501012802124
1751013807092443400,10.228443359375,0.02136760577559471,0.019463179633021355,0.03794924542307854
1751013807102387500,10.238387451171874,0.04629239812493324,0.03810344263911247,0.029331523925065994
1751013807112330500,10.24833056640625,0.056523196399211884,0.04098258540034294,0.018577944487333298
1751013807122274300,10.2582744140625,0.054601460695266724,0.03891757130622864,0.01582503505051136
1751013807132217300,10.26821728515625,0.04590357467532158,0.03864246606826782,0.01215679757297039
1751013807142161400,10.278161376953125,0.02684466354548931,0.05215641111135483,0.006322344299405813
1751013807152104400,10.2881044921875,0.00672315014526248,0.05619509518146515,-0.010821755044162273
1751013807162048300,10.29804833984375,-0.003828826593235135,0.055199604481458664,-0.025787388905882835
1751013807171991300,10.3079912109375,-0.008825715631246567,0.044854022562503815,-0.01823919080197811
1751013807181935400,10.317935302734375,-0.005303152836859226,0.038416098803281784,0.0009331716573797166
1751013807191878400,10.32787841796875,0.004492220003157854,0.03153475746512413,0.03652951493859291
1751013807201822200,10.337822265625,0.018198445439338684,0.025123728439211845,0.06660112738609314
1751013807211765200,10.34776513671875,0.024228107184171677,0.014593590050935745,0.07721409201622009
1751013807221709600,10.35770947265625,0.03397820517420769,0.02251090109348297,0.06583546847105026
1751013807231652600,10.367652587890625,0.04680692031979561,0.030122483149170876,0.04457199573516846
1751013807241595400,10.377595458984375,0.04975210875272751,0.034868501126766205,0.00755112711340189
1751013807251539500,10.38753955078125,0.03755669668316841,0.035893019288778305,-0.02100355178117752
1751013807261482500,10.397482421875,0.02281157299876213,0.029222333803772926,-0.03616679087281227
1751013807271426600,10.407426513671876,0.015185344032943249,0.02098996937274933,-0.03616705909371376
1751013807281369300,10.417369384765625,0.007270163390785456,0.0032980586402118206,-0.013728328980505466
1751013807291313400,10.4273134765625,0.0034439999144524336,-0.011122958734631538,0.009977000765502453
1751013807301256400,10.43725634765625,-0.002282329136505723,-0.017965417355298996,0.03170653060078621
1751013807311200300,10.4472001953125,0.007152185309678316,-0.020681310445070267,0.042086731642484665
1751013807321143300,10.457143310546876,0.01655234582722187,-0.021771607920527458,0.04800800606608391
1751013807331087400,10.46708740234375,0.02093857154250145,-0.01829724758863449,0.03810477629303932
1751013807341030400,10.477030517578125,0.016860472038388252,-0.016809873282909393,0.020710604265332222
1751013807350974200,10.48697412109375,0.018704712390899658,-0.01131177693605423,-0.0036732980515807867
1751013807360917200,10.496917236328125,0.021869346499443054,-0.0034024545457214117,-0.01889672502875328
1751013807370861300,10.506861328125,0.03214382007718086,0.01212856825441122,-0.02690911293029785
1751013807380804400,10.516804443359375,0.03148388862609863,0.013246563263237476,-0.025435052812099457
1751013807390748400,10.52674853515625,0.024403609335422516,0.012524314224720001,-0.0073047843761742115
1751013807400691200,10.536691162109374,0.014305702410638332,0.00379021093249321,0.016027169302105904
1751013807410635500,10.546635498046875,0.01028619334101677,-0.005062136333435774,0.04427531734108925
1751013807420578600,10.55657861328125,0.010394850745797157,-0.01182044018059969,0.07342202216386795
1751013807430522400,10.5665224609375,0.005104214418679476,-0.010380202904343605,0.08881402760744095
1751013807440465400,10.57646533203125,-0.004366785287857056,-0.009155681356787682,0.0789874941110611
1751013807450409500,10.586409423828124,-0.018879149109125137,-0.001597630325704813,0.051469847559928894
1751013807460352500,10.5963525390625,-0.022337263450026512,0.0046485476195812225,0.008740761317312717
1751013807470296300,10.60629638671875,-0.023899473249912262,0.003919906914234161,-0.03511883690953255
1751013807480239400,10.6162392578125,-0.022310631349682808,0.010558634996414185,-0.06589033454656601
1751013807490183400,10.626183349609375,-0.016353672370314598,0.023792946711182594,-0.07068642228841782
1751013807500126500,10.63612646484375,-0.013673467561602592,0.03629675507545471,-0.053152699023485184
1751013807510070300,10.6460703125,-0.00936047825962305,0.039922382682561874,-0.027874508872628212
1751013807520013300,10.656013427734376,-0.008518386632204056,0.036037627607584,-0.0006226470577530563
1751013807529957400,10.665957275390625,-0.014356568455696106,0.023335415869951248,0.018016817048192024
1751013807539900400,10.675900390625,-0.02335219457745552,0.019051454961299896,0.021684521809220314
1751013807549844500,10.685844482421874,-0.021583322435617447,0.026195118203759193,0.019767312332987785
1751013807559787300,10.695787353515625,-0.012643090449273586,0.04309926554560661,0.005038434639573097
1751013807569731600,10.705731689453126,-0.008242483250796795,0.05884387716650963,-0.013410081155598164
1751013807579674400,10.71567431640625,-0.0005645901546813548,0.06542720645666122,-0.025536252185702324
1751013807589618400,10.725618408203125,0.00962706096470356,0.07009013742208481,-0.027354925870895386
1751013807599561500,10.7355615234375,0.011276090517640114,0.0758042186498642,-0.01534859649837017
1751013807609505500,10.745505615234375,0.025719745084643364,0.07836617529392242,0.00387356779538095
1751013807619448300,10.7554482421875,0.03719424083828926,0.07535174489021301,0.024697622284293175
1751013807629392400,10.765392333984375,0.026452379301190376,0.057486727833747864,0.03584854304790497
1751013807639335400,10.77533544921875,0.007961786352097988,0.06569672375917435,0.06543812900781631
1751013807649279200,10.785279296875,-0.03280694782733917,0.1197034940123558,0.18041957914829254
1751013807659222300,10.79522216796875,-0.0726877823472023,-0.08675753325223923,0.15426626801490784
1751013807669166300,10.805166259765626,-0.07193277776241302,-0.208950012922287,0.07438395172357559
1751013807679109400,10.815109375,-0.024457406252622604,-0.16511864960193634,0.008986837230622768
1751013807689053200,10.82505322265625,0.02202806994318962,-0.12362074106931686,-0.08262297511100769
1751013807698996500,10.83499658203125,0.027999676764011383,-0.06582827866077423,-0.17372705042362213
1751013807708940500,10.8449404296875,0.01667112112045288,-0.009316802956163883,-0.2315429449081421
