time,seconds_elapsed,z,y,x
1751013735231646500,0.116646484375,-1.0167999267578125,-0.1129913330078125,0.0243988037109375
1751013735241589500,0.126589599609375,-1.0210418701171875,-0.104583740234375,0.022613525390625
1751013735251532500,0.136532470703125,-1.0282440185546875,-0.0974884033203125,0.0224609375
1751013735261476600,0.1464765625,-1.0276336669921875,-0.097198486328125,0.02581787109375
1751013735271419600,0.156419677734375,-1.02520751953125,-0.0980377197265625,0.023651123046875
1751013735281363500,0.166363525390625,-1.0267181396484375,-0.0945587158203125,0.0216064453125
1751013735291306500,0.176306396484375,-1.0316009521484375,-0.088287353515625,0.018890380859375
1751013735301249500,0.18624951171875,-1.033233642578125,-0.0867156982421875,0.0164947509765625
1751013735311193300,0.196193359375,-1.031280517578125,-0.0908050537109375,0.0149993896484375
1751013735321136400,0.206136474609375,-1.0385894775390625,-0.09429931640625,0.0174407958984375
1751013735331080400,0.21608056640625,-1.0484771728515625,-0.0883331298828125,0.019439697265625
1751013735341023500,0.2260234375,-1.050140380859375,-0.083282470703125,0.014404296875
1751013735350967300,0.23596728515625,-1.048431396484375,-0.0833740234375,0.00531005859375
1751013735360910300,0.245910400390625,-1.0474700927734375,-0.0829010009765625,0.0014801025390625
1751013735370853400,0.255853271484375,-1.041229248046875,-0.0841064453125,0.00067138671875
1751013735380797400,0.26579736328125,-1.031005859375,-0.08917236328125,-0.005645751953125
1751013735390740500,0.275740478515625,-1.0221710205078125,-0.094512939453125,-0.007232666015625
1751013735400684300,0.285684326171875,-1.0182647705078125,-0.0932769775390625,-0.0004425048828125
1751013735410627300,0.29562744140625,-1.0164947509765625,-0.092803955078125,0.00811767578125
1751013735420570400,0.3055703125,-1.0074920654296875,-0.09820556640625,0.0100250244140625
1751013735430514400,0.315514404296875,-0.9990234375,-0.1046905517578125,0.0059661865234375
1751013735440457500,0.32545751953125,-0.9955291748046875,-0.11199951171875,0.004150390625
1751013735450401500,0.335401611328125,-0.9922027587890625,-0.1214141845703125,0.004150390625
1751013735460344600,0.345344482421875,-0.98779296875,-0.1342620849609375,0.0030670166015625
1751013735470288600,0.35528857421875,-0.9840240478515625,-0.1452484130859375,0.00421142578125
1751013735480231400,0.3652314453125,-0.9845428466796875,-0.1542205810546875,0.0009765625
1751013735490174500,0.375174560546875,-0.9889678955078125,-0.161773681640625,-0.003692626953125
1751013735500118500,0.385118408203125,-0.990447998046875,-0.1620635986328125,-0.005157470703125
1751013735510061600,0.3950615234375,-0.99176025390625,-0.15966796875,-0.0064239501953125
1751013735520005400,0.40500537109375,-0.9970245361328125,-0.153350830078125,-0.0050201416015625
1751013735529948400,0.414948486328125,-1.0026702880859375,-0.139923095703125,-0.0010528564453125
1751013735539892500,0.424892578125,-1.005523681640625,-0.131591796875,-0.00140380859375
1751013735549835500,0.43483544921875,-1.005889892578125,-0.1309661865234375,0.0004730224609375
1751013735559778600,0.444778564453125,-1.0056915283203125,-0.1342315673828125,0.003631591796875
1751013735569722400,0.454722412109375,-1.00341796875,-0.1361236572265625,0.006256103515625
1751013735579665400,0.46466552734375,-1.0067901611328125,-0.1349334716796875,0.00836181640625
1751013735589609500,0.474609375,-1.0061492919921875,-0.133758544921875,0.0070343017578125
1751013735599552500,0.484552490234375,-1.0059661865234375,-0.1311798095703125,0.0059661865234375
1751013735609495300,0.494495361328125,-1.008056640625,-0.126678466796875,0.01116943359375
1751013735619439400,0.504439453125,-1.010467529296875,-0.1194000244140625,0.0106048583984375
1751013735629382400,0.51438232421875,-1.0099639892578125,-0.117645263671875,0.0060882568359375
1751013735639326200,0.524326171875,-1.009429931640625,-0.1229248046875,-0.000244140625
1751013735649269200,0.534269287109375,-1.0069427490234375,-0.129302978515625,-0.0062103271484375
1751013735659213600,0.544213623046875,-1.0068817138671875,-0.1328125,-0.008331298828125
1751013735669156600,0.554156494140625,-1.0009613037109375,-0.13482666015625,-0.0043487548828125
1751013735679099600,0.564099609375,-0.992034912109375,-0.135345458984375,-0.003326416015625
1751013735689043500,0.57404345703125,-0.99462890625,-0.1352386474609375,-0.0003204345703125
1751013735698986500,0.583986572265625,-1.001373291015625,-0.1317138671875,0.0074005126953125
1751013735708930600,0.5939306640625,-1.007659912109375,-0.126007080078125,0.0073699951171875
1751013735718873600,0.60387353515625,-1.0057220458984375,-0.1273193359375,-0.0023193359375
1751013735728816400,0.61381640625,-1.0086822509765625,-0.131988525390625,-0.0107574462890625
1751013735738760400,0.623760498046875,-1.0165252685546875,-0.1347198486328125,-0.0183563232421875
1751013735748703500,0.633703369140625,-1.020294189453125,-0.136871337890625,-0.022857666015625
1751013735758647600,0.6436474609375,-1.0196533203125,-0.13787841796875,-0.0218505859375
1751013735768590300,0.65359033203125,-1.019561767578125,-0.13616943359375,-0.0126190185546875
1751013735778534400,0.663534423828125,-1.0156402587890625,-0.1331329345703125,-0.009918212890625
1751013735788477400,0.6734775390625,-1.0124664306640625,-0.1295928955078125,-0.00628662109375
1751013735798420500,0.68342041015625,-1.0138397216796875,-0.1278839111328125,-0.0018768310546875
1751013735808364300,0.6933642578125,-1.013671875,-0.1305694580078125,0.00048828125
1751013735818307300,0.703307373046875,-1.011322021484375,-0.1327056884765625,0.0016937255859375
1751013735828251400,0.71325146484375,-1.008697509765625,-0.136383056640625,0.001922607421875
1751013735838194400,0.7231943359375,-1.003082275390625,-0.140716552734375,0.001800537109375
1751013735848138500,0.733138427734375,-1.0014801025390625,-0.142791748046875,0.004119873046875
1751013735858081300,0.743081298828125,-0.998046875,-0.1424102783203125,0.003814697265625
1751013735868024300,0.7530244140625,-0.9919281005859375,-0.1454010009765625,0.0046234130859375
1751013735877968600,0.76296875,-0.9881439208984375,-0.1493072509765625,0.0054473876953125
1751013735887911700,0.77291162109375,-0.9895782470703125,-0.152435302734375,0.008758544921875
1751013735897855500,0.78285546875,-0.9845733642578125,-0.15704345703125,0.010528564453125
1751013735907798500,0.792798583984375,-0.97900390625,-0.1622314453125,0.0152587890625
1751013735917741600,0.802741455078125,-0.9756011962890625,-0.1599578857421875,0.020477294921875
1751013735927685400,0.812685302734375,-0.9773712158203125,-0.154632568359375,0.0182647705078125
1751013735937628400,0.82262841796875,-0.9835968017578125,-0.1504669189453125,0.017486572265625
1751013735947572500,0.832572509765625,-0.98773193359375,-0.1515655517578125,0.0113525390625
1751013735957515500,0.842515625,-0.9902496337890625,-0.153045654296875,0.002410888671875
1751013735967459300,0.852459228515625,-1.0035400390625,-0.14837646484375,-0.0035247802734375
1751013735977402400,0.86240234375,-1.0151519775390625,-0.145721435546875,-0.0083770751953125
1751013735987345400,0.872345458984375,-1.01983642578125,-0.1519775390625,-0.00885009765625
1751013735997289500,0.88228955078125,-1.0243988037109375,-0.154754638671875,-0.0122222900390625
1751013736007232500,0.892232421875,-1.0283355712890625,-0.1518096923828125,-0.012847900390625
1751013736017176300,0.90217626953125,-1.0233306884765625,-0.1448974609375,-0.010040283203125
1751013736027119400,0.912119384765625,-1.01605224609375,-0.1394500732421875,-0.005279541015625
1751013736037062400,0.9220625,-1.0160369873046875,-0.138031005859375,-0.0036773681640625
1751013736047006500,0.93200634765625,-1.014739990234375,-0.13421630859375,-0.000946044921875
1751013736056949500,0.941949462890625,-1.0068206787109375,-0.132598876953125,0.00701904296875
1751013736066893300,0.951893310546875,-1.003326416015625,-0.1362457275390625,0.0125579833984375
1751013736076836400,0.96183642578125,-1.0030670166015625,-0.1394805908203125,0.0182647705078125
1751013736086780700,0.97178076171875,-0.998748779296875,-0.143035888671875,0.020172119140625
1751013736096723500,0.981723388671875,-0.997772216796875,-0.1456298828125,0.021240234375
1751013736106666500,0.99166650390625,-0.99993896484375,-0.144775390625,0.0241241455078125
1751013736116610600,1.001610595703125,-0.9954833984375,-0.1449127197265625,0.0245208740234375
1751013736126553600,1.0115537109375,-0.99078369140625,-0.1485595703125,0.0216827392578125
1751013736136497400,1.021497314453125,-0.990997314453125,-0.14935302734375,0.019287109375
1751013736146440400,1.0314404296875,-0.9900665283203125,-0.14862060546875,0.0196533203125
1751013736156383500,1.041383544921875,-0.990631103515625,-0.147491455078125,0.0173797607421875
1751013736166327600,1.05132763671875,-0.99298095703125,-0.1469268798828125,0.0132598876953125
1751013736176270600,1.0612705078125,-0.9971923828125,-0.1465301513671875,0.012603759765625
1751013736186214400,1.07121435546875,-0.9985504150390625,-0.148773193359375,0.0103759765625
1751013736196157400,1.081157470703125,-0.9996490478515625,-0.1527252197265625,0.0042572021484375
1751013736206101500,1.0911015625,-1.0041351318359375,-0.1550140380859375,-0.0026092529296875
1751013736216044500,1.10104443359375,-1.0121917724609375,-0.150634765625,-0.0062408447265625
1751013736225987300,1.1109873046875,-1.0159149169921875,-0.1442718505859375,-0.0060882568359375
1751013736235931400,1.120931396484375,-1.0175323486328125,-0.1427154541015625,-0.0057830810546875
1751013736245874400,1.13087451171875,-1.0114593505859375,-0.1413726806640625,-0.007598876953125
1751013736255818200,1.140818359375,-1.00799560546875,-0.1333770751953125,-0.003448486328125
1751013736265761300,1.15076123046875,-1.006378173828125,-0.127685546875,-0.0008544921875
1751013736275704300,1.160704345703125,-1.0005950927734375,-0.130523681640625,-0.001861572265625
1751013736285648400,1.1706484375,-0.998931884765625,-0.1371307373046875,-0.0026092529296875
1751013736295591400,1.18059130859375,-0.999420166015625,-0.1414947509765625,-0.00225830078125
1751013736305535500,1.190535400390625,-0.9951171875,-0.144683837890625,-0.00189208984375
1751013736315478500,1.200478515625,-0.990142822265625,-0.1494293212890625,0.000213623046875
1751013736325422600,1.210422607421875,-0.9915008544921875,-0.1551971435546875,0.002899169921875
1751013736335365600,1.22036572265625,-0.9941864013671875,-0.155975341796875,0.0064544677734375
1751013736345308400,1.230308349609375,-0.9929962158203125,-0.153961181640625,0.0066680908203125
1751013736355252500,1.24025244140625,-0.9919891357421875,-0.1503143310546875,0.003448486328125
1751013736365195500,1.250195556640625,-0.996917724609375,-0.1482391357421875,0.0025634765625
1751013736375139600,1.2601396484375,-1.0033111572265625,-0.142303466796875,0.0051422119140625
1751013736385082400,1.270082275390625,-1.0013427734375,-0.1378631591796875,0.0027923583984375
1751013736395026400,1.2800263671875,-1.0010528564453125,-0.13720703125,-0.00225830078125
1751013736404969500,1.289969482421875,-1.0072021484375,-0.1368865966796875,-0.0016021728515625
1751013736414912500,1.29991259765625,-1.0084075927734375,-0.1345367431640625,-0.0063323974609375
1751013736424856300,1.309856201171875,-1.0110321044921875,-0.1349639892578125,-0.01507568359375
1751013736434799400,1.31979931640625,-1.0142974853515625,-0.1366119384765625,-0.0173797607421875
1751013736444743400,1.329743408203125,-1.014984130859375,-0.1399688720703125,-0.0169830322265625
1751013736454686500,1.3396865234375,-1.012664794921875,-0.143341064453125,-0.017120361328125
1751013736464629500,1.34962939453125,-1.00860595703125,-0.1473236083984375,-0.0205841064453125
1751013736474573300,1.3595732421875,-1.0041046142578125,-0.1485137939453125,-0.0146331787109375
1751013736484516400,1.369516357421875,-1.00213623046875,-0.148590087890625,-0.0079498291015625
1751013736494460400,1.37946044921875,-0.9999542236328125,-0.1484222412109375,-0.00750732421875
1751013736504403500,1.389403564453125,-0.9956817626953125,-0.14862060546875,-0.0065460205078125
1751013736514347500,1.399347412109375,-0.9954071044921875,-0.149932861328125,-0.0093841552734375
1751013736524290600,1.40929052734375,-0.997833251953125,-0.148895263671875,-0.0077667236328125
1751013736534233600,1.419233642578125,-0.9976348876953125,-0.1495513916015625,-0.0098876953125
1751013736544177400,1.429177490234375,-1.0007781982421875,-0.152008056640625,-0.010589599609375
1751013736554120400,1.439120361328125,-1.0015411376953125,-0.154083251953125,-0.00970458984375
1751013736564064500,1.449064453125,-1.0034637451171875,-0.154937744140625,-0.0100860595703125
1751013736574007600,1.459007568359375,-1.0022430419921875,-0.1547698974609375,-0.00872802734375
1751013736583951400,1.468951416015625,-1.000335693359375,-0.1537933349609375,-0.00787353515625
1751013736593894400,1.478894287109375,-0.9980621337890625,-0.1534423828125,-0.0057373046875
1751013736603837400,1.48883740234375,-0.9990692138671875,-0.1543121337890625,-0.002685546875
1751013736613781500,1.498781494140625,-0.99761962890625,-0.1564483642578125,-0.004302978515625
1751013736623724500,1.508724609375,-0.9953460693359375,-0.159698486328125,-0.0073394775390625
1751013736633672400,1.51867236328125,-0.9970855712890625,-0.1569671630859375,-0.0060577392578125
1751013736643615500,1.528615478515625,-1.000244140625,-0.153564453125,-0.0030670166015625
1751013736653558500,1.53855859375,-0.996826171875,-0.1507720947265625,-0.0005950927734375
1751013736663502600,1.548502685546875,-0.9948577880859375,-0.14813232421875,-0.00103759765625
1751013736673445400,1.5584453125,-0.9962158203125,-0.1455535888671875,-0.00152587890625
1751013736683389700,1.5683896484375,-0.9999542236328125,-0.14337158203125,-0.0010223388671875
1751013736693332700,1.578332763671875,-1.00299072265625,-0.1447906494140625,-0.00067138671875
1751013736703275800,1.58827587890625,-1.0066375732421875,-0.1490936279296875,-0.000457763671875
1751013736713219600,1.598219482421875,-1.0088958740234375,-0.151397705078125,-0.0015106201171875
1751013736723162600,1.60816259765625,-1.0124969482421875,-0.151153564453125,-0.0045013427734375
1751013736733106700,1.618106689453125,-1.013763427734375,-0.14935302734375,-0.0088043212890625
1751013736743049700,1.6280498046875,-1.0088653564453125,-0.1469879150390625,-0.009979248046875
1751013736752993500,1.63799365234375,-1.008544921875,-0.1436767578125,-0.008026123046875
1751013736762936600,1.6479365234375,-1.007354736328125,-0.1411285400390625,-0.006500244140625
1751013736772879600,1.657879638671875,-1.004974365234375,-0.1410064697265625,-0.0091705322265625
1751013736782823700,1.66782373046875,-1.0069122314453125,-0.144989013671875,-0.0111541748046875
1751013736792766500,1.677766357421875,-1.008453369140625,-0.151519775390625,-0.0092620849609375
1751013736802710500,1.68771044921875,-1.0083465576171875,-0.1540985107421875,-0.011077880859375
1751013736812653600,1.697653564453125,-1.0060577392578125,-0.155517578125,-0.01031494140625
1751013736822597400,1.707597412109375,-1.0042877197265625,-0.153900146484375,-0.0071258544921875
1751013736832540400,1.71754052734375,-1.0013427734375,-0.1515960693359375,-0.003570556640625
1751013736842483500,1.7274833984375,-1.0014801025390625,-0.149017333984375,-0.00238037109375
1751013736852427500,1.737427490234375,-1.0011444091796875,-0.145050048828125,0.001739501953125
1751013736862370600,1.74737060546875,-0.9952850341796875,-0.145751953125,0.0015716552734375
1751013736872314600,1.757314697265625,-0.9922637939453125,-0.14666748046875,0.0013885498046875
1751013736882257400,1.76725732421875,-0.99786376953125,-0.1461639404296875,0.001251220703125
1751013736892200400,1.777200439453125,-1.0051116943359375,-0.1453399658203125,-0.00286865234375
1751013736902144800,1.787144775390625,-1.0084381103515625,-0.145477294921875,-0.007415771484375
1751013736912087600,1.797087646484375,-1.0164642333984375,-0.1467742919921875,-0.0118408203125
1751013736922031600,1.807031494140625,-1.0167388916015625,-0.14678955078125,-0.010772705078125
1751013736931974700,1.816974609375,-1.0094146728515625,-0.1451568603515625,-0.00823974609375
1751013736941918700,1.826918701171875,-1.003997802734375,-0.143310546875,-0.0073394775390625
1751013736951861500,1.836861572265625,-1.0048828125,-0.140869140625,-0.003021240234375
1751013736961804500,1.846804443359375,-1.0038604736328125,-0.1379852294921875,-0.0019073486328125
1751013736971748600,1.85674853515625,-0.9968109130859375,-0.1388397216796875,-0.00091552734375
1751013736981691600,1.866691650390625,-0.990386962890625,-0.141632080078125,0.00030517578125
1751013736991635500,1.876635498046875,-0.9902496337890625,-0.1421966552734375,0.0040740966796875
1751013737001578500,1.88657861328125,-0.9918670654296875,-0.1418609619140625,0.00732421875
1751013737011521500,1.896521484375,-0.992462158203125,-0.1437530517578125,0.003814697265625
1751013737021465600,1.906465576171875,-0.9914093017578125,-0.1484222412109375,-0.0000457763671875
1751013737031408600,1.91640869140625,-0.995361328125,-0.1493072509765625,0.0009765625
1751013737041352400,1.9263525390625,-0.9970245361328125,-0.147125244140625,-0.00006103515625
1751013737051295500,1.93629541015625,-0.99652099609375,-0.1442718505859375,0.00054931640625
1751013737061239600,1.946239501953125,-0.9992828369140625,-0.1427154541015625,-0.002532958984375
1751013737071182600,1.9561826171875,-1.0035858154296875,-0.14178466796875,-0.0029144287109375
1751013737081125400,1.96612548828125,-1.0026092529296875,-0.139892578125,-0.0018463134765625
1751013737091069400,1.9760693359375,-1.0052337646484375,-0.1383819580078125,-0.0028076171875
1751013737101012500,1.986012451171875,-1.0087432861328125,-0.1371002197265625,-0.0023956298828125
1751013737110956500,1.99595654296875,-1.0101470947265625,-0.1347808837890625,-0.00537109375
1751013737120899600,2.005899658203125,-1.0164642333984375,-0.13250732421875,-0.0073089599609375
1751013737130842600,2.015842529296875,-1.01800537109375,-0.13018798828125,-0.011566162109375
1751013737140786700,2.02578662109375,-1.0175323486328125,-0.12896728515625,-0.013427734375
1751013737150729700,2.035729736328125,-1.014312744140625,-0.1299285888671875,-0.016815185546875
1751013737160673500,2.045673583984375,-1.0120086669921875,-0.1343994140625,-0.015838623046875
1751013737170616600,2.055616455078125,-1.0094451904296875,-0.1378936767578125,-0.01202392578125
1751013737180560600,2.065560546875,-1.00592041015625,-0.1414947509765625,-0.011688232421875
1751013737190503700,2.075503662109375,-1.0077056884765625,-0.141754150390625,-0.0107421875
1751013737200446700,2.08544677734375,-1.010223388671875,-0.144287109375,-0.013671875
1751013737210390500,2.095390625,-1.003509521484375,-0.148040771484375,-0.015960693359375
1751013737220333600,2.10533349609375,-1.0020751953125,-0.14959716796875,-0.0181427001953125
1751013737230277600,2.115277587890625,-1.007965087890625,-0.1467437744140625,-0.0162353515625
1751013737240220700,2.125220703125,-1.0067596435546875,-0.145721435546875,-0.020904541015625
1751013737250163500,2.13516357421875,-1.0058135986328125,-0.143890380859375,-0.0225830078125
1751013737260107500,2.145107421875,-1.011199951171875,-0.1405029296875,-0.0186920166015625
1751013737270050600,2.155050537109375,-1.0122222900390625,-0.1355438232421875,-0.0137786865234375
1751013737279994400,2.164994384765625,-1.00531005859375,-0.1333770751953125,-0.0124053955078125
1751013737289937400,2.1749375,-0.999664306640625,-0.1366424560546875,-0.012481689453125
1751013737299881700,2.1848818359375,-0.99853515625,-0.14019775390625,-0.0117645263671875
1751013737309824500,2.194824462890625,-0.9922943115234375,-0.144317626953125,-0.0095977783203125
1751013737319767600,2.204767578125,-0.9842681884765625,-0.149627685546875,-0.0064239501953125
1751013737329711600,2.214711669921875,-0.9813995361328125,-0.156097412109375,-0.004425048828125
1751013737339654700,2.224654541015625,-0.9800262451171875,-0.1604156494140625,-0.004486083984375
1751013737349598700,2.2345986328125,-0.97979736328125,-0.1620941162109375,-0.0072174072265625
1751013737359541800,2.244541748046875,-0.9835205078125,-0.15924072265625,-0.0072784423828125
1751013737369485600,2.254485595703125,-0.9928131103515625,-0.153778076171875,-0.0063323974609375
1751013737379428600,2.2644287109375,-0.996337890625,-0.1466522216796875,-0.0089874267578125
1751013737389371600,2.27437158203125,-1.0024566650390625,-0.141876220703125,-0.0105438232421875
1751013737399315700,2.284315673828125,-1.0128173828125,-0.1370697021484375,-0.008697509765625
1751013737409258500,2.294258544921875,-1.0181427001953125,-0.1304168701171875,-0.0119781494140625
1751013737419202600,2.30420263671875,-1.0212554931640625,-0.1283721923828125,-0.0170745849609375
1751013737429145600,2.3141455078125,-1.02459716796875,-0.1293792724609375,-0.017059326171875
1751013737439088600,2.324088623046875,-1.02496337890625,-0.1302642822265625,-0.0153350830078125
1751013737449032400,2.334032470703125,-1.0263214111328125,-0.1319427490234375,-0.010284423828125
1751013737458975500,2.3439755859375,-1.0225372314453125,-0.134796142578125,-0.00543212890625
1751013737468919600,2.35391943359375,-1.0173797607421875,-0.135772705078125,0.0006103515625
1751013737478862600,2.363862548828125,-1.0121917724609375,-0.1365814208984375,0.0033721923828125
1751013737488805600,2.3738056640625,-1.009307861328125,-0.1354827880859375,0.0041961669921875
1751013737498749400,2.38374951171875,-1.0113525390625,-0.1334991455078125,0.003631591796875
1751013737508692500,2.3936923828125,-1.0101318359375,-0.1318359375,0.000030517578125
1751013737518636500,2.403636474609375,-1.0107421875,-0.13031005859375,-0.0044097900390625
1751013737528579600,2.41357958984375,-1.013031005859375,-0.12872314453125,-0.0063323974609375
1751013737538523600,2.423523681640625,-1.0117340087890625,-0.128143310546875,-0.007110595703125
1751013737548466700,2.433466796875,-1.0067901611328125,-0.130645751953125,-0.0073394775390625
1751013737558409700,2.44340966796875,-1.005889892578125,-0.1337738037109375,-0.0062103271484375
1751013737568353500,2.453353515625,-1.0077667236328125,-0.1357574462890625,-0.0056915283203125
1751013737578296600,2.463296630859375,-1.0082244873046875,-0.1389007568359375,-0.0091400146484375
1751013737588240600,2.47324072265625,-1.005584716796875,-0.141387939453125,-0.0111236572265625
1751013737598183700,2.48318359375,-1.002471923828125,-0.1415863037109375,-0.01031494140625
1751013737608127500,2.49312744140625,-0.9996490478515625,-0.1419219970703125,-0.0081024169921875
1751013737618070500,2.503070556640625,-0.9967041015625,-0.1424713134765625,-0.006927490234375
1751013737628013600,2.513013671875,-0.99371337890625,-0.1402587890625,-0.0077056884765625
1751013737637953300,2.522953369140625,-0.9968109130859375,-0.1382598876953125,-0.00970458984375
1751013737647896300,2.532896240234375,-0.9967498779296875,-0.1360015869140625,-0.00775146484375
1751013737657840000,2.542840087890625,-0.9952392578125,-0.1368560791015625,-0.0077362060546875
1751013737667783200,2.552783203125,-0.99920654296875,-0.135589599609375,-0.0059356689453125
1751013737677726200,2.562726318359375,-1.00543212890625,-0.1350555419921875,-0.0048065185546875
1751013737687670500,2.57267041015625,-1.0086669921875,-0.135223388671875,-0.00811767578125
1751013737697613600,2.582613525390625,-1.0120391845703125,-0.131927490234375,-0.00762939453125
1751013737707557400,2.592557373046875,-1.014434814453125,-0.1307525634765625,-0.009002685546875
1751013737717500400,2.60250048828125,-1.013519287109375,-0.132080078125,-0.009674072265625
1751013737727444500,2.612444580078125,-1.0093536376953125,-0.1334228515625,-0.008270263671875
1751013737737387500,2.622387451171875,-1.0069122314453125,-0.13519287109375,-0.00689697265625
1751013737747330300,2.632330322265625,-1.0048370361328125,-0.1364898681640625,-0.0040283203125
1751013737757274400,2.6422744140625,-1.00128173828125,-0.1373443603515625,-0.001861572265625
1751013737767217400,2.652217529296875,-1.000701904296875,-0.139862060546875,-0.0033721923828125
1751013737777161500,2.662161376953125,-1.0039520263671875,-0.139556884765625,-0.0030364990234375
1751013737787104300,2.672104248046875,-1.0037384033203125,-0.138092041015625,-0.0023345947265625
1751013737797048300,2.68204833984375,-0.996734619140625,-0.14007568359375,-0.0072479248046875
1751013737806991400,2.691991455078125,-0.9951629638671875,-0.14385986328125,-0.01171875
1751013737816934400,2.701934326171875,-0.9978485107421875,-0.1453094482421875,-0.008331298828125
1751013737826878200,2.711878173828125,-0.994384765625,-0.1477508544921875,-0.0041656494140625
1751013737836821200,2.7218212890625,-0.9961395263671875,-0.1522674560546875,-0.0026702880859375
1751013737846765300,2.731765380859375,-1.001220703125,-0.153961181640625,-0.000579833984375
1751013737856708400,2.741708251953125,-1.0053863525390625,-0.151824951171875,0.003631591796875
1751013737866651400,2.7516513671875,-1.00341796875,-0.1484375,0.0025787353515625
1751013737876595200,2.76159521484375,-1.0054931640625,-0.1442108154296875,-0.0012359619140625
1751013737886538200,2.771538330078125,-1.0095672607421875,-0.13958740234375,-0.00335693359375
1751013737896482600,2.781482666015625,-1.0121917724609375,-0.1358642578125,-0.0045928955078125
1751013737906425600,2.791425537109375,-1.014312744140625,-0.134765625,-0.0078277587890625
1751013737916369400,2.801369384765625,-1.01837158203125,-0.1359100341796875,-0.0104827880859375
1751013737926312400,2.8113125,-1.0199432373046875,-0.135528564453125,-0.0107574462890625
1751013737936255500,2.82125537109375,-1.0155792236328125,-0.1378631591796875,-0.0099334716796875
1751013737946199300,2.83119921875,-1.012603759765625,-0.13824462890625,-0.0059814453125
1751013737956142300,2.841142333984375,-1.0118865966796875,-0.13616943359375,-0.0022125244140625
1751013737966086400,2.85108642578125,-1.0125274658203125,-0.1341094970703125,-0.0029754638671875
1751013737976029400,2.861029541015625,-1.0170745849609375,-0.1330718994140625,-0.002899169921875
1751013737985972500,2.870972412109375,-1.0211944580078125,-0.1327056884765625,-0.0028076171875
1751013737995916300,2.880916259765625,-1.023529052734375,-0.132415771484375,-0.0020599365234375
1751013738005859300,2.890859375,-1.018096923828125,-0.1334991455078125,-0.00408935546875
1751013738015803400,2.900803466796875,-1.010345458984375,-0.1348724365234375,-0.00799560546875
1751013738025746400,2.910746337890625,-1.008026123046875,-0.134490966796875,-0.0078125
1751013738035690200,2.920690185546875,-1.0068206787109375,-0.1360626220703125,-0.0066375732421875
1751013738045633300,2.93063330078125,-1.0019073486328125,-0.141326904296875,-0.0091705322265625
1751013738055576300,2.940576416015625,-0.9976348876953125,-0.1450042724609375,-0.0128936767578125
1751013738065520400,2.950520263671875,-0.993896484375,-0.147735595703125,-0.0115814208984375
1751013738075463200,2.960463134765625,-0.98980712890625,-0.1507720947265625,-0.0106201171875
1751013738085407200,2.9704072265625,-0.9871368408203125,-0.1541290283203125,-0.014495849609375
1751013738095350300,2.980350341796875,-0.987548828125,-0.156768798828125,-0.0167236328125
1751013738105293300,2.990293212890625,-0.9890594482421875,-0.1585540771484375,-0.01715087890625
1751013738115237400,3.0002373046875,-0.992584228515625,-0.1587371826171875,-0.017852783203125
1751013738125180400,3.010180419921875,-0.99609375,-0.159088134765625,-0.0162200927734375
1751013738135124500,3.02012451171875,-0.9976806640625,-0.1562042236328125,-0.0139007568359375
1751013738145067500,3.030067626953125,-0.9991302490234375,-0.1490631103515625,-0.011016845703125
1751013738155011300,3.04001123046875,-1.0059356689453125,-0.14349365234375,-0.002716064453125
1751013738164954400,3.049954345703125,-1.0109100341796875,-0.1378021240234375,0.006103515625
1751013738174897400,3.0598974609375,-1.0138092041015625,-0.1326751708984375,0.0093536376953125
1751013738184841500,3.069841552734375,-1.015289306640625,-0.13299560546875,0.0087738037109375
1751013738194784500,3.079784423828125,-1.014251708984375,-0.1384124755859375,0.00494384765625
1751013738204728300,3.089728271484375,-1.0130462646484375,-0.141448974609375,0.00335693359375
1751013738214671400,3.09967138671875,-1.0069732666015625,-0.144195556640625,0.0050506591796875
1751013738224614400,3.109614501953125,-1.000518798828125,-0.14666748046875,0.0055389404296875
1751013738234558500,3.119558349609375,-0.997589111328125,-0.1459197998046875,0.0060272216796875
1751013738244501200,3.129501220703125,-0.9977874755859375,-0.14404296875,0.0069427490234375
1751013738254445300,3.1394453125,-0.99835205078125,-0.1446380615234375,0.006805419921875
1751013738264388400,3.149388427734375,-0.997955322265625,-0.1474761962890625,0.00775146484375
1751013738274332200,3.159332275390625,-1.0012054443359375,-0.14947509765625,0.0049591064453125
1751013738284275200,3.169275146484375,-0.998931884765625,-0.147430419921875,0.0062255859375
1751013738294218200,3.17921826171875,-0.99658203125,-0.146820068359375,0.00958251953125
1751013738304162300,3.189162353515625,-0.9969940185546875,-0.146636962890625,0.0106048583984375
1751013738314105300,3.199105224609375,-0.99749755859375,-0.14556884765625,0.0085296630859375
1751013738324049400,3.20904931640625,-0.9952239990234375,-0.1458892822265625,0.0057525634765625
1751013738333992400,3.218992431640625,-0.9926605224609375,-0.145843505859375,0.003936767578125
1751013738343935200,3.228935302734375,-0.9909210205078125,-0.149017333984375,0.004119873046875
1751013738353879600,3.238879638671875,-0.9940338134765625,-0.149993896484375,0.00146484375
1751013738363822300,3.248822265625,-0.9947509765625,-0.15069580078125,-0.0029144287109375
1751013738373766400,3.258766357421875,-0.993255615234375,-0.1552734375,-0.00341796875
1751013738383709400,3.26870947265625,-0.9950714111328125,-0.1587371826171875,-0.0014495849609375
1751013738393653500,3.278653564453125,-0.9969940185546875,-0.160186767578125,-0.0024566650390625
1751013738403596300,3.28859619140625,-1.000152587890625,-0.1581268310546875,-0.0042724609375
1751013738413539300,3.298539306640625,-1.0059661865234375,-0.1551361083984375,-0.005218505859375
1751013738423483400,3.3084833984375,-1.0077056884765625,-0.1520538330078125,-0.006256103515625
1751013738433426400,3.318426513671875,-1.00640869140625,-0.1490325927734375,-0.006439208984375
1751013738443370200,3.328370361328125,-1.0048065185546875,-0.1467742919921875,-0.0026702880859375
1751013738453313300,3.338313232421875,-1.00640869140625,-0.1443328857421875,0.00152587890625
1751013738463256300,3.34825634765625,-1.0086669921875,-0.144622802734375,0.003082275390625
1751013738473200400,3.358200439453125,-1.0044708251953125,-0.1437225341796875,0.0049285888671875
1751013738483143400,3.368143310546875,-1.003631591796875,-0.1440887451171875,0.003814697265625
1751013738493087200,3.378087158203125,-1.0078582763671875,-0.1453399658203125,0.006683349609375
1751013738503030300,3.3880302734375,-1.0088653564453125,-0.1462554931640625,0.0068359375
1751013738512974300,3.397974365234375,-1.011474609375,-0.146759033203125,0.0034027099609375
1751013738522917400,3.40791748046875,-1.013916015625,-0.1451416015625,0.0008087158203125
1751013738532860200,3.417860107421875,-1.0124053955078125,-0.1420440673828125,0.00054931640625
1751013738542804500,3.427804443359375,-1.00579833984375,-0.1397552490234375,0.001800537109375
1751013738552747500,3.43774755859375,-1.0029296875,-0.1403656005859375,0.0036163330078125
1751013738562691300,3.44769140625,-1.002655029296875,-0.142608642578125,0.0067901611328125
1751013738572634400,3.45763427734375,-1.0048065185546875,-0.1448822021484375,0.0068206787109375
1751013738582577400,3.467577392578125,-1.008697509765625,-0.1485595703125,0.006256103515625
1751013738592521500,3.477521484375,-1.0145721435546875,-0.152099609375,0.0037689208984375
1751013738602464500,3.487464599609375,-1.018218994140625,-0.1529693603515625,0
1751013738612408300,3.497408203125,-1.020355224609375,-0.1511077880859375,-0.001953125
1751013738622351400,3.507351318359375,-1.0196685791015625,-0.149169921875,-0.0019378662109375
1751013738632296000,3.5172958984375,-1.0208892822265625,-0.14569091796875,0.005401611328125
1751013738642239000,3.527239013671875,-1.0198516845703125,-0.143218994140625,0.007965087890625
1751013738652181800,3.537181640625,-1.017822265625,-0.1411285400390625,0.0092926025390625
1751013738662125800,3.547125732421875,-1.0147247314453125,-0.1414337158203125,0.0101165771484375
1751013738672068900,3.55706884765625,-1.0095977783203125,-0.1406097412109375,0.0095977783203125
1751013738682012700,3.5670126953125,-1.0106658935546875,-0.1380462646484375,0.0062103271484375
1751013738691955700,3.576955810546875,-1.01123046875,-0.136199951171875,0.0042266845703125
1751013738701898800,3.586898681640625,-1.0048065185546875,-0.13690185546875,0.0066680908203125
1751013738711842800,3.5968427734375,-0.9994049072265625,-0.1391448974609375,0.004241943359375
1751013738721785900,3.606785888671875,-0.9979400634765625,-0.1409454345703125,-0.0052032470703125
1751013738731729700,3.616729736328125,-0.9916839599609375,-0.1424560546875,-0.0020599365234375
1751013738741672700,3.626672607421875,-0.987213134765625,-0.1455841064453125,0.006805419921875
1751013738751616800,3.63661669921875,-0.9910430908203125,-0.1455078125,0.0106353759765625
1751013738761559800,3.646559814453125,-0.991790771484375,-0.1434478759765625,0.0129852294921875
1751013738771502800,3.6565029296875,-0.9928131103515625,-0.1439361572265625,0.0093536376953125
1751013738781447000,3.666447021484375,-0.9969635009765625,-0.144561767578125,0.0117034912109375
1751013738791390000,3.676389892578125,-1.00140380859375,-0.13983154296875,0.01580810546875
1751013738801334000,3.686333984375,-1.0030517578125,-0.1360321044921875,0.014923095703125
1751013738811276800,3.69627685546875,-1.0077362060546875,-0.1320343017578125,0.018951416015625
1751013738821219800,3.7062197265625,-1.007843017578125,-0.134124755859375,0.012542724609375
1751013738831164000,3.716163818359375,-1.0071868896484375,-0.1450042724609375,0.0084228515625
1751013738841107000,3.72610693359375,-1.0075836181640625,-0.15496826171875,0.0074462890625
1751013738851050800,3.73605078125,-1.0075836181640625,-0.16021728515625,-0.001373291015625
1751013738860993800,3.745993896484375,-1.01068115234375,-0.1595306396484375,-0.011016845703125
1751013738870937900,3.755937744140625,-1.0140228271484375,-0.16290283203125,-0.0186614990234375
1751013738880881000,3.765880859375,-1.0140228271484375,-0.16619873046875,-0.021270751953125
1751013738890824000,3.775823974609375,-1.0128173828125,-0.1676025390625,-0.01422119140625
1751013738900767700,3.785767822265625,-1.0018157958984375,-0.164886474609375,-0.0098114013671875
1751013738910710800,3.795710693359375,-0.991729736328125,-0.16162109375,-0.0133209228515625
1751013738920654800,3.80565478515625,-0.9876251220703125,-0.159027099609375,-0.01422119140625
1751013738930598000,3.815597900390625,-0.983306884765625,-0.158294677734375,-0.0118865966796875
1751013738940540700,3.825540771484375,-0.9818878173828125,-0.1584930419921875,-0.00616455078125
1751013738950484700,3.835484619140625,-0.9865570068359375,-0.15960693359375,-0.001434326171875
1751013738960427800,3.845427734375,-0.9953765869140625,-0.156280517578125,0.0049591064453125
1751013738970371800,3.855371826171875,-0.99359130859375,-0.1555938720703125,-0.0001068115234375
1751013738980314600,3.865314697265625,-0.989227294921875,-0.1548614501953125,-0.010040283203125
1751013738990257700,3.875257568359375,-0.9901885986328125,-0.1547698974609375,-0.0151824951171875
1751013739000202000,3.885201904296875,-0.9933624267578125,-0.1555023193359375,-0.0153350830078125
1751013739010144800,3.895144775390625,-0.997528076171875,-0.1562957763671875,-0.01513671875
1751013739020088800,3.9050888671875,-0.9954681396484375,-0.162384033203125,-0.0167083740234375
1751013739030032000,3.915031982421875,-0.99456787109375,-0.167327880859375,-0.018402099609375
1751013739039976000,3.924975830078125,-1.00006103515625,-0.1634979248046875,-0.015045166015625
1751013739049919000,3.9349189453125,-1.000152587890625,-0.1557464599609375,-0.0090484619140625
1751013739059862000,3.944862060546875,-0.9968719482421875,-0.152496337890625,-0.0127105712890625
1751013739069805800,3.954805908203125,-1.006500244140625,-0.15130615234375,-0.0101470947265625
1751013739079748900,3.964748779296875,-1.0206451416015625,-0.1484527587890625,-0.009246826171875
1751013739089693000,3.97469287109375,-1.026275634765625,-0.1488494873046875,-0.0151214599609375
1751013739099635700,3.9846357421875,-1.025421142578125,-0.15234375,-0.0187530517578125
1751013739109578800,3.994578857421875,-1.0208587646484375,-0.1525726318359375,-0.0200042724609375
1751013739119522800,4.004522705078125,-1.0201263427734375,-0.15069580078125,-0.0170135498046875
1751013739129465900,4.0144658203125,-1.0147857666015625,-0.1522216796875,-0.0115966796875
1751013739139409700,4.02440966796875,-1.00616455078125,-0.1561737060546875,-0.0123443603515625
1751013739149352700,4.034352783203125,-1.002593994140625,-0.1529388427734375,-0.0019683837890625
1751013739159295700,4.044295654296875,-0.9994659423828125,-0.1525726318359375,0.0040283203125
1751013739169239800,4.05423974609375,-0.9963226318359375,-0.1555328369140625,0.0084991455078125
1751013739179182800,4.064182861328125,-0.997100830078125,-0.1584930419921875,0.007965087890625
1751013739189126700,4.074126708984375,-0.994415283203125,-0.1588287353515625,0.00262451171875
1751013739199069700,4.084069580078125,-0.991973876953125,-0.158721923828125,-0.003204345703125
1751013739209014000,4.094013916015625,-0.9937896728515625,-0.1598052978515625,-0.0070037841796875
1751013739218956800,4.103956787109375,-1.0001678466796875,-0.1583709716796875,-0.00537109375
1751013739228899800,4.11389990234375,-1.0045928955078125,-0.1561279296875,-0.00390625
1751013739238844000,4.123843994140625,-1.0012359619140625,-0.153778076171875,-0.0036163330078125
1751013739248787000,4.133786865234375,-0.9973297119140625,-0.15435791015625,-0.00482177734375
1751013739258731000,4.14373095703125,-0.991973876953125,-0.15802001953125,-0.00323486328125
1751013739268673800,4.153673828125,-0.98602294921875,-0.156982421875,0.0005035400390625
1751013739278616800,4.163616943359375,-0.9827728271484375,-0.157012939453125,0.003570556640625
1751013739288561000,4.173560791015625,-0.986480712890625,-0.1580352783203125,0.0079193115234375
1751013739298504000,4.18350390625,-0.99237060546875,-0.1593780517578125,0.0081939697265625
1751013739308447700,4.19344775390625,-0.9948272705078125,-0.1586456298828125,0.0020599365234375
1751013739318390800,4.203390869140625,-1.000396728515625,-0.1532440185546875,-0.0059356689453125
1751013739328334800,4.2133349609375,-1.001983642578125,-0.1481170654296875,-0.0087890625
1751013739338278000,4.22327783203125,-1.000640869140625,-0.146392822265625,-0.0058135986328125
1751013739348221000,4.233220947265625,-1.00189208984375,-0.143951416015625,0.0016937255859375
1751013739358164700,4.243164794921875,-1.0088958740234375,-0.14031982421875,0.0070953369140625
1751013739368107800,4.253107666015625,-1.00714111328125,-0.1393890380859375,0.0067291259765625
1751013739378051800,4.2630517578125,-1.0035400390625,-0.1431121826171875,0.0070648193359375
1751013739387995000,4.272994873046875,-1.0050048828125,-0.14837646484375,0.003997802734375
1751013739397937700,4.282937744140625,-1.005340576171875,-0.150238037109375,0.0051422119140625
1751013739407881700,4.2928818359375,-1.0032806396484375,-0.15106201171875,0.0045318603515625
1751013739417824800,4.30282470703125,-0.9993896484375,-0.1536407470703125,0.003662109375
1751013739427768800,4.312768798828125,-0.997467041015625,-0.155792236328125,0.003997802734375
1751013739437711600,4.322711669921875,-0.9989166259765625,-0.1543121337890625,0.00592041015625
1751013739447656000,4.332656005859375,-0.9996185302734375,-0.151397705078125,0.010467529296875
1751013739457599000,4.342598876953125,-1.0008544921875,-0.1508941650390625,0.01409912109375
1751013739467542000,4.3525419921875,-0.999359130859375,-0.1512298583984375,0.012298583984375
1751013739477485800,4.36248583984375,-0.99786376953125,-0.1504974365234375,0.008758544921875
1751013739487428900,4.372428955078125,-0.99725341796875,-0.1508026123046875,0.0121002197265625
1751013739497373000,4.382373046875,-0.9983062744140625,-0.151763916015625,0.0132598876953125
1751013739507316000,4.39231591796875,-0.9991302490234375,-0.1522369384765625,0.011199951171875
1751013739517259000,4.402259033203125,-0.99822998046875,-0.15283203125,0.008392333984375
1751013739527202800,4.412202880859375,-0.99835205078125,-0.1527252197265625,0.0059051513671875
1751013739537145900,4.422145751953125,-1.0002288818359375,-0.1511077880859375,0.0042572021484375
1751013739547090000,4.43208984375,-0.999542236328125,-0.1511688232421875,0.003387451171875
1751013739557032700,4.44203271484375,-0.9985809326171875,-0.151580810546875,0.001129150390625
1751013739566975700,4.451975830078125,-1.0063018798828125,-0.14990234375,-0.0014495849609375
1751013739576919800,4.461919921875,-1.0143280029296875,-0.1493072509765625,-0.002288818359375
1751013739586862800,4.47186279296875,-1.0141754150390625,-0.1453857421875,-0.0051116943359375
1751013739596806700,4.481806640625,-1.013458251953125,-0.14129638671875,-0.0054473876953125
1751013739606749700,4.491749755859375,-1.0113983154296875,-0.1398468017578125,-0.0032958984375
1751013739616693800,4.50169384765625,-1.0126953125,-0.1401519775390625,0.000701904296875
1751013739626636800,4.51163671875,-1.011688232421875,-0.1406402587890625,-0.002655029296875
1751013739636583700,4.521583740234375,-1.009979248046875,-0.142730712890625,-0.0065155029296875
1751013739646527500,4.531527587890625,-1.0055999755859375,-0.14373779296875,-0.00567626953125
1751013739656470500,4.541470458984375,-1.0034637451171875,-0.1451263427734375,-0.0019989013671875
1751013739666414600,4.55141455078125,-1.0014495849609375,-0.1488494873046875,-0.001007080078125
1751013739676357600,4.561357666015625,-0.9994354248046875,-0.150177001953125,0.0008544921875
1751013739686300400,4.571300537109375,-0.9957122802734375,-0.1514434814453125,0.0009307861328125
1751013739696244500,4.581244384765625,-0.995941162109375,-0.15155029296875,0.00054931640625
1751013739706187500,4.5911875,-0.9998779296875,-0.151214599609375,0.0009613037109375
1751013739716131600,4.601131591796875,-0.9988861083984375,-0.1506805419921875,-0.0010986328125
1751013739726074600,4.61107470703125,-0.99627685546875,-0.1507415771484375,-0.005279541015625
1751013739736018700,4.621018798828125,-0.99969482421875,-0.149444580078125,-0.00372314453125
1751013739745961700,4.630961669921875,-0.999298095703125,-0.1484375,-0.0024566650390625
1751013739755904800,4.64090478515625,-0.9963226318359375,-0.14801025390625,-0.0017547607421875
1751013739765848600,4.6508486328125,-0.9945068359375,-0.145477294921875,0.002349853515625
1751013739775791600,4.66079150390625,-0.99517822265625,-0.1449737548828125,0.0025177001953125
1751013739785735700,4.670735595703125,-0.998199462890625,-0.146240234375,0.001861572265625
1751013739795678700,4.6806787109375,-0.999114990234375,-0.1493377685546875,0.0037841796875
1751013739805621500,4.69062158203125,-1.0042877197265625,-0.1536712646484375,0.003173828125
1751013739815565600,4.700565673828125,-1.0101776123046875,-0.1575775146484375,-0.0002593994140625
1751013739825508600,4.710508544921875,-1.01165771484375,-0.1590728759765625,-0.007049560546875
1751013739835452700,4.72045263671875,-1.0101165771484375,-0.15789794921875,-0.0088653564453125
1751013739845395500,4.7303955078125,-1.009552001953125,-0.1539764404296875,-0.00762939453125
1751013739855338500,4.74033837890625,-1.0047760009765625,-0.1516265869140625,-0.00677490234375
1751013739865282600,4.750282470703125,-1.00177001953125,-0.1512603759765625,-0.00390625
1751013739875225600,4.7602255859375,-1.0007171630859375,-0.15167236328125,-0.00048828125
1751013739885169400,4.77016943359375,-1.0020294189453125,-0.15264892578125,-0.0028839111328125
1751013739895112400,4.780112548828125,-1.0020904541015625,-0.156707763671875,-0.007080078125
1751013739905056500,4.790056396484375,-1.0030670166015625,-0.161163330078125,-0.00811767578125
1751013739914999600,4.79999951171875,-1.0025634765625,-0.162994384765625,-0.008331298828125
1751013739924942600,4.809942626953125,-1.0019683837890625,-0.1621856689453125,-0.008331298828125
1751013739934886700,4.81988671875,-1.003021240234375,-0.1614227294921875,-0.0054168701171875
1751013739944829400,4.829829345703125,-1.003326416015625,-0.159759521484375,-0.0029144287109375
1751013739954773800,4.839773681640625,-1.0030975341796875,-0.155181884765625,-0.0002593994140625
1751013739964716800,4.849716796875,-1.0029296875,-0.1491546630859375,-0.006195068359375
1751013739974659600,4.85965966796875,-1.006195068359375,-0.147369384765625,-0.0103607177734375
1751013739984603600,4.869603759765625,-1.0069122314453125,-0.1474609375,-0.0116729736328125
1751013739994546700,4.879546630859375,-1.0008697509765625,-0.1482391357421875,-0.0120697021484375
1751013740004490500,4.889490478515625,-0.998077392578125,-0.14935302734375,-0.0096282958984375
1751013740014433500,4.89943359375,-0.99871826171875,-0.152496337890625,-0.0074005126953125
1751013740024376600,4.90937646484375,-0.9981536865234375,-0.1585235595703125,-0.0063934326171875
1751013740034320600,4.919320556640625,-0.994903564453125,-0.1665802001953125,-0.0080108642578125
1751013740044263700,4.929263671875,-0.9970245361328125,-0.175079345703125,-0.008941650390625
1751013740054207500,4.93920751953125,-1.00433349609375,-0.1764068603515625,-0.0093994140625
1751013740064150500,4.949150634765625,-1.01446533203125,-0.166595458984375,-0.01300048828125
1751013740074094600,4.959094482421875,-1.0289154052734375,-0.145721435546875,-0.0025482177734375
1751013740084037600,4.96903759765625,-1.0178985595703125,-0.12628173828125,0.00439453125
1751013740093980700,4.978980712890625,-1.016937255859375,-0.116943359375,-0.005340576171875
1751013740103924500,4.988924560546875,-1.0209808349609375,-0.11395263671875,-0.00408935546875
1751013740113867500,4.998867431640625,-1.0209197998046875,-0.1105499267578125,-0.0114898681640625
1751013740123811600,5.0088115234375,-1.01495361328125,-0.113677978515625,-0.0219268798828125
1751013740133754400,5.01875439453125,-1.015350341796875,-0.1202392578125,-0.0167388916015625
1751013740143697400,5.028697509765625,-1.01739501953125,-0.126190185546875,-0.003173828125
1751013740153641500,5.038641357421875,-1.0115814208984375,-0.135711669921875,0.0023040771484375
1751013740163584500,5.04858447265625,-1.0060882568359375,-0.146881103515625,-0.0052032470703125
1751013740173528600,5.058528564453125,-1.0021514892578125,-0.1555328369140625,-0.009552001953125
1751013740183471600,5.0684716796875,-1.0026702880859375,-0.160430908203125,-0.005828857421875
1751013740193414700,5.07841455078125,-1.0021820068359375,-0.160919189453125,0.00128173828125
1751013740203358700,5.088358642578125,-0.99932861328125,-0.1555633544921875,0.0047760009765625
1751013740213301800,5.0983017578125,-0.9994964599609375,-0.1469879150390625,0.00616455078125
1751013740223245600,5.10824560546875,-1.0028533935546875,-0.1369476318359375,0.0037841796875
1751013740233188600,5.118188720703125,-1.00506591796875,-0.1278533935546875,0.004241943359375
1751013740243132700,5.128132568359375,-1.0016021728515625,-0.1244659423828125,0.0053558349609375
1751013740253075700,5.13807568359375,-0.99639892578125,-0.1259002685546875,0.004425048828125
1751013740263018500,5.1480185546875,-0.993743896484375,-0.130340576171875,0.0043487548828125
1751013740272962600,5.157962646484375,-0.9921417236328125,-0.13763427734375,0.004669189453125
1751013740282905600,5.167905517578125,-0.98577880859375,-0.14593505859375,0.0019378662109375
1751013740292849700,5.177849609375,-0.9842529296875,-0.152587890625,-0.0004119873046875
1751013740302792400,5.18779248046875,-0.98712158203125,-0.15618896484375,-0.0000762939453125
1751013740312735500,5.197735595703125,-0.9893951416015625,-0.1613616943359375,-0.00006103515625
1751013740322679600,5.207679443359375,-0.9919891357421875,-0.162261962890625,0.000030517578125
1751013740332622600,5.21762255859375,-0.9955596923828125,-0.1602325439453125,0.002349853515625
1751013740342566400,5.22756640625,-1.0027618408203125,-0.1528167724609375,0.005645751953125
1751013740352509400,5.237509521484375,-1.0079498291015625,-0.1440277099609375,0.0014190673828125
1751013740362452500,5.247452392578125,-1.0077972412109375,-0.136474609375,-0.003021240234375
1751013740372396500,5.257396484375,-1.0100250244140625,-0.1299591064453125,-0.0048675537109375
1751013740382339600,5.267339599609375,-1.01312255859375,-0.1280059814453125,-0.001678466796875
1751013740392283600,5.27728369140625,-1.0114593505859375,-0.1304473876953125,0.000030517578125
1751013740402226700,5.287226806640625,-1.009490966796875,-0.1354827880859375,-0.00201416015625
1751013740412170800,5.297170654296875,-1.0049591064453125,-0.141387939453125,0.00115966796875
1751013740422113500,5.307113525390625,-1.00323486328125,-0.1466522216796875,0.008056640625
1751013740432056600,5.317056640625,-1.0008087158203125,-0.1504058837890625,0.0104522705078125
1751013740442000600,5.327000732421875,-0.99871826171875,-0.152587890625,0.008056640625
1751013740451943700,5.336943603515625,-1.0001678466796875,-0.15478515625,0.00439453125
1751013740461887500,5.346887451171875,-1.0043182373046875,-0.1534881591796875,0.00152587890625
1751013740471830500,5.35683056640625,-1.0049896240234375,-0.1490936279296875,-0.002532958984375
1751013740481773600,5.366773681640625,-1.007049560546875,-0.1439056396484375,-0.0072784423828125
1751013740491717600,5.376717529296875,-1.0099334716796875,-0.1395721435546875,-0.0081024169921875
1751013740501660700,5.38666064453125,-1.0078887939453125,-0.1360015869140625,-0.0078277587890625
1751013740511604500,5.3966044921875,-1.0092620849609375,-0.1342315673828125,-0.0101165771484375
1751013740521547500,5.406547607421875,-1.01129150390625,-0.135406494140625,-0.00738525390625
1751013740531491600,5.41649169921875,-1.0077667236328125,-0.13958740234375,-0.0077667236328125
1751013740541434600,5.4264345703125,-1.0040130615234375,-0.1438751220703125,-0.011444091796875
1751013740551377400,5.43637744140625,-1.004058837890625,-0.1484832763671875,-0.0142364501953125
1751013740561321500,5.446321533203125,-1.0050811767578125,-0.152374267578125,-0.015350341796875
1751013740571264500,5.456264404296875,-1.0049896240234375,-0.154052734375,-0.0157012939453125
1751013740581208600,5.46620849609375,-1.0080413818359375,-0.15521240234375,-0.0126190185546875
1751013740591151400,5.4761513671875,-1.01165771484375,-0.15447998046875,-0.0109710693359375
1751013740601094400,5.486094482421875,-1.012176513671875,-0.1482086181640625,-0.011260986328125
1751013740611038700,5.496038818359375,-1.009552001953125,-0.1409759521484375,-0.0130157470703125
1751013740620981800,5.505981689453125,-1.0105438232421875,-0.1347503662109375,-0.01483154296875
1751013740630925600,5.515925537109375,-1.0145721435546875,-0.1321258544921875,-0.0187835693359375
1751013740640864500,5.525864501953125,-1.01470947265625,-0.1342010498046875,-0.0213775634765625
1751013740650807600,5.5358076171875,-1.0078887939453125,-0.137725830078125,-0.0194244384765625
1751013740660752000,5.545751953125,-1.003021240234375,-0.14190673828125,-0.014556884765625
1751013740670694700,5.555694580078125,-0.9990386962890625,-0.1441497802734375,-0.00933837890625
1751013740680638700,5.565638671875,-0.993011474609375,-0.1497344970703125,-0.0066070556640625
1751013740690581800,5.575581787109375,-0.986724853515625,-0.155029296875,-0.0047454833984375
1751013740700525800,5.58552587890625,-0.986724853515625,-0.15673828125,-0.001190185546875
1751013740710468900,5.59546875,-0.9887542724609375,-0.1573944091796875,-0.0018768310546875
1751013740720412000,5.605411865234375,-0.989044189453125,-0.15704345703125,-0.0048370361328125
1751013740730355700,5.615355712890625,-0.99151611328125,-0.1546173095703125,-0.009735107421875
1751013740740298800,5.625298828125,-0.9934844970703125,-0.1509552001953125,-0.0103302001953125
1751013740750242800,5.635242919921875,-0.9953765869140625,-0.1426239013671875,-0.0094451904296875
1751013740760185600,5.645185546875,-0.9988861083984375,-0.13427734375,-0.009429931640625
1751013740770128600,5.655128662109375,-1.0057525634765625,-0.1324462890625,-0.0086822509765625
1751013740780072700,5.66507275390625,-1.0107421875,-0.1343536376953125,-0.00714111328125
1751013740790015700,5.675015625,-1.0096435546875,-0.1365966796875,-0.0090789794921875
1751013740799959600,5.68495947265625,-1.0081787109375,-0.1392974853515625,-0.008880615234375
1751013740809902600,5.694902587890625,-1.0079345703125,-0.142364501953125,-0.007354736328125
1751013740819845600,5.704845703125,-1.006927490234375,-0.1466827392578125,-0.0034027099609375
1751013740829789700,5.714789794921875,-1.0055694580078125,-0.1494903564453125,-0.001373291015625
1751013740839732700,5.724732666015625,-1.004180908203125,-0.15087890625,-0.00506591796875
1751013740849676500,5.734676513671875,-1.004974365234375,-0.1462860107421875,-0.006439208984375
1751013740859619600,5.74461962890625,-1.004058837890625,-0.1429901123046875,-0.010162353515625
1751013740869564000,5.75456396484375,-1.0018310546875,-0.1404571533203125,-0.0134124755859375
1751013740879506700,5.764506591796875,-1.0008087158203125,-0.1386566162109375,-0.01165771484375
1751013740889449500,5.774449462890625,-1.0045013427734375,-0.1370849609375,-0.0113677978515625
1751013740899393800,5.784393798828125,-1.00567626953125,-0.1400299072265625,-0.01312255859375
1751013740909336800,5.7943369140625,-1.0040435791015625,-0.1442108154296875,-0.0147247314453125
1751013740919280600,5.80428076171875,-1.0019989013671875,-0.1463775634765625,-0.0150604248046875
1751013740929223700,5.8142236328125,-1.0008392333984375,-0.1462860107421875,-0.0108642578125
1751013740939166700,5.824166748046875,-1.0021514892578125,-0.1449127197265625,-0.008331298828125
1751013740949110800,5.83411083984375,-1.00592041015625,-0.1412353515625,-0.006744384765625
1751013740959053800,5.8440537109375,-1.0102081298828125,-0.137969970703125,-0.0081329345703125
1751013740968997600,5.85399755859375,-1.016204833984375,-0.139434814453125,-0.0128173828125
1751013740978940700,5.863940673828125,-1.0210723876953125,-0.1411285400390625,-0.016510009765625
1751013740988883700,5.8738837890625,-1.0255279541015625,-0.140533447265625,-0.017730712890625
1751013740998827800,5.883827880859375,-1.0252685546875,-0.137054443359375,-0.0130157470703125
1751013741008770800,5.893770751953125,-1.020111083984375,-0.13751220703125,-0.00830078125
1751013741018714600,5.903714599609375,-1.0180511474609375,-0.1385955810546875,-0.006591796875
1751013741028657700,5.91365771484375,-1.01568603515625,-0.140350341796875,-0.0098419189453125
1751013741038601700,5.923601806640625,-1.0091705322265625,-0.1456298828125,-0.0113525390625
1751013741048544800,5.933544677734375,-1.0085296630859375,-0.1477508544921875,-0.01214599609375
1751013741058487600,5.943487548828125,-1.0063629150390625,-0.1488494873046875,-0.008575439453125
1751013741068431600,5.953431640625,-1.00006103515625,-0.14959716796875,-0.0089263916015625
1751013741078374700,5.963374755859375,-0.9924468994140625,-0.150634765625,-0.003753662109375
1751013741088318500,5.973318359375,-0.993011474609375,-0.1480712890625,0.003448486328125
1751013741098261500,5.983261474609375,-0.9962310791015625,-0.1436309814453125,0.00592041015625
1751013741108204500,5.99320458984375,-0.994476318359375,-0.1404876708984375,0.0032958984375
1751013741118148900,6.00314892578125,-0.99334716796875,-0.140716552734375,0.00048828125
1751013741128092000,6.013091796875,-0.996978759765625,-0.142486572265625,0.0006103515625
1751013741138035700,6.02303564453125,-1.000701904296875,-0.139862060546875,-0.0014801025390625
1751013741147978800,6.032978759765625,-1.0006103515625,-0.141815185546875,-0.0075531005859375
1751013741157921800,6.042921875,-0.99835205078125,-0.1483612060546875,-0.01190185546875
1751013741167865900,6.052865966796875,-0.9947509765625,-0.1542816162109375,-0.0146484375
1751013741177808600,6.06280859375,-0.9917144775390625,-0.1572265625,-0.0104827880859375
1751013741187752700,6.072752685546875,-0.989349365234375,-0.15936279296875,-0.009124755859375
1751013741197695700,6.08269580078125,-0.9887542724609375,-0.1588134765625,-0.0069122314453125
1751013741207639800,6.092639892578125,-0.9884185791015625,-0.1561279296875,-0.0051116943359375
1751013741217582600,6.10258251953125,-0.9925689697265625,-0.1521148681640625,-0.0006866455078125
1751013741227525600,6.112525634765625,-0.991973876953125,-0.1500396728515625,-0.0003204345703125
1751013741237469700,6.1224697265625,-0.9937286376953125,-0.149444580078125,-0.0040130615234375
1751013741247412700,6.132412841796875,-0.997833251953125,-0.14935302734375,-0.0050201416015625
1751013741257356500,6.1423564453125,-0.99761962890625,-0.1494140625,-0.005767822265625
1751013741267299600,6.152299560546875,-0.997467041015625,-0.148345947265625,-0.00799560546875
1751013741277242600,6.16224267578125,-0.999298095703125,-0.1481781005859375,-0.00823974609375
1751013741287186700,6.172186767578125,-1.0001983642578125,-0.1455841064453125,-0.0081024169921875
1751013741297129700,6.182129638671875,-0.9987030029296875,-0.1438446044921875,-0.003753662109375
1751013741307073500,6.192073486328125,-0.9977264404296875,-0.1430511474609375,-0.00152587890625
1751013741317016600,6.2020166015625,-0.99688720703125,-0.145172119140625,-0.002471923828125
1751013741326959600,6.211959716796875,-0.9963531494140625,-0.147430419921875,-0.00433349609375
1751013741336904000,6.221904052734375,-1.000762939453125,-0.14825439453125,-0.0035247802734375
1751013741346846700,6.2318466796875,-1.001312255859375,-0.1497039794921875,0.0005950927734375
1751013741356790800,6.241790771484375,-1.000518798828125,-0.1545562744140625,-0.0035247802734375
1751013741366733800,6.25173388671875,-1.0003814697265625,-0.15380859375,-0.005889892578125
1751013741376676900,6.2616767578125,-1.0065460205078125,-0.1478729248046875,-0.00384521484375
1751013741386620700,6.27162060546875,-1.01068115234375,-0.142120361328125,-0.001800537109375
1751013741396563700,6.281563720703125,-1.0109100341796875,-0.1396331787109375,-0.0056915283203125
1751013741406507800,6.2915078125,-1.01483154296875,-0.1363067626953125,-0.0078125
1751013741416450800,6.301450927734375,-1.0158538818359375,-0.1366729736328125,-0.009521484375
1751013741426394600,6.31139453125,-1.0168304443359375,-0.136993408203125,-0.0092315673828125
1751013741436337700,6.321337646484375,-1.020660400390625,-0.1398162841796875,-0.011932373046875
1751013741446280700,6.33128076171875,-1.02252197265625,-0.144012451171875,-0.0129241943359375
1751013741456224800,6.341224853515625,-1.016357421875,-0.148162841796875,-0.012847900390625
1751013741466167800,6.351167724609375,-1.012725830078125,-0.14849853515625,-0.0122833251953125
1751013741476111600,6.361111572265625,-1.0088653564453125,-0.1491546630859375,-0.011688232421875
1751013741486054700,6.3710546875,-1.0078887939453125,-0.150909423828125,-0.012115478515625
1751013741495997700,6.380997802734375,-1.0069122314453125,-0.1520233154296875,-0.012542724609375
1751013741505941500,6.39094140625,-1.00732421875,-0.149627685546875,-0.010223388671875
1751013741515884500,6.400884521484375,-1.0051422119140625,-0.1477203369140625,-0.010650634765625
1751013741525828600,6.41082861328125,-1.0072021484375,-0.1468505859375,-0.0129852294921875
1751013741535771600,6.420771728515625,-1.0094146728515625,-0.144989013671875,-0.015716552734375
1751013741545714700,6.430714599609375,-1.0092010498046875,-0.142181396484375,-0.0186614990234375
1751013741555658800,6.44065869140625,-1.0083160400390625,-0.141143798828125,-0.0219268798828125
1751013741565601500,6.4506015625,-1.0070037841796875,-0.14447021484375,-0.021575927734375
1751013741575545900,6.4605458984375,-1.005523681640625,-0.1470794677734375,-0.0191497802734375
1751013741585489000,6.470489013671875,-1.005401611328125,-0.1481781005859375,-0.0197601318359375
1751013741595431700,6.480431640625,-1.0056304931640625,-0.147369384765625,-0.020111083984375
1751013741605375700,6.490375732421875,-1.00347900390625,-0.1478424072265625,-0.0192108154296875
1751013741615318800,6.50031884765625,-1.0024566650390625,-0.1492919921875,-0.0189361572265625
1751013741625262800,6.510262939453125,-1.0045623779296875,-0.1479339599609375,-0.019989013671875
1751013741635209000,6.520208984375,-1.00567626953125,-0.1456298828125,-0.023590087890625
1751013741645153000,6.530153076171875,-1.0053253173828125,-0.1478729248046875,-0.027679443359375
1751013741655096000,6.540095947265625,-1.00335693359375,-0.1492462158203125,-0.0274810791015625
1751013741665039000,6.5500390625,-1.001190185546875,-0.14825439453125,-0.0247955322265625
1751013741674983000,6.55998291015625,-0.9992828369140625,-0.14813232421875,-0.0214691162109375
1751013741684926000,6.569926025390625,-0.9977264404296875,-0.1503448486328125,-0.0196685791015625
1751013741694870000,6.5798701171875,-0.9928436279296875,-0.1537933349609375,-0.017730712890625
1751013741704813000,6.58981298828125,-0.9907073974609375,-0.1533966064453125,-0.0128021240234375
1751013741714756000,6.599756103515625,-0.9905853271484375,-0.1510009765625,-0.0080413818359375
1751013741724700000,6.609699951171875,-0.990386962890625,-0.1491546630859375,-0.0074615478515625
1751013741734643000,6.619642822265625,-0.9887237548828125,-0.1486968994140625,-0.0123748779296875
1751013741744587300,6.629587158203125,-0.991363525390625,-0.148651123046875,-0.013336181640625
1751013741754530300,6.6395302734375,-0.9936676025390625,-0.1497650146484375,-0.011871337890625
1751013741764473000,6.64947314453125,-0.99664306640625,-0.150421142578125,-0.01092529296875
1751013741774417200,6.659417236328125,-0.99932861328125,-0.150299072265625,-0.0094451904296875
1751013741784360200,6.669360107421875,-1.00311279296875,-0.14599609375,-0.00701904296875
1751013741794304300,6.67930419921875,-1.0077972412109375,-0.1410064697265625,-0.0052490234375
1751013741804247000,6.6892470703125,-1.0072021484375,-0.1393890380859375,-0.0085906982421875
1751013741814190000,6.699190185546875,-1.0073394775390625,-0.13916015625,-0.0116424560546875
1751013741824134100,6.709134033203125,-1.00579833984375,-0.1401824951171875,-0.0137176513671875
1751013741834077200,6.7190771484375,-1.0027313232421875,-0.1425628662109375,-0.0140838623046875
1751013741844021000,6.72902099609375,-1.0024566650390625,-0.1428070068359375,-0.0161285400390625
1751013741853964000,6.738964111328125,-1.0009002685546875,-0.14337158203125,-0.0167083740234375
1751013741863908000,6.748908203125,-0.9972381591796875,-0.147857666015625,-0.0168304443359375
1751013741873851100,6.75885107421875,-0.9982147216796875,-0.151153564453125,-0.016754150390625
1751013741883794200,6.768794189453125,-0.9994049072265625,-0.15301513671875,-0.0171966552734375
1751013741893738000,6.778738037109375,-1.00469970703125,-0.1533660888671875,-0.0198822021484375
1751013741903681000,6.788680908203125,-1.0079345703125,-0.150726318359375,-0.0244140625
1751013741913625000,6.798625,-1.010284423828125,-0.1474609375,-0.02587890625
1751013741923568000,6.808568115234375,-1.01220703125,-0.143096923828125,-0.0229644775390625
1751013741933511000,6.818510986328125,-1.012359619140625,-0.1393890380859375,-0.0211029052734375
1751013741943455000,6.828455078125,-1.0085296630859375,-0.1365509033203125,-0.0226898193359375
1751013741953398000,6.83839794921875,-1.0070343017578125,-0.1364593505859375,-0.0264434814453125
1751013741963342000,6.848342041015625,-1.0037384033203125,-0.1408538818359375,-0.027557373046875
1751013741973284900,6.858284912109375,-0.99896240234375,-0.142669677734375,-0.0251007080078125
1751013741983228000,6.868227783203125,-0.994720458984375,-0.145050048828125,-0.02178955078125
1751013741993172200,6.878172119140625,-0.992218017578125,-0.1497955322265625,-0.0204010009765625
1751013742003115300,6.888115234375,-0.99139404296875,-0.154937744140625,-0.01959228515625
1751013742013059000,6.89805908203125,-0.98883056640625,-0.156219482421875,-0.017913818359375
1751013742023002000,6.908002197265625,-0.9910888671875,-0.155059814453125,-0.015045166015625
1751013742032945200,6.917945068359375,-0.994232177734375,-0.1515655517578125,-0.0152740478515625
1751013742042889200,6.92788916015625,-0.9977264404296875,-0.1501007080078125,-0.0201416015625
1751013742052832000,6.93783203125,-1.0041046142578125,-0.146209716796875,-0.022247314453125
1751013742062776000,6.947776123046875,-1.007080078125,-0.143524169921875,-0.0254669189453125
1751013742072719000,6.957718994140625,-1.009124755859375,-0.1425628662109375,-0.02886962890625
1751013742082662100,6.967662109375,-1.0117340087890625,-0.1423797607421875,-0.0287322998046875
1751013742092606000,6.97760595703125,-1.009368896484375,-0.1429290771484375,-0.028076171875
1751013742102549000,6.987549072265625,-1.0047607421875,-0.14642333984375,-0.0291900634765625
1751013742112493000,6.9974931640625,-0.999603271484375,-0.150390625,-0.028594970703125
1751013742122436000,7.00743603515625,-0.995758056640625,-0.1543121337890625,-0.02581787109375
1751013742132379100,7.017379150390625,-0.9898834228515625,-0.1584930419921875,-0.023590087890625
1751013742142323000,7.027322998046875,-0.986724853515625,-0.15875244140625,-0.02117919921875
1751013742152266000,7.037265869140625,-0.9850311279296875,-0.156494140625,-0.022979736328125
1751013742162210000,7.0472099609375,-0.9835968017578125,-0.1556854248046875,-0.022979736328125
1751013742172153000,7.057153076171875,-0.9852447509765625,-0.15411376953125,-0.0217437744140625
1751013742182097200,7.06709716796875,-0.986419677734375,-0.1494293212890625,-0.021087646484375
1751013742192040000,7.0770400390625,-0.987335205078125,-0.1456146240234375,-0.0232391357421875
1751013742201983000,7.08698291015625,-0.993927001953125,-0.1409759521484375,-0.0238189697265625
1751013742211927300,7.09692724609375,-1.0022125244140625,-0.13580322265625,-0.02142333984375
1751013742221870000,7.1068701171875,-1.0083160400390625,-0.136016845703125,-0.0232696533203125
1751013742231814100,7.116814208984375,-1.01507568359375,-0.1331634521484375,-0.022186279296875
1751013742241757200,7.126757080078125,-1.0194091796875,-0.1305694580078125,-0.023681640625
1751013742251700200,7.1367001953125,-1.020233154296875,-0.1303253173828125,-0.025726318359375
1751013742261644000,7.14664404296875,-1.0200347900390625,-0.1290740966796875,-0.026519775390625
1751013742271587000,7.156587158203125,-1.0201416015625,-0.1266937255859375,-0.0249786376953125
1751013742281531100,7.16653125,-1.0185546875,-0.1272735595703125,-0.024932861328125
1751013742291474200,7.17647412109375,-1.0155181884765625,-0.1297454833984375,-0.0269012451171875
1751013742301417200,7.186417236328125,-1.0135345458984375,-0.1323394775390625,-0.0257415771484375
1751013742311361000,7.196361083984375,-1.0131683349609375,-0.1332550048828125,-0.0226287841796875
1751013742321304000,7.206303955078125,-1.0123138427734375,-0.136993408203125,-0.0272064208984375
1751013742331248000,7.216248046875,-1.0128936767578125,-0.14190673828125,-0.03192138671875
1751013742341191200,7.226191162109375,-1.0139007568359375,-0.1435699462890625,-0.031219482421875
1751013742351134000,7.236134033203125,-1.0124359130859375,-0.1429595947265625,-0.032318115234375
1751013742361078000,7.246078125,-1.011505126953125,-0.1438751220703125,-0.0361785888671875
1751013742371021000,7.25602099609375,-1.009490966796875,-0.1429290771484375,-0.035369873046875
1751013742380965000,7.265965087890625,-1.004425048828125,-0.14129638671875,-0.03497314453125
1751013742390908000,7.275907958984375,-1.003265380859375,-0.1385955810546875,-0.0330047607421875
1751013742400852000,7.28585205078125,-1.0067291259765625,-0.1341400146484375,-0.029754638671875
1751013742410795000,7.295794921875,-1.00677490234375,-0.13031005859375,-0.026397705078125
1751013742420738000,7.305738037109375,-1.000274658203125,-0.1325225830078125,-0.0293426513671875
1751013742430682000,7.31568212890625,-0.9927978515625,-0.135650634765625,-0.0303192138671875
1751013742440625200,7.325625244140625,-0.9915313720703125,-0.1336822509765625,-0.0249481201171875
1751013742450569200,7.3355693359375,-0.987823486328125,-0.131927490234375,-0.0169525146484375
1751013742460512300,7.34551220703125,-0.98565673828125,-0.132476806640625,-0.014739990234375
1751013742470455300,7.355455322265625,-0.9845733642578125,-0.136566162109375,-0.013031005859375
1751013742480399000,7.365399169921875,-0.9860076904296875,-0.1363677978515625,-0.0136871337890625
1751013742490342100,7.375342041015625,-0.9905548095703125,-0.1356658935546875,-0.0173797607421875
1751013742500286200,7.3852861328125,-0.993072509765625,-0.1349945068359375,-0.01910400390625
1751013742510229000,7.39522900390625,-0.99591064453125,-0.13287353515625,-0.01751708984375
1751013742520172000,7.405172119140625,-1.0005035400390625,-0.126678466796875,-0.018707275390625
1751013742530116000,7.4151162109375,-1.0003509521484375,-0.1240234375,-0.02301025390625
1751013742540059100,7.42505908203125,-1.00299072265625,-0.121551513671875,-0.021026611328125
1751013742550003000,7.4350029296875,-1.00494384765625,-0.119384765625,-0.0208587646484375
1751013742559946000,7.444946044921875,-1.0062103271484375,-0.12109375,-0.0208892822265625
1751013742569889000,7.454888916015625,-1.01116943359375,-0.1236419677734375,-0.0192718505859375
1751013742579833000,7.4648330078125,-1.011077880859375,-0.12689208984375,-0.0186920166015625
1751013742589776100,7.474776123046875,-1.0066070556640625,-0.1318359375,-0.0172119140625
1751013742599720000,7.484719970703125,-1.0055999755859375,-0.1358642578125,-0.0147247314453125
1751013742609663000,7.4946630859375,-1.0064544677734375,-0.14013671875,-0.0129547119140625
1751013742619606000,7.50460595703125,-1.0079345703125,-0.141082763671875,-0.0082244873046875
1751013742629550000,7.514550048828125,-1.01324462890625,-0.144317626953125,-0.0046234130859375
1751013742639489800,7.52448974609375,-1.025634765625,-0.1475677490234375,-0.0060272216796875
1751013742649433900,7.534433837890625,-1.044342041015625,-0.1461639404296875,-0.0128326416015625
1751013742659377000,7.544376953125,-1.069488525390625,-0.139312744140625,-0.0140380859375
1751013742669320700,7.55432080078125,-1.076019287109375,-0.1246185302734375,-0.0183563232421875
1751013742679263700,7.564263671875,-1.0772552490234375,-0.118255615234375,-0.045989990234375
1751013742689206800,7.574206787109375,-1.090240478515625,-0.1043548583984375,-0.0474090576171875
1751013742699150800,7.58415087890625,-1.0853118896484375,-0.0924530029296875,-0.057861328125
1751013742709094000,7.594093994140625,-1.06536865234375,-0.0917816162109375,-0.0689239501953125
1751013742719037700,7.60403759765625,-1.051513671875,-0.0956573486328125,-0.0655517578125
1751013742728980700,7.613980712890625,-1.036285400390625,-0.102783203125,-0.058868408203125
1751013742738923800,7.623923828125,-1.014678955078125,-0.1086883544921875,-0.0521697998046875
1751013742748868000,7.6338681640625,-1.00079345703125,-0.1159515380859375,-0.0422210693359375
1751013742758811000,7.643810791015625,-0.993988037109375,-0.129058837890625,-0.0344085693359375
1751013742768755000,7.6537548828125,-0.983673095703125,-0.14434814453125,-0.031524658203125
1751013742778698000,7.663697998046875,-0.9727935791015625,-0.1550445556640625,-0.032501220703125
1751013742788641000,7.67364111328125,-0.96783447265625,-0.158477783203125,-0.03155517578125
1751013742798584800,7.683584716796875,-0.9622344970703125,-0.1597747802734375,-0.0295257568359375
1751013742808528000,7.69352783203125,-0.9595184326171875,-0.15924072265625,-0.0276947021484375
1751013742818472000,7.703471923828125,-0.9665069580078125,-0.1560821533203125,-0.02215576171875
1751013742828415000,7.7134150390625,-0.9742889404296875,-0.1472320556640625,-0.0222015380859375
1751013742838358000,7.72335791015625,-0.984832763671875,-0.1364898681640625,-0.0307769775390625
1751013742848301800,7.7333017578125,-0.99090576171875,-0.12939453125,-0.037994384765625
1751013742858244900,7.743244873046875,-0.987762451171875,-0.126556396484375,-0.043243408203125
1751013742868189000,7.75318896484375,-0.98602294921875,-0.1279296875,-0.052886962890625
1751013742878132000,7.763132080078125,-0.988311767578125,-0.12744140625,-0.0624847412109375
1751013742888074800,7.77307470703125,-0.987396240234375,-0.129425048828125,-0.066680908203125
1751013742898018800,7.783018798828125,-0.987152099609375,-0.13677978515625,-0.0684814453125
1751013742907961900,7.7929619140625,-0.990020751953125,-0.1409454345703125,-0.06890869140625
1751013742917906000,7.802906005859375,-0.992523193359375,-0.1417388916015625,-0.0738067626953125
1751013742927848700,7.8128486328125,-0.9907379150390625,-0.13934326171875,-0.077880859375
1751013742937792800,7.822792724609375,-0.9871063232421875,-0.1369781494140625,-0.07843017578125
1751013742947735800,7.83273583984375,-0.988800048828125,-0.13153076171875,-0.07464599609375
1751013742957678800,7.842678955078125,-0.9902191162109375,-0.1262664794921875,-0.072540283203125
1751013742967622700,7.85262255859375,-0.9903564453125,-0.1256256103515625,-0.0718994140625
1751013742977565700,7.862565673828125,-0.9853515625,-0.1294097900390625,-0.072540283203125
1751013742987510000,7.872510009765625,-0.987335205078125,-0.13153076171875,-0.071685791015625
1751013742997453000,7.882453125,-0.989990234375,-0.1327972412109375,-0.071746826171875
1751013743007396000,7.89239599609375,-0.9883575439453125,-0.1357879638671875,-0.069061279296875
1751013743017340000,7.90233984375,-0.99029541015625,-0.140655517578125,-0.06671142578125
1751013743027283000,7.912282958984375,-0.9937744140625,-0.144195556640625,-0.0625762939453125
1751013743037227000,7.92222705078125,-0.99725341796875,-0.147552490234375,-0.061676025390625
1751013743047170000,7.932170166015625,-0.9996185302734375,-0.1490936279296875,-0.060333251953125
1751013743057112800,7.94211279296875,-1.00225830078125,-0.1474151611328125,-0.0547637939453125
1751013743067057000,7.952056884765625,-1.0061492919921875,-0.1456298828125,-0.0484619140625
1751013743077000000,7.962,-1.0068511962890625,-0.1406097412109375,-0.0450439453125
1751013743086943700,7.97194384765625,-1.0057830810546875,-0.137725830078125,-0.0413665771484375
1751013743096886800,7.98188671875,-1.0086822509765625,-0.1327972412109375,-0.0347442626953125
1751013743106829800,7.991829833984375,-1.01220703125,-0.127105712890625,-0.0315093994140625
1751013743116774000,8.00177392578125,-1.0124664306640625,-0.12322998046875,-0.0315093994140625
1751013743126717000,8.011717041015626,-1.0117950439453125,-0.1242218017578125,-0.0311737060546875
1751013743136660700,8.02166064453125,-1.010498046875,-0.1285247802734375,-0.031890869140625
1751013743146603800,8.031603759765625,-1.010223388671875,-0.1328887939453125,-0.032958984375
1751013743156546800,8.041546875,-1.0098724365234375,-0.1366729736328125,-0.0334014892578125
1751013743166491000,8.051490966796875,-1.01177978515625,-0.140655517578125,-0.034637451171875
1751013743176434000,8.061433837890625,-1.009033203125,-0.1438751220703125,-0.034942626953125
1751013743186377700,8.071377685546874,-1.0075225830078125,-0.144561767578125,-0.0366058349609375
1751013743196320800,8.08132080078125,-1.0117340087890625,-0.1427459716796875,-0.03741455078125
1751013743206265000,8.09126513671875,-1.0124053955078125,-0.140838623046875,-0.0361785888671875
1751013743216208000,8.101207763671875,-1.014007568359375,-0.137908935546875,-0.0375823974609375
1751013743226150700,8.111150634765625,-1.020721435546875,-0.12860107421875,-0.0387420654296875
1751013743236095000,8.121094970703124,-1.0224151611328125,-0.1212310791015625,-0.040802001953125
1751013743246038000,8.1310380859375,-1.0230865478515625,-0.11993408203125,-0.0404205322265625
1751013743255981800,8.14098193359375,-1.0247802734375,-0.12060546875,-0.0391387939453125
1751013743265924900,8.1509248046875,-1.023895263671875,-0.1201019287109375,-0.03509521484375
1751013743275868000,8.160867919921875,-1.01739501953125,-0.1221923828125,-0.034942626953125
1751013743285812000,8.17081201171875,-1.0135650634765625,-0.126678466796875,-0.034820556640625
1751013743295755000,8.180755126953125,-1.010833740234375,-0.1320648193359375,-0.0345611572265625
1751013743305698800,8.19069873046875,-1.0084381103515625,-0.133758544921875,-0.03204345703125
1751013743315641900,8.200641845703124,-1.006439208984375,-0.1347503662109375,-0.0311431884765625
1751013743325585000,8.2105849609375,-1.0064849853515625,-0.133544921875,-0.0296478271484375
1751013743335529000,8.220529052734374,-1.0092010498046875,-0.1305999755859375,-0.029144287109375
1751013743345471700,8.2304716796875,-1.0093231201171875,-0.1247406005859375,-0.0321502685546875
1751013743355415800,8.240415771484376,-1.009613037109375,-0.1178436279296875,-0.0367889404296875
1751013743365358800,8.25035888671875,-1.0103607177734375,-0.11456298828125,-0.0388641357421875
1751013743375302000,8.260302001953125,-1.0098114013671875,-0.1117401123046875,-0.041717529296875
1751013743385245700,8.27024560546875,-1.0062255859375,-0.1126251220703125,-0.0425567626953125
1751013743395188700,8.280188720703125,-1.0035400390625,-0.11572265625,-0.0403289794921875
1751013743405132800,8.2901328125,-1.001983642578125,-0.1204681396484375,-0.0372161865234375
1751013743415075800,8.300075927734374,-0.9965362548828125,-0.1276092529296875,-0.0368499755859375
1751013743425019000,8.310018798828125,-0.9965667724609375,-0.132354736328125,-0.036163330078125
1751013743434963000,8.319962890625,-0.9946746826171875,-0.1330413818359375,-0.03582763671875
1751013743444905700,8.32990576171875,-0.98828125,-0.1372528076171875,-0.03619384765625
1751013743454850000,8.33985009765625,-0.9849090576171875,-0.1392822265625,-0.0373992919921875
1751013743464793000,8.34979296875,-0.986297607421875,-0.138031005859375,-0.0373382568359375
1751013743474737000,8.35973681640625,-0.9863433837890625,-0.1378173828125,-0.037017822265625
1751013743484680000,8.369679931640626,-0.9859161376953125,-0.1413421630859375,-0.0389862060546875
1751013743494623000,8.379623046875,-0.9909820556640625,-0.1429443359375,-0.03961181640625
1751013743504566800,8.38956689453125,-0.9931488037109375,-0.1421966552734375,-0.0378570556640625
1751013743514509800,8.399509765625,-0.9978485107421875,-0.140899658203125,-0.038177490234375
1751013743524454000,8.409453857421875,-1.004638671875,-0.13848876953125,-0.0367584228515625
1751013743534397000,8.41939697265625,-1.007110595703125,-0.1377105712890625,-0.036285400390625
1751013743544340000,8.429340087890624,-1.00799560546875,-0.135711669921875,-0.0382843017578125
1751013743554283800,8.43928369140625,-1.011077880859375,-0.128753662109375,-0.0390472412109375
1751013743564226800,8.449226806640626,-1.0128173828125,-0.1253662109375,-0.0394439697265625
1751013743574171000,8.4591708984375,-1.011688232421875,-0.1277923583984375,-0.0384674072265625
1751013743584114000,8.469114013671875,-1.0109405517578125,-0.1288604736328125,-0.03717041015625
1751013743594057000,8.479056884765624,-1.012786865234375,-0.129974365234375,-0.0394287109375
1751013743604000800,8.489000732421875,-1.0176849365234375,-0.1328582763671875,-0.0420989990234375
1751013743613943800,8.49894384765625,-1.018280029296875,-0.135955810546875,-0.0427398681640625
1751013743623888000,8.508887939453125,-1.0141754150390625,-0.1407318115234375,-0.04656982421875
1751013743633831000,8.518830810546875,-1.0151214599609375,-0.13958740234375,-0.0485992431640625
1751013743643774000,8.52877392578125,-1.0173797607421875,-0.1375579833984375,-0.0481414794921875
1751013743653718000,8.538718017578125,-1.0164642333984375,-0.136444091796875,-0.0498199462890625
1751013743663661000,8.5486611328125,-1.0128936767578125,-0.1363983154296875,-0.0523681640625
1751013743673604900,8.55860498046875,-1.0097808837890625,-0.1360931396484375,-0.0525970458984375
1751013743683548000,8.5685478515625,-1.01251220703125,-0.1328277587890625,-0.0499114990234375
1751013743693491000,8.578490966796876,-1.013671875,-0.131622314453125,-0.047515869140625
1751013743703435000,8.58843505859375,-1.0095672607421875,-0.1319732666015625,-0.04986572265625
1751013743713378000,8.5983779296875,-1.007720947265625,-0.1324005126953125,-0.0488433837890625
1751013743723321900,8.60832177734375,-1.011260986328125,-0.131103515625,-0.0497894287109375
1751013743733265000,8.618264892578125,-1.017059326171875,-0.1290740966796875,-0.0496063232421875
1751013743743208000,8.6282080078125,-1.0167388916015625,-0.132781982421875,-0.04791259765625
1751013743753152000,8.638152099609375,-1.0182952880859375,-0.137908935546875,-0.04705810546875
1751013743763094800,8.6480947265625,-1.0206451416015625,-0.1409912109375,-0.044036865234375
1751013743773038800,8.658038818359374,-1.0221710205078125,-0.14215087890625,-0.0456695556640625
1751013743782982000,8.66798193359375,-1.0184173583984375,-0.1429595947265625,-0.0445556640625
1751013743792926000,8.677926025390626,-1.01220703125,-0.1451416015625,-0.0415802001953125
1751013743802868700,8.68786865234375,-1.0072174072265625,-0.1458740234375,-0.0383453369140625
1751013743812811800,8.697811767578125,-1.0025634765625,-0.146087646484375,-0.04046630859375
1751013743822756000,8.707756103515624,-0.998260498046875,-0.1436920166015625,-0.0418243408203125
1751013743832699100,8.71769921875,-0.9937896728515625,-0.1392059326171875,-0.0330657958984375
1751013743842643000,8.727642822265626,-0.9886474609375,-0.1382293701171875,-0.0340728759765625
1751013743852586000,8.7375859375,-0.9839019775390625,-0.13934326171875,-0.0350494384765625
1751013743862529000,8.747529052734375,-0.9777679443359375,-0.14093017578125,-0.0380096435546875
1751013743872473000,8.75747314453125,-0.9709930419921875,-0.1444244384765625,-0.0421905517578125
1751013743882416000,8.767416015625,-0.9672698974609375,-0.1492767333984375,-0.0417327880859375
1751013743892360000,8.77735986328125,-0.965972900390625,-0.1589813232421875,-0.0347442626953125
1751013743902303000,8.787302978515624,-0.9680023193359375,-0.170166015625,-0.0272369384765625
1751013743912246000,8.79724609375,-0.9730682373046875,-0.17413330078125,-0.0124664306640625
1751013743922189800,8.80718994140625,-0.9745635986328125,-0.1741485595703125,-0.0075225830078125
1751013743932132900,8.8171328125,-0.9791412353515625,-0.172576904296875,-0.00244140625
1751013743942077000,8.827076904296876,-0.9911651611328125,-0.1688385009765625,0.0041351318359375
1751013743952020000,8.83702001953125,-1.005096435546875,-0.1600494384765625,0.0067596435546875
1751013743961963000,8.846962890625,-1.022674560546875,-0.1478271484375,0.0009613037109375
1751013743971906800,8.85690673828125,-1.04278564453125,-0.1398162841796875,-0.0036773681640625
1751013743981849900,8.866849853515625,-1.052825927734375,-0.132568359375,-0.014190673828125
1751013743991794000,8.8767939453125,-1.0578460693359375,-0.130096435546875,-0.026092529296875
1751013744001737000,8.886737060546874,-1.0604705810546875,-0.13214111328125,-0.0303802490234375
1751013744011680000,8.896679931640625,-1.063018798828125,-0.1293792724609375,-0.0253753662109375
1751013744021623800,8.906623779296876,-1.05926513671875,-0.1239471435546875,-0.0214385986328125
1751013744031566800,8.91656689453125,-1.050750732421875,-0.1204986572265625,-0.013580322265625
1751013744041511200,8.92651123046875,-1.0385894775390625,-0.125,-0.00927734375
1751013744051454000,8.936453857421874,-1.0267791748046875,-0.131561279296875,-0.006866455078125
1751013744061396700,8.946396728515625,-1.01416015625,-0.136688232421875,0.0000152587890625
1751013744071341000,8.956341064453126,-1.003570556640625,-0.1456298828125,0.0010223388671875
1751013744081284000,8.9662841796875,-0.996368408203125,-0.15228271484375,-0.0046844482421875
1751013744091228000,8.976227783203125,-0.994384765625,-0.158294677734375,-0.0080413818359375
1751013744101171000,8.9861708984375,-0.9900970458984375,-0.1651611328125,-0.00958251953125
1751013744111114000,8.996114013671875,-0.98211669921875,-0.1720428466796875,-0.01751708984375
1751013744121058000,9.00605810546875,-0.9786834716796875,-0.1763153076171875,-0.022430419921875
1751013744131001000,9.0160009765625,-0.9753875732421875,-0.1778411865234375,-0.0200042724609375
1751013744140945000,9.02594482421875,-0.97064208984375,-0.179901123046875,-0.020477294921875
1751013744150888000,9.035887939453126,-0.966278076171875,-0.18017578125,-0.019805908203125
1751013744160831000,9.0458310546875,-0.9677581787109375,-0.178375244140625,-0.01849365234375
1751013744170775000,9.055775146484375,-0.9764404296875,-0.171112060546875,-0.0098114013671875
1751013744180717800,9.0657177734375,-0.9832000732421875,-0.162689208984375,-0.0064544677734375
1751013744190662000,9.075661865234375,-0.985198974609375,-0.155120849609375,-0.0069427490234375
1751013744200605000,9.08560498046875,-0.9893798828125,-0.14276123046875,-0.0062408447265625
1751013744210549000,9.095549072265625,-0.9947052001953125,-0.1329498291015625,-0.00616455078125
1751013744220491800,9.10549169921875,-0.9999237060546875,-0.1258392333984375,-0.0033416748046875
1751013744230434800,9.115434814453126,-1.00274658203125,-0.1222076416015625,-0.0018463134765625
1751013744240379000,9.12537890625,-1.002197265625,-0.1236724853515625,-0.002777099609375
1751013744250322000,9.135322021484376,-1.0025787353515625,-0.1244659423828125,-0.001983642578125
1751013744260266000,9.145265869140625,-0.99920654296875,-0.12554931640625,-0.00177001953125
1751013744270208800,9.155208740234375,-0.9950408935546875,-0.1273040771484375,-0.0020599365234375
1751013744280151800,9.16515185546875,-0.9935150146484375,-0.12939453125,-0.002716064453125
1751013744290096000,9.17509619140625,-0.9875640869140625,-0.1357421875,-0.0067596435546875
1751013744300039200,9.1850390625,-0.9839630126953125,-0.14093017578125,-0.0116729736328125
1751013744309983000,9.19498291015625,-0.9819793701171875,-0.148651123046875,-0.023284912109375
1751013744319926000,9.204926025390625,-0.9830169677734375,-0.1555023193359375,-0.0194854736328125
1751013744329869000,9.214869140625,-0.983306884765625,-0.1611785888671875,-0.0213165283203125
1751013744339813000,9.224813232421875,-0.9893646240234375,-0.1641082763671875,-0.02197265625
1751013744349756000,9.234755859375,-0.993988037109375,-0.1602783203125,-0.0174102783203125
1751013744359700000,9.244699951171874,-0.9912567138671875,-0.157806396484375,-0.0255584716796875
1751013744369643000,9.25464306640625,-0.9935760498046875,-0.1541748046875,-0.031524658203125
1751013744379586000,9.2645859375,-0.9966583251953125,-0.1481781005859375,-0.0322113037109375
1751013744389529900,9.27452978515625,-0.99798583984375,-0.142730712890625,-0.029327392578125
1751013744399473000,9.284472900390625,-0.9991455078125,-0.1402740478515625,-0.024383544921875
1751013744409417000,9.2944169921875,-0.998443603515625,-0.1421051025390625,-0.022674560546875
1751013744419360000,9.304360107421875,-0.996368408203125,-0.1433563232421875,-0.02117919921875
1751013744429303000,9.314302978515625,-0.9960784912109375,-0.146209716796875,-0.0182952880859375
1751013744439246800,9.324246826171875,-0.9991455078125,-0.1476287841796875,-0.0159912109375
1751013744449190000,9.33418994140625,-1.001373291015625,-0.151763916015625,-0.01324462890625
1751013744459134000,9.344134033203124,-1.00225830078125,-0.1556854248046875,-0.0107269287109375
1751013744469077000,9.354076904296875,-1.001983642578125,-0.1571807861328125,-0.007537841796875
1751013744479019800,9.364019775390625,-1.0062103271484375,-0.1578521728515625,-0.0084075927734375
1751013744488963800,9.3739638671875,-1.015289306640625,-0.1572723388671875,-0.0086212158203125
1751013744498907000,9.383906982421875,-1.0210113525390625,-0.1576385498046875,-0.00653076171875
1751013744508851000,9.393850830078126,-1.0245819091796875,-0.158843994140625,-0.0081634521484375
1751013744518794000,9.4037939453125,-1.02813720703125,-0.15985107421875,-0.00848388671875
1751013744528738000,9.413738037109376,-1.0293426513671875,-0.1590576171875,-0.0114898681640625
1751013744538681000,9.42368115234375,-1.029266357421875,-0.1601104736328125,-0.012237548828125
1751013744548624100,9.4336240234375,-1.0233917236328125,-0.163299560546875,-0.013336181640625
1751013744558568000,9.44356787109375,-1.0183868408203125,-0.1666107177734375,-0.0178680419921875
1751013744568511000,9.453510986328125,-1.0166778564453125,-0.1707000732421875,-0.021728515625
1751013744578455000,9.463455078125,-1.008331298828125,-0.1781158447265625,-0.0242919921875
1751013744588398000,9.473398193359374,-0.997467041015625,-0.1832733154296875,-0.032196044921875
1751013744598340900,9.4833408203125,-0.9949798583984375,-0.1857147216796875,-0.027984619140625
1751013744608285000,9.493284912109376,-0.991943359375,-0.183807373046875,-0.0225830078125
1751013744618228000,9.50322802734375,-0.9974822998046875,-0.1719818115234375,-0.013763427734375
1751013744628172000,9.513172119140625,-0.9958953857421875,-0.1568756103515625,-0.0035400390625
1751013744638114800,9.52311474609375,-0.992340087890625,-0.1478424072265625,-0.0013885498046875
1751013744648057300,9.533057373046875,-0.9810028076171875,-0.1426239013671875,-0.0215301513671875
1751013744658001700,9.543001708984375,-0.9811553955078125,-0.144256591796875,-0.0501556396484375
1751013744667944700,9.55294482421875,-0.9840545654296875,-0.1489410400390625,-0.062164306640625
1751013744677888500,9.562888427734375,-0.9840087890625,-0.1578826904296875,-0.0637969970703125
1751013744687831600,9.57283154296875,-0.9874114990234375,-0.16607666015625,-0.0624237060546875
1751013744697774600,9.582774658203125,-0.9913787841796875,-0.172332763671875,-0.0651702880859375
1751013744707718700,9.59271875,-0.993804931640625,-0.1757965087890625,-0.071441650390625
1751013744717661700,9.60266162109375,-0.9930572509765625,-0.1778717041015625,-0.0702972412109375
1751013744727605500,9.61260546875,-0.994232177734375,-0.174224853515625,-0.0627593994140625
1751013744737548500,9.622548583984376,-0.9953765869140625,-0.1665191650390625,-0.05462646484375
1751013744747491600,9.63249169921875,-0.996978759765625,-0.15728759765625,-0.0511322021484375
1751013744757435600,9.642435546875,-0.9951171875,-0.1525726318359375,-0.0545501708984375
1751013744767378700,9.652378662109374,-0.9963226318359375,-0.154266357421875,-0.05694580078125
1751013744777322500,9.662322509765625,-1.0008087158203125,-0.1558074951171875,-0.058624267578125
1751013744787265500,9.672265625,-1.004364013671875,-0.1582794189453125,-0.0628662109375
1751013744797208600,9.68220849609375,-1.0052032470703125,-0.1628265380859375,-0.0652618408203125
1751013744807152400,9.69215234375,-1.0037994384765625,-0.1679840087890625,-0.0667724609375
1751013744817095400,9.702095458984376,-1.002777099609375,-0.173980712890625,-0.0640106201171875
1751013744827039500,9.71203955078125,-1.00421142578125,-0.17889404296875,-0.0593414306640625
1751013744836982500,9.721982421875,-1.007843017578125,-0.1770477294921875,-0.053802490234375
1751013744846925600,9.731925537109374,-1.0110931396484375,-0.1730804443359375,-0.045867919921875
1751013744856869400,9.741869384765625,-1.007904052734375,-0.1697845458984375,-0.04412841796875
1751013744866812400,9.7518125,-1.00482177734375,-0.1675567626953125,-0.0469512939453125
1751013744876756700,9.7617568359375,-1.00762939453125,-0.1642303466796875,-0.049713134765625
1751013744886699800,9.77169970703125,-1.0113677978515625,-0.1613311767578125,-0.047210693359375
1751013744896642600,9.781642578125,-1.0105438232421875,-0.159088134765625,-0.0435943603515625
1751013744906586600,9.791586669921875,-1.005126953125,-0.1607208251953125,-0.0447845458984375
1751013744916529700,9.80152978515625,-1.005584716796875,-0.163726806640625,-0.0473175048828125
1751013744926473700,9.8114736328125,-1.00311279296875,-0.1638641357421875,-0.0468902587890625
1751013744936416500,9.82141650390625,-1.0037078857421875,-0.1625213623046875,-0.039306640625
1751013744946360600,9.831360595703124,-0.999603271484375,-0.1636962890625,-0.03106689453125
1751013744956303600,9.8413037109375,-0.996063232421875,-0.1661376953125,-0.0290679931640625
1751013744966246700,9.85124658203125,-0.99664306640625,-0.1693267822265625,-0.0298309326171875
1751013744976190500,9.8611904296875,-1.0014190673828125,-0.1719512939453125,-0.031219482421875
1751013744986133500,9.871133544921875,-1.00311279296875,-0.1713104248046875,-0.0284271240234375
1751013744996077600,9.88107763671875,-1.00042724609375,-0.167694091796875,-0.02935791015625
1751013745006020600,9.8910205078125,-1.00048828125,-0.1654510498046875,-0.0307769775390625
1751013745015963600,9.900963623046875,-1.0008544921875,-0.168731689453125,-0.0305633544921875
1751013745025907500,9.910907470703124,-0.9997711181640625,-0.16986083984375,-0.03155517578125
1751013745035850500,9.9208505859375,-1.002197265625,-0.17022705078125,-0.0322723388671875
1751013745045794600,9.930794677734376,-1.0041961669921875,-0.17205810546875,-0.0276336669921875
1751013745055737600,9.940737548828125,-1.0037078857421875,-0.1712188720703125,-0.0189056396484375
1751013745065680400,9.950680419921875,-1.0025177001953125,-0.1700439453125,-0.014251708984375
1751013745075624400,9.96062451171875,-1.003631591796875,-0.16937255859375,-0.01531982421875
1751013745085567500,9.9705673828125,-1.0082550048828125,-0.1675262451171875,-0.0133819580078125
1751013745095511600,9.980511474609376,-1.0041046142578125,-0.1672210693359375,-0.0135040283203125
1751013745105454600,9.99045458984375,-1.001251220703125,-0.16668701171875,-0.01531982421875
1751013745115397600,10.000397705078125,-1.0005340576171875,-0.165924072265625,-0.012969970703125
1751013745125341700,10.010341796875,-0.9987945556640625,-0.16351318359375,-0.0122833251953125
1751013745135284700,10.02028466796875,-0.9968414306640625,-0.1610107421875,-0.009918212890625
1751013745145228500,10.030228515625,-0.993865966796875,-0.1581268310546875,-0.01214599609375
1751013745155171600,10.040171630859374,-0.99334716796875,-0.1584320068359375,-0.01605224609375
1751013745165114600,10.050114501953125,-0.99554443359375,-0.1605682373046875,-0.020843505859375
1751013745175058700,10.06005859375,-0.999420166015625,-0.1637420654296875,-0.0286102294921875
1751013745185001700,10.070001708984375,-1.0033416748046875,-0.16876220703125,-0.03424072265625
1751013745194945500,10.079945556640626,-1.0034332275390625,-0.1746063232421875,-0.0359039306640625
1751013745204888600,10.089888671875,-0.999603271484375,-0.1792449951171875,-0.0342559814453125
1751013745214831600,10.09983154296875,-0.9961090087890625,-0.17950439453125,-0.0308380126953125
1751013745224775700,10.109775634765626,-0.9967498779296875,-0.1774749755859375,-0.0286407470703125
1751013745234718500,10.119718505859375,-0.998077392578125,-0.17401123046875,-0.02655029296875
1751013745244662500,10.12966259765625,-0.99725341796875,-0.1736907958984375,-0.0233917236328125
1751013745254605600,10.13960546875,-0.9982757568359375,-0.1699676513671875,-0.024200439453125
1751013745264548600,10.149548583984375,-1.0001678466796875,-0.164520263671875,-0.0264434814453125
1751013745274492400,10.159492431640626,-1.0038299560546875,-0.1626434326171875,-0.02899169921875
1751013745284435500,10.169435546875,-1.0061187744140625,-0.1612396240234375,-0.023834228515625
1751013745294379500,10.179379638671875,-1.0045928955078125,-0.1575469970703125,-0.014923095703125
1751013745304322600,10.189322509765624,-1.0024871826171875,-0.1560211181640625,-0.006103515625
1751013745314266600,10.1992666015625,-0.99505615234375,-0.1585693359375,-0.0136871337890625
1751013745324209700,10.209209716796876,-0.99444580078125,-0.1624298095703125,-0.0167388916015625
1751013745334152400,10.21915234375,-0.9932403564453125,-0.1654510498046875,-0.01641845703125
1751013745344096800,10.2290966796875,-0.992889404296875,-0.169708251953125,-0.0180511474609375
1751013745354039600,10.23903955078125,-0.9953765869140625,-0.170562744140625,-0.0106353759765625
1751013745363983600,10.248983642578125,-0.99481201171875,-0.1699371337890625,-0.0098724365234375
1751013745373926700,10.2589267578125,-0.9989013671875,-0.171234130859375,-0.0102996826171875
1751013745383869700,10.26886962890625,-1.0001220703125,-0.170867919921875,-0.0115509033203125
1751013745393813500,10.2788134765625,-0.9998016357421875,-0.1697540283203125,-0.0141143798828125
1751013745403756500,10.288756591796876,-1.0042572021484375,-0.1669158935546875,-0.0133056640625
1751013745413700600,10.29870068359375,-1.0039520263671875,-0.1640472412109375,-0.01092529296875
1751013745423643600,10.3086435546875,-1.0057830810546875,-0.1617431640625,-0.0105133056640625
1751013745433586700,10.318586669921874,-1.007476806640625,-0.1618194580078125,-0.0101470947265625
1751013745443530500,10.328530517578125,-1.0053253173828125,-0.1671295166015625,-0.0161895751953125
1751013745453473500,10.3384736328125,-1.0057220458984375,-0.1689300537109375,-0.021820068359375
1751013745463417600,10.34841748046875,-1.0086212158203125,-0.171661376953125,-0.0223846435546875
1751013745473360600,10.358360595703125,-1.0132598876953125,-0.1721343994140625,-0.02252197265625
1751013745483303400,10.368303466796876,-1.0088653564453125,-0.171295166015625,-0.02130126953125
1751013745493247500,10.37824755859375,-1.0018310546875,-0.174346923828125,-0.0206146240234375
1751013745503190500,10.3881904296875,-1.0039215087890625,-0.1759490966796875,-0.0245208740234375
1751013745513134600,10.398134521484375,-0.9985809326171875,-0.1746368408203125,-0.0213470458984375
1751013745523077400,10.408077392578125,-0.9925079345703125,-0.1746978759765625,-0.0275115966796875
1751013745533020400,10.4180205078125,-0.9929656982421875,-0.1721038818359375,-0.0225067138671875
1751013745542964700,10.42796484375,-0.9947357177734375,-0.1665802001953125,-0.0178070068359375
1751013745552907500,10.437907470703125,-1.001007080078125,-0.1629638671875,-0.0156402587890625
1751013745562851600,10.4478515625,-1.0084991455078125,-0.161285400390625,-0.013336181640625
1751013745572794600,10.457794677734375,-1.001495361328125,-0.1641998291015625,-0.0191192626953125
1751013745582737700,10.467737548828126,-0.997100830078125,-0.1712493896484375,-0.0245208740234375
1751013745592681700,10.477681640625,-1.00238037109375,-0.16943359375,-0.018157958984375
1751013745602624800,10.487624755859375,-1.00128173828125,-0.1651763916015625,-0.0091400146484375
1751013745612568600,10.497568603515624,-0.988739013671875,-0.166656494140625,-0.0092010498046875
1751013745622511600,10.50751171875,-0.9837188720703125,-0.17181396484375,-0.01995849609375
1751013745632455700,10.51745556640625,-0.993804931640625,-0.169189453125,-0.0187530517578125
1751013745642398700,10.527398681640625,-0.993988037109375,-0.1644287109375,-0.01953125
1751013745652341500,10.537341552734375,-0.98486328125,-0.167022705078125,-0.02874755859375
1751013745662285800,10.547285888671874,-0.9868621826171875,-0.17169189453125,-0.0281829833984375
1751013745672228900,10.557228759765625,-0.9926605224609375,-0.1724395751953125,-0.0223236083984375
1751013745682172700,10.567172607421876,-0.995941162109375,-0.172698974609375,-0.0149078369140625
1751013745692115700,10.57711572265625,-0.992156982421875,-0.1745758056640625,-0.0101470947265625
1751013745702058800,10.587058837890625,-0.9933319091796875,-0.173187255859375,-0.007171630859375
1751013745712002800,10.5970029296875,-1.0015106201171875,-0.1660308837890625,-0.0097503662109375
1751013745721945900,10.60694580078125,-1.003875732421875,-0.157318115234375,-0.0159759521484375
1751013745731889700,10.6168896484375,-1.0022735595703125,-0.1536407470703125,-0.024139404296875
1751013745741832700,10.626832763671874,-1.00433349609375,-0.15594482421875,-0.0306396484375
1751013745751775700,10.636775634765625,-1.0068511962890625,-0.15972900390625,-0.0361785888671875
1751013745761719800,10.6467197265625,-1.0074615478515625,-0.16131591796875,-0.035308837890625
1751013745771662600,10.65666259765625,-1.0050048828125,-0.1636810302734375,-0.0339202880859375
1751013745781606700,10.666606689453126,-1.0032501220703125,-0.167694091796875,-0.0313568115234375
1751013745791549700,10.6765498046875,-1.00189208984375,-0.173187255859375,-0.0308685302734375
1751013745801492700,10.68649267578125,-0.996826171875,-0.17694091796875,-0.0262298583984375
1751013745811436500,10.6964365234375,-0.9947509765625,-0.1785736083984375,-0.0242462158203125
1751013745821379600,10.706379638671875,-0.997528076171875,-0.177032470703125,-0.0259246826171875
1751013745831323600,10.71632373046875,-0.9967498779296875,-0.1725921630859375,-0.023590087890625
1751013745841266700,10.7262666015625,-0.9954681396484375,-0.1687774658203125,-0.0249786376953125
1751013745851209700,10.736209716796875,-0.9966583251953125,-0.16680908203125,-0.0263671875
1751013745861153500,10.746153564453126,-0.995513916015625,-0.1658782958984375,-0.028350830078125
1751013745871096600,10.7560966796875,-0.991424560546875,-0.1676483154296875,-0.0360870361328125
1751013745881041000,10.766041015625,-0.9946746826171875,-0.1708221435546875,-0.0395355224609375
1751013745890984000,10.77598388671875,-0.9990234375,-0.16986083984375,-0.035003662109375
1751013745900926500,10.785926513671875,-0.997100830078125,-0.170867919921875,-0.0289154052734375
1751013745910870800,10.795870849609376,-0.993896484375,-0.174346923828125,-0.0269927978515625
1751013745920813800,10.805813720703124,-0.9937896728515625,-0.1756439208984375,-0.0291748046875
1751013745930758000,10.8157578125,-0.9933319091796875,-0.168914794921875,-0.0249786376953125
1751013745940700700,10.82570068359375,-0.992279052734375,-0.1620025634765625,-0.017059326171875
1751013745950643700,10.835643798828125,-0.9936676025390625,-0.15936279296875,-0.0192413330078125
1751013745960587800,10.845587890625,-0.991851806640625,-0.1630401611328125,-0.0189361572265625
1751013745970530800,10.85553076171875,-0.990875244140625,-0.167266845703125,-0.025238037109375
1751013745980474600,10.865474609375,-0.9941558837890625,-0.167388916015625,-0.025299072265625
1751013745990417700,10.875417724609376,-0.9977874755859375,-0.168212890625,-0.0211029052734375
1751013746000361700,10.88536181640625,-0.999298095703125,-0.1725311279296875,-0.02130126953125
1751013746010304800,10.8953046875,-1.0041656494140625,-0.1752777099609375,-0.02264404296875
1751013746020247800,10.905247802734374,-1.0065155029296875,-0.1748199462890625,-0.02801513671875
1751013746030191600,10.915191650390625,-1.0053558349609375,-0.1741790771484375,-0.0348968505859375
1751013746040134700,10.925134765625,-1.0070343017578125,-0.1728973388671875,-0.036773681640625
1751013746050078700,10.93507861328125,-1.006317138671875,-0.17218017578125,-0.031890869140625
1751013746060021800,10.945021728515625,-1.0012359619140625,-0.1694793701171875,-0.0263214111328125
1751013746069964500,10.954964599609376,-0.99798583984375,-0.166839599609375,-0.0229644775390625
1751013746079908600,10.96490869140625,-1.001983642578125,-0.165069580078125,-0.017913818359375
1751013746089851600,10.9748515625,-1.00543212890625,-0.1649627685546875,-0.0142059326171875
1751013746099795700,10.984795654296875,-1.0016632080078125,-0.1664581298828125,-0.0151214599609375
1751013746109738500,10.994738525390625,-1.003082275390625,-0.166290283203125,-0.0214691162109375
1751013746119681500,11.004681640625,-1.0067138671875,-0.1676177978515625,-0.0273895263671875
1751013746129625900,11.0146259765625,-1.0092010498046875,-0.168426513671875,-0.023956298828125
1751013746139569000,11.02456884765625,-1.012481689453125,-0.1672821044921875,-0.018707275390625
1751013746149512700,11.0345126953125,-1.0110626220703125,-0.16552734375,-0.020904541015625
1751013746159455700,11.044455810546875,-1.008880615234375,-0.166412353515625,-0.0251007080078125
1751013746169398800,11.054398681640626,-1.008026123046875,-0.1681365966796875,-0.0297393798828125
1751013746179342800,11.0643427734375,-1.005279541015625,-0.166717529296875,-0.0334930419921875
1751013746189285600,11.07428564453125,-0.9995574951171875,-0.16845703125,-0.033172607421875
1751013746199229700,11.084229736328124,-0.9910736083984375,-0.1712646484375,-0.0260772705078125
1751013746209172700,11.0941728515625,-0.97991943359375,-0.174591064453125,-0.0159454345703125
1751013746219115800,11.10411572265625,-0.968902587890625,-0.1774444580078125,-0.011627197265625
1751013746229059600,11.1140595703125,-0.946685791015625,-0.1751861572265625,0.0018310546875
1751013746239002600,11.124002685546875,-0.9559326171875,-0.1629486083984375,0.0317230224609375
1751013746248946700,11.13394677734375,-1.0511322021484375,-0.1650848388671875,0.0253753662109375
1751013746258889700,11.1438896484375,-1.000152587890625,-0.15753173828125,-0.0098114013671875
1751013746268832800,11.153832763671875,-0.968475341796875,-0.1492919921875,-0.034820556640625
1751013746278776600,11.163776611328124,-0.997283935546875,-0.162078857421875,-0.034881591796875
