time,seconds_elapsed,z,y,x
1751013907645476400,0.114476318359375,0.07588783651590347,0.08781453967094421,0.2013128697872162
1751013907655419400,0.12441943359375,0.07803674787282944,0.10260467231273651,0.18639864027500153
1751013907665363200,0.13436328125,0.0807744711637497,0.11600995808839798,0.16509494185447693
1751013907675306200,0.14430615234375,0.07213438302278519,0.1203698217868805,0.1318991780281067
1751013907685250300,0.154250244140625,0.040825195610523224,0.11209698021411896,0.07036896795034409
1751013907695193300,0.164193359375,0.0041558630764484406,0.09614810347557068,-0.00959536898881197
1751013907705137400,0.174137451171875,-0.036016590893268585,0.06568820029497147,-0.09521626681089401
1751013907715080400,0.18408056640625,-0.06577661633491516,0.03166045621037483,-0.14425384998321533
1751013907725024500,0.1940244140625,-0.07943863421678543,0.008825981989502907,-0.14714257419109344
1751013907734967600,0.203967529296875,-0.07748334109783173,-0.009978331625461578,-0.11416998505592346
1751013907744911400,0.213911376953125,-0.0684264600276947,-0.02160702459514141,-0.061350442469120026
1751013907754854400,0.2238544921875,-0.054478686302900314,-0.013448962941765785,-0.0009379653492942452
1751013907764798500,0.233798583984375,-0.02792350947856903,0.020299145951867104,0.06021327152848244
1751013907774741500,0.243741455078125,0.014134461060166359,0.06450149416923523,0.11687947809696198
1751013907784685300,0.253685302734375,0.0691726803779602,0.10600419342517853,0.17452333867549896
1751013907794628400,0.26362841796875,0.12224255502223969,0.14926351606845856,0.22113610804080963
1751013907804572700,0.27357275390625,0.13657036423683167,0.1828497052192688,0.2165088653564453
1751013907814515700,0.283515625,0.11431645601987839,0.18502098321914673,0.14417022466659546
1751013907824459500,0.29345947265625,0.06125323846936226,0.1467665433883667,0.03761022537946701
1751013907834402600,0.303402587890625,-0.0014266553334891796,0.0928814709186554,-0.07141213119029999
1751013907844346600,0.3133466796875,-0.058821771293878555,0.0480322390794754,-0.14057868719100952
1751013907854289400,0.323289306640625,-0.08886995166540146,0.014771755784749985,-0.1625359207391739
1751013907864233500,0.3332333984375,-0.08561130613088608,-0.009760218672454357,-0.14033128321170807
1751013907874176500,0.343176513671875,-0.04619812220335007,-0.0231721643358469,-0.08351460099220276
1751013907884120600,0.35312060546875,0.00452897185459733,-0.009790578857064247,0.0012146678054705262
1751013907894063400,0.3630634765625,0.05414232984185219,0.01824132166802883,0.07819094508886337
1751013907904007400,0.37300732421875,0.10408991575241089,0.04790254309773445,0.13837997615337372
1751013907913950500,0.382950439453125,0.15139298141002655,0.07376690208911896,0.1738050878047943
1751013907923894500,0.39289453125,0.1935500204563141,0.09424687176942825,0.19761614501476288
1751013907933837300,0.40283740234375,0.23203855752944946,0.10833366215229034,0.20469854772090912
1751013907943781600,0.41278173828125,0.2507334053516388,0.1182376965880394,0.1961125135421753
1751013907953724700,0.422724609375,0.2527121603488922,0.12430331110954285,0.17384769022464752
1751013907963668500,0.43266845703125,0.24505609273910522,0.14323492348194122,0.13270345330238342
1751013907973611500,0.442611572265625,0.23903308808803558,0.18510301411151886,0.06838784366846085
1751013907983555600,0.4525556640625,0.2693427801132202,0.21519246697425842,0.003605121048167348
1751013907993498600,0.46249853515625,0.308214008808136,0.22386318445205688,-0.03791116178035736
1751013908003442400,0.4724423828125,0.3409125804901123,0.2135295867919922,-0.03948589041829109
1751013908013385500,0.482385498046875,0.3420521318912506,0.2044258415699005,-0.019113507121801376
1751013908023329500,0.49232958984375,0.2977057099342346,0.2058575600385666,-0.0057007623836398125
1751013908033272600,0.5022724609375,0.21758371591567993,0.19282297790050507,-0.016764864325523376
1751013908043216400,0.51221630859375,0.11414601653814316,0.1814294457435608,-0.032595228403806686
1751013908053159400,0.522159423828125,-0.00024714134633541107,0.17778171598911285,-0.07717574387788773
1751013908063103500,0.532103515625,-0.11535109579563141,0.16419640183448792,-0.14359897375106812
1751013908073046500,0.542046630859375,-0.2094685435295105,0.12454086542129517,-0.20798009634017944
1751013908082990300,0.551990234375,-0.26701173186302185,0.06591882556676865,-0.2476806342601776
1751013908092933400,0.561933349609375,-0.28893858194351196,0.0031398669816553593,-0.2486569583415985
1751013908102877700,0.571877685546875,-0.28445303440093994,-0.054617173969745636,-0.22424349188804626
1751013908112820700,0.58182080078125,-0.251982718706131,-0.103669673204422,-0.18218445777893066
1751013908122764500,0.5917646484375,-0.20106253027915955,-0.13208666443824768,-0.1340334415435791
1751013908132707600,0.60170751953125,-0.1387845128774643,-0.14564988017082214,-0.0799049511551857
1751013908142651600,0.611651611328125,-0.07260895520448685,-0.1357724815607071,-0.04187368229031563
1751013908152594700,0.6215947265625,-0.020850153639912605,-0.10926470160484314,-0.032703619450330734
1751013908162538500,0.63153857421875,-0.0006756439688615501,-0.08231990784406662,-0.06071261689066887
1751013908172481500,0.6414814453125,0.015106248669326305,-0.050946272909641266,-0.10469046235084534
1751013908182425600,0.651425537109375,0.019696472212672234,-0.00965555664151907,-0.14282958209514618
1751013908192368400,0.661368408203125,0.01906423829495907,0.03623843193054199,-0.1736476868391037
1751013908202312400,0.6713125,0.006991596892476082,0.056704290211200714,-0.19765982031822205
1751013908212255500,0.68125537109375,-0.0070395334623754025,0.05493515357375145,-0.19670799374580383
1751013908222199600,0.691199462890625,-0.02466992661356926,0.03665841370820999,-0.18000997602939606
1751013908232142300,0.701142333984375,-0.045460958033800125,0.006376939360052347,-0.13704733550548553
1751013908242086400,0.71108642578125,-0.07685057073831558,-0.029272135347127914,-0.08243069052696228
1751013908252029400,0.721029541015625,-0.09838675707578659,-0.06873086094856262,-0.01823066920042038
1751013908261973500,0.730973388671875,-0.11048629879951477,-0.08785342425107956,0.04222521930932999
1751013908271916500,0.74091650390625,-0.1097792312502861,-0.06861528009176254,0.09501732885837555
1751013908281860600,0.750860595703125,-0.10014284402132034,-0.03606719151139259,0.11831466108560562
1751013908291803600,0.7608037109375,-0.07947485148906708,-0.0046847667545080185,0.11333215236663818
1751013908301747500,0.77074755859375,-0.060211941599845886,0.02363874949514866,0.07776190340518951
1751013908311690500,0.7806904296875,-0.042393263429403305,0.046432480216026306,0.03646160289645195
1751013908321634600,0.790634521484375,-0.02165629342198372,0.07251015305519104,-0.0034224283881485462
1751013908331577600,0.80057763671875,-0.0067777447402477264,0.0803997665643692,-0.033605098724365234
1751013908341521400,0.810521484375,0.004372910596430302,0.08417479693889618,-0.04746312275528908
1751013908351464400,0.82046435546875,0.01134213712066412,0.08217716217041016,-0.046551257371902466
1751013908361408500,0.830408447265625,0.018038121983408928,0.07768414169549942,-0.024507474154233932
1751013908371351600,0.8403515625,0.029871346428990364,0.07828362286090851,0.004495149478316307
1751013908381295400,0.85029541015625,0.03995194286108017,0.07736136764287949,0.03356621414422989
1751013908391238400,0.86023828125,0.054373759776353836,0.07242732495069504,0.06668209284543991
1751013908401182500,0.870182373046875,0.06018957123160362,0.06354115903377533,0.09445460140705109
1751013908411125500,0.88012548828125,0.06185165047645569,0.05245655030012131,0.12236985564231873
1751013908421069600,0.890069580078125,0.05951818823814392,0.03134940192103386,0.14009079337120056
1751013908431012600,0.9000126953125,0.058282479643821716,-0.0014530207263305783,0.15761598944664001
1751013908440956700,0.909956787109375,0.06413983553647995,-0.03214302286505699,0.17100822925567627
1751013908450899700,0.919899658203125,0.07597173005342484,-0.06358350068330765,0.18593497574329376
1751013908460843500,0.929843505859375,0.08234786987304688,-0.08441128581762314,0.1930283159017563
1751013908470786600,0.93978662109375,0.0793941542506218,-0.08575298637151718,0.1937878429889679
1751013908480730600,0.949730712890625,0.07568730413913727,-0.06664001196622849,0.1808030754327774
1751013908490673700,0.959673583984375,0.07249443978071213,-0.0403042808175087,0.1560196876525879
1751013908500617500,0.969617431640625,0.053287722170352936,-0.021888254210352898,0.10163821280002594
1751013908510560500,0.979560546875,0.028963740915060043,-0.007278951816260815,0.023727966472506523
1751013908520504600,0.989504638671875,0.006016613449901342,0.0021752698812633753,-0.0480322390794754
1751013908530447400,0.999447265625,-0.004740693140774965,0.023242205381393433,-0.09746530652046204
1751013908540391400,1.009391357421875,-0.009023322723805904,0.04772091656923294,-0.11930987983942032
1751013908550334500,1.01933447265625,-0.006013950332999229,0.07861252129077911,-0.10637171566486359
1751013908560278500,1.029278564453125,0.007536745630204678,0.09874308854341507,-0.07724205404520035
1751013908570221300,1.03922119140625,0.02311437390744686,0.10593468695878983,-0.03839399293065071
1751013908580165600,1.04916552734375,0.03918788209557533,0.10151410847902298,-0.004551874939352274
1751013908590108700,1.059108642578125,0.05664330720901489,0.10206138342618942,0.015722237527370453
1751013908600052500,1.069052490234375,0.0704382136464119,0.08639667183160782,0.024704014882445335
1751013908609995500,1.07899560546875,0.072439044713974,0.06431134790182114,0.02275111898779869
1751013908619939600,1.088939697265625,0.06445489078760147,0.04490302503108978,0.01841096580028534
1751013908629882600,1.098882568359375,0.0509052574634552,0.028196217492222786,0.010146111249923706
1751013908639826400,1.108826416015625,0.038604382425546646,0.023787621408700943,0.0008527441532351077
1751013908649769500,1.11876953125,0.026280872523784637,0.02046506106853485,-0.006470948923379183
1751013908659713500,1.128713623046875,0.016220781952142715,0.01919819600880146,-0.013519004918634892
1751013908669656600,1.138656494140625,0.007348726503551006,0.021868281066417694,-0.021512215957045555
1751013908679600400,1.148600341796875,0.011720305308699608,0.033553432673215866,-0.012537362985312939
1751013908689544400,1.15854443359375,0.025835592299699783,0.05265175923705101,0.003013899317011237
1751013908699487500,1.168487548828125,0.04615391418337822,0.06931782513856888,0.019338011741638184
1751013908709431300,1.178431396484375,0.05492663010954857,0.0781019926071167,0.02732030488550663
1751013908719374300,1.188374267578125,0.06703655421733856,0.07289204746484756,0.020596887916326523
1751013908729318700,1.198318603515625,0.07268033176660538,0.06303968280553818,0.0024378576781600714
1751013908739261700,1.20826171875,0.06841261684894562,0.05199822038412094,-0.02581135742366314
1751013908749205500,1.21820556640625,0.05682546645402908,0.03768053278326988,-0.04609479010105133
1751013908759148500,1.2281484375,0.03899373859167099,0.02328135445713997,-0.05704490840435028
1751013908769092600,1.238092529296875,0.022757509723305702,0.004830441437661648,-0.04843970388174057
1751013908779035600,1.24803564453125,0.010259561240673065,-0.009094162844121456,-0.024400947615504265
1751013908788979500,1.2579794921875,0.009453688748180866,-0.013854563236236572,0.005136971361935139
1751013908798922500,1.267922607421875,0.013073191046714783,-0.013105948455631733,0.030072947964072227
1751013908808866600,1.277866455078125,0.025061678141355515,-0.0021339908707886934,0.04557041451334953
1751013908818809600,1.2878095703125,0.037880804389715195,0.007222492713481188,0.04988580197095871
1751013908828753400,1.29775341796875,0.04711451381444931,0.018624549731612206,0.03597451373934746
1751013908838696400,1.307696533203125,0.06017092987895012,0.027958396822214127,0.014067349024116993
1751013908848640500,1.317640625,0.06963047385215759,0.03354011848568916,-0.010645720176398754
1751013908858583600,1.32758349609375,0.08323416858911514,0.03849359601736069,-0.02544224262237549
1751013908868527400,1.33752734375,0.09055440127849579,0.04613607004284859,-0.034696727991104126
1751013908878470400,1.347470458984375,0.08690959960222244,0.0543186329305172,-0.04320020228624344
1751013908888414700,1.357414794921875,0.07519541680812836,0.05513222888112068,-0.05483368784189224
1751013908898357500,1.367357421875,0.05898262560367584,0.05958876013755798,-0.05850432068109512
1751013908908301600,1.377301513671875,0.0433402843773365,0.06149638444185257,-0.05397934466600418
1751013908918244600,1.38724462890625,0.0214147437363863,0.0538690909743309,-0.04007391631603241
1751013908928188700,1.397188720703125,0.00017363809456583112,0.03045590966939926,-0.02864948846399784
1751013908938131500,1.40713134765625,-0.008975918404757977,0.012161857448518276,-0.008261125534772873
1751013908948075500,1.417075439453125,-0.009631588123738766,0.00013875069271307439,0.014564561657607555
1751013908958018600,1.4270185546875,-0.009475527331233025,-0.0027475832030177116,0.018146513029932976
1751013908967962600,1.436962646484375,-0.010735468938946724,-0.0049673281610012054,0.006344448775053024
1751013908977905400,1.446905517578125,-0.00806192122399807,-0.0018807243322953582,-0.020918065682053566
1751013908987849500,1.456849365234375,-0.004689293913543224,0.010366354137659073,-0.0487411729991436
1751013908997792500,1.46679248046875,-0.00478410255163908,0.01738405041396618,-0.07734192907810211
1751013909007736300,1.476736328125,-0.009575662203133106,0.02269332855939865,-0.09424740821123123
1751013909017679400,1.486679443359375,-0.016093483194708824,0.028255872428417206,-0.10299882292747498
1751013909027623400,1.49662353515625,-0.01913800835609436,0.027844414114952087,-0.08986277878284454
1751013909037566500,1.50656640625,-0.012861203402280807,0.024053670465946198,-0.06987042725086212
1751013909047510500,1.516510498046875,-0.002139583695679903,0.02786332182586193,-0.03964727744460106
1751013909057453600,1.52645361328125,0.006444583646953106,0.02298441156744957,-0.01757393404841423
1751013909067397600,1.536397705078125,0.011235876940190792,0.014664962887763977,-0.005286640953272581
1751013909077340700,1.546340576171875,0.018151573836803436,0.007792143151164055,0.00290444353595376
1751013909087284500,1.556284423828125,0.027872910723090172,0.0073226275853812695,0.011068896390497684
1751013909097227500,1.5662275390625,0.03079865872859955,0.01050457265228033,0.006740993354469538
1751013909107171600,1.576171630859375,0.024151142686605453,0.01498081348836422,0.0006207828409969807
1751013909117114600,1.586114501953125,0.02105095610022545,0.02111939899623394,-0.004071440547704697
1751013909127058400,1.596058349609375,0.015310246497392654,0.025590581819415092,0.00004926848123432137
1751013909137001500,1.60600146484375,0.012410863302648067,0.020430173724889755,0.002781671704724431
1751013909146945500,1.615945556640625,0.005148689262568951,0.017613613978028297,0.014723552390933037
1751013909156888600,1.625888671875,0.004740959499031305,0.015745939686894417,0.02183898538351059
1751013909166832400,1.635832275390625,0.004476773552596569,0.013432717882096767,0.017478059977293015
1751013909176776400,1.6457763671875,0.007919441908597946,0.01679735630750656,0.003367567202076316
1751013909186719500,1.655719482421875,0.012589295394718647,0.01038446370512247,-0.021561218425631523
1751013909196663600,1.66566357421875,0.0028389296494424343,0.007164702285081148,-0.0536738820374012
1751013909206606600,1.675606689453125,-0.005965214688330889,-0.000031691615731688216,-0.07709851115942001
1751013909216550700,1.685550537109375,-0.013849502429366112,-0.015785088762640953,-0.09633665531873703
1751013909226493700,1.69549365234375,-0.017830662429332733,-0.017901236191391945,-0.0947430208325386
1751013909236437500,1.7054375,-0.018314292654395103,-0.027180222794413567,-0.08401127904653549
1751013909246380500,1.715380615234375,-0.023575633764266968,-0.018665829673409462,-0.052322328090667725
1751013909256324600,1.72532470703125,-0.018163291737437248,0.019689016044139862,-0.006473612040281296
1751013909266267600,1.735267578125,-0.00404480891302228,0.07007895410060883,0.036368925124406815
1751013909276211500,1.74521142578125,0.017617875710129738,0.12926025688648224,0.05426457151770592
1751013909286154500,1.755154541015625,0.04126541316509247,0.15563459694385529,0.04211016744375229
1751013909296098600,1.7650986328125,0.05630774796009064,0.1471060961484909,0.009893910028040409
1751013909306041600,1.77504150390625,0.059656936675310135,0.1200782060623169,-0.026198314502835274
1751013909315985400,1.7849853515625,0.04992468282580376,0.07242173701524734,-0.04283321648836136
1751013909325928400,1.794928466796875,0.03797641023993492,0.024579377844929695,-0.0431530624628067
1751013909335872500,1.80487255859375,0.015021826140582561,-0.024475781247019768,-0.035353731364011765
1751013909345815300,1.814815185546875,-0.00692075677216053,-0.07214929163455963,-0.019421368837356567
1751013909355759600,1.824759521484375,-0.022213958203792572,-0.08330927044153214,0.011171960271894932
1751013909365702700,1.83470263671875,-0.026490995660424232,-0.06023431196808815,0.035943884402513504
1751013909375646500,1.844646484375,-0.015097193419933319,-0.03602511063218117,0.03816762566566467
1751013909385589500,1.854589599609375,0.003885285696014762,-0.004621649626642466,0.029564283788204193
1751013909395533600,1.864533447265625,0.035464782267808914,0.022230470553040504,0.020195282995700836
1751013909405476600,1.8744765625,0.07206141203641891,0.03576252609491348,0.013449762016534805
1751013909415420400,1.88442041015625,0.0845114216208458,-0.0020221380982548,0.02117745764553547
1751013909425363500,1.894363525390625,0.05739431828260422,-0.06220158934593201,0.04694540426135063
1751013909435307500,1.9043076171875,0.010746920481324196,-0.06388363987207413,0.08919539302587509
1751013909445250600,1.91425048828125,-0.03508634865283966,-0.004305532667785883,0.11966727674007416
1751013909455194400,1.9241943359375,-0.051892757415771484,0.06942168623209,0.08511755615472794
1751013909465137400,1.934137451171875,-0.04728948324918747,0.11048869043588638,0.00044528054422698915
1751013909475081500,1.94408154296875,-0.02635064721107483,0.10066615790128708,-0.10931796580553055
1751013909485024500,1.9540244140625,-0.006734601687639952,0.07279963791370392,-0.17749382555484772
1751013909494968300,1.96396826171875,-0.012010590173304081,0.03648104518651962,-0.1723635196685791
1751013909504912600,1.97391259765625,-0.03297233209013939,-0.0019475696608424187,-0.10946497321128845
1751013909514855700,1.983855712890625,-0.05813094601035118,-0.027600735425949097,-0.010816428810358047
1751013909524799500,1.993799560546875,-0.0722169354557991,-0.03984781354665756,0.0710880234837532
1751013909534742500,2.003742431640625,-0.0691061019897461,-0.038831550627946854,0.11443763226270676
1751013909544686600,2.0136865234375,-0.05200061574578285,-0.020595023408532143,0.12800750136375427
1751013909554629600,2.023629638671875,-0.025486184284090996,0.006982808467000723,0.1109456941485405
1751013909564573400,2.033573486328125,0.0065444521605968475,0.036676254123449326,0.07921545952558517
1751013909574516500,2.0435166015625,0.030175212770700455,0.046418897807598114,0.04628361016511917
1751013909584460500,2.05346044921875,0.040414534509181976,0.057500045746564865,0.025707494467496872
1751013909594403600,2.063403564453125,0.03683125227689743,0.061771489679813385,0.026261165738105774
1751013909604347400,2.073347412109375,0.025592444464564323,0.0493377223610878,0.03433666750788689
1751013909614290400,2.08329052734375,0.013052418828010559,0.029745645821094513,0.05958929285407066
1751013909624234500,2.093234375,0.008342351764440536,0.01733691245317459,0.08401767164468765
1751013909634177500,2.103177490234375,0.005259210709482431,0.012949620373547077,0.10200865566730499
1751013909644121300,2.113121337890625,0.0031372036319226027,0.011977300979197025,0.09024520963430405
1751013909654064400,2.123064453125,-0.010221744887530804,0.0004540689697023481,0.052630454301834106
1751013909664008700,2.1330087890625,-0.02317562699317932,-0.025529861450195312,0.005114867351949215
1751013909673951700,2.14295166015625,-0.03870638459920883,-0.03768213093280792,-0.03593403100967407
1751013909683895600,2.1528955078125,-0.055452607572078705,-0.024095216765999794,-0.05423953756690025
1751013909693838600,2.162838623046875,-0.07001689821481705,0.006690393202006817,-0.06663255393505096
1751013909703782700,2.17278271484375,-0.0787038654088974,0.03948908671736717,-0.0876438319683075
1751013909713725400,2.182725341796875,-0.07011277228593826,0.07040812075138092,-0.10529020428657532
1751013909723669500,2.19266943359375,-0.05415324866771698,0.09021244943141937,-0.11361551284790039
1751013909733612500,2.202612548828125,-0.032997097820043564,0.08036168664693832,-0.10873180627822876
1751013909743556600,2.212556640625,-0.01375416200608015,0.055029429495334625,-0.08277557045221329
1751013909753499400,2.22249951171875,0.002013616031035781,0.03804671764373779,-0.037096768617630005
1751013909763443500,2.232443359375,0.01210060529410839,0.020328175276517868,0.01080071646720171
1751013909773386500,2.242386474609375,0.01571318320930004,-0.0007387608638964593,0.05661960318684578
1751013909783330600,2.25233056640625,0.01756807416677475,-0.014267885126173496,0.09004546701908112
1751013909793273300,2.2622734375,0.015682822093367577,-0.019540412351489067,0.10397087037563324
1751013909803217400,2.272217529296875,0.007573497481644154,-0.024566596373915672,0.10373838245868683
1751013909813160400,2.282160400390625,0.0018463695887476206,-0.029207153245806694,0.07620475441217422
1751013909823104300,2.292104248046875,-0.008737565018236637,-0.0375060960650444,0.0441908985376358
1751013909833048300,2.30204833984375,-0.015075888484716415,-0.04279779642820358,0.010382067412137985
1751013909842991400,2.311991455078125,-0.027056384831666946,-0.03837721794843674,-0.025790585204958916
1751013909852935400,2.321935302734375,-0.038709044456481934,-0.044383976608514786,-0.058817245066165924
1751013909862878200,2.331878173828125,-0.047931306064128876,-0.055740758776664734,-0.0684078186750412
1751013909872822300,2.341822265625,-0.05434739589691162,-0.04550676420331001,-0.05818687379360199
1751013909882765300,2.351765380859375,-0.05109620839357376,-0.031554464250802994,-0.03262452036142349
1751013909892709400,2.36170947265625,-0.04693581536412239,-0.028914472088217735,-0.008360461331903934
1751013909902652400,2.37165234375,-0.042283009737730026,-0.035770513117313385,0.010408165864646435
1751013909912596500,2.381596435546875,-0.027409253641963005,-0.04448064789175987,0.019522035494446754
1751013909922539500,2.39153955078125,-0.012487029656767845,-0.05133828893303871,0.02630803734064102
1751013909932483300,2.4014833984375,-0.004208327271044254,-0.05750536918640137,0.024019315838813782
1751013909942426400,2.41142626953125,0.0006034722900949419,-0.06735027581453323,0.016892697662115097
1751013909952370400,2.421370361328125,-0.0017504957504570484,-0.07645802199840546,0.00045140579459257424
1751013909962313500,2.4313134765625,-0.012831109575927258,-0.08996956795454025,-0.0267205610871315
1751013909972257300,2.44125732421875,-0.027823375537991524,-0.09108597040176392,-0.04982960596680641
1751013909982200300,2.451200439453125,-0.04186275973916054,-0.0776979923248291,-0.06174618750810623
1751013909992144400,2.461144287109375,-0.050096191465854645,-0.04517786577343941,-0.06334807723760605
1751013910002087400,2.47108740234375,-0.050701260566711426,-0.01847754418849945,-0.061706773936748505
1751013910012031200,2.48103125,-0.047692421823740005,-0.0028573055751621723,-0.06184286251664162
1751013910021974300,2.490974365234375,-0.04061906412243843,-0.012874785810709,-0.05730004236102104
1751013910031918300,2.50091845703125,-0.03183303028345108,-0.0282292403280735,-0.05132044479250908
1751013910041861400,2.510861328125,-0.02636795863509178,-0.044851891696453094,-0.0479065403342247
1751013910051805400,2.520805419921875,-0.02185176871716976,-0.056766610592603683,-0.04559890925884247
1751013910061748500,2.53074853515625,-0.027166374027729034,-0.06502773612737656,-0.04803650081157684
1751013910071692500,2.540692626953125,-0.026680612936615944,-0.055934906005859375,-0.047568850219249725
1751013910081635600,2.550635498046875,-0.025010278448462486,-0.03199281916022301,-0.04530702903866768
1751013910091579400,2.560579345703125,-0.019347865134477615,-0.0034083134960383177,-0.036327116191387177
1751013910101523500,2.5705234375,-0.008408132009208202,0.022663500159978867,-0.024646757170557976
1751013910111466500,2.580466552734375,-0.0021883193403482437,0.04009202495217323,-0.008986570872366428
1751013910121410300,2.590410400390625,0.001107076066546142,0.05044107139110565,-0.012132829055190086
1751013910131353300,2.600353271484375,-0.005018460564315319,0.05811842903494835,-0.02262674830853939
1751013910141297400,2.61029736328125,-0.007818507961928844,0.06000181660056114,-0.059355203062295914
1751013910151240400,2.620240478515625,-0.01504180021584034,0.06570497900247574,-0.09632173925638199
1751013910161184300,2.630184326171875,-0.014735536649823189,0.07221507281064987,-0.13356392085552216
1751013910171127300,2.640127197265625,-0.01792094297707081,0.0871407613158226,-0.16686807572841644
1751013910181071400,2.6500712890625,-0.01366467960178852,0.10808226466178894,-0.1918455958366394
1751013910191014400,2.660014404296875,0.003534547286108136,0.14221812784671783,-0.20182260870933533
1751013910200958500,2.66995849609375,0.02888970449566841,0.17047320306301117,-0.18612246215343475
1751013910210901500,2.679901611328125,0.05017128959298134,0.1723073273897171,-0.147975355386734
1751013910220845600,2.689845458984375,0.0730435848236084,0.14770689606666565,-0.08712930977344513
1751013910230788400,2.699788330078125,0.07849694043397903,0.10649235546588898,-0.0032205607276409864
1751013910240732400,2.709732421875,0.07517944276332855,0.06350387632846832,0.07566653192043304
1751013910250675500,2.719675537109375,0.059472113847732544,0.017895109951496124,0.13509070873260498
1751013910260619500,2.72961962890625,0.05037688836455345,-0.021980132907629013,0.16088102757930756
1751013910270562300,2.739562255859375,0.03909680247306824,-0.038204375654459,0.14538276195526123
1751013910280506400,2.74950634765625,0.026876088231801987,-0.04707350209355354,0.09577233344316483
1751013910290449400,2.759449462890625,0.02045920304954052,-0.05626486986875534,0.027839619666337967
1751013910300393200,2.769393310546875,0.006997722201049328,-0.06649859994649887,-0.04259113594889641
1751013910310336300,2.779336181640625,-0.005106344819068909,-0.07308939099311829,-0.11344054341316223
1751013910320280300,2.7892802734375,-0.019327891990542412,-0.09108010679483414,-0.16995574533939362
1751013910330223400,2.799223388671875,-0.02719460241496563,-0.11102265864610672,-0.20806212723255157
1751013910340167200,2.809167236328125,-0.017017066478729248,-0.1214742362499237,-0.21029704809188843
1751013910350110200,2.819110107421875,0.004081028047949076,-0.11886993050575256,-0.17972981929779053
1751013910360054500,2.829054443359375,0.03346101939678192,-0.1148885041475296,-0.13208159804344177
1751013910369997600,2.83899755859375,0.06280212849378586,-0.09636461734771729,-0.07366915792226791
1751013910379941400,2.84894140625,0.08470503240823746,-0.06791912764310837,-0.008223309181630611
1751013910389885400,2.858885498046875,0.08926703035831451,-0.03015657141804695,0.043052393943071365
1751013910399828500,2.868828369140625,0.07225289195775986,0.009047823026776314,0.0688411146402359
1751013910409772300,2.878772216796875,0.05188982933759689,0.035460520535707474,0.05684969946742058
1751013910419715300,2.88871533203125,0.027486220002174377,0.05435511842370033,0.010628409683704376
1751013910429659400,2.898659423828125,0.01047288067638874,0.05501797795295715,-0.04830388352274895
1751013910439602400,2.9086025390625,-0.020314859226346016,0.03735669329762459,-0.11498064547777176
1751013910449546200,2.918546142578125,-0.05139634385704994,0.013683854602277279,-0.15516002476215363
1751013910459489300,2.9284892578125,-0.06650499254465103,0.0004772384709212929,-0.16483129560947418
1751013910469433300,2.938433349609375,-0.06580191850662231,0.002692722249776125,-0.14634309709072113
1751013910479376400,2.94837646484375,-0.05068741366267204,0.016590161249041557,-0.10756587237119675
1751013910489320200,2.9583203125,-0.037876807153224945,0.031019700691103935,-0.05867023766040802
1751013910499263200,2.96826318359375,-0.02437751181423664,0.04026539623737335,-0.008667790330946445
1751013910509207600,2.97820751953125,-0.017430122941732407,0.0547492653131485,0.02774481289088726
1751013910519150600,2.988150634765625,-0.015200524590909481,0.0635768473148346,0.050041064620018005
1751013910529094400,2.998094482421875,-0.01932549476623535,0.06494464725255966,0.049785397946834564
1751013910539037400,3.008037353515625,-0.024058198556303978,0.055636096745729446,0.023427294567227364
1751013910548981500,3.0179814453125,-0.0208890363574028,0.0324343740940094,-0.0021409152541309595
1751013910558924500,3.027924560546875,-0.018756909295916557,0.014071344397962093,-0.026266224682331085
1751013910568868400,3.037868408203125,-0.017732391133904457,-0.0054642739705741405,-0.04080388695001602
1751013910578811400,3.047811279296875,-0.02087944932281971,-0.022599585354328156,-0.051356133073568344
1751013910588755500,3.05775537109375,-0.01588309183716774,-0.033908698707818985,-0.042511772364377975
1751013910598698500,3.067698486328125,-0.0009755159262567759,-0.03411855548620224,-0.023803865537047386
1751013910608642300,3.077642333984375,0.014539527706801891,-0.03057282231748104,0.0037939392495900393
1751013910618586400,3.08758642578125,0.022288527339696884,-0.03705655410885811,0.028194352984428406
1751013910628529400,3.097529296875,0.030659908428788185,-0.043060917407274246,0.0487920418381691
1751013910638473500,3.107473388671875,0.038174815475940704,-0.043594080954790115,0.0564611442387104
1751013910648416300,3.117416259765625,0.046012766659259796,-0.04520449414849281,0.05470958352088928
1751013910658360600,3.127360595703125,0.052130311727523804,-0.07141399383544922,0.047313984483480453
1751013910668303600,3.1373037109375,0.04891641065478325,-0.09939183294773102,0.03305302560329437
1751013910678247400,3.147247314453125,0.04659546539187431,-0.12014744430780411,0.025535453110933304
1751013910688190500,3.1571904296875,0.05091964080929756,-0.11984384804964066,0.015291870571672916
1751013910698134500,3.167134521484375,0.0506565198302269,-0.094301737844944,0.0036719664931297302
1751013910708077300,3.177077392578125,0.055872321128845215,-0.05354658141732216,-0.019303657114505768
1751013910718021400,3.187021484375,0.055508531630039215,-0.01119060255587101,-0.04582900553941727
1751013910727964400,3.19696435546875,0.05361822247505188,0.025068068876862526,-0.058628957718610764
1751013910737908500,3.206908447265625,0.05023680627346039,0.04055195301771164,-0.04819522425532341
1751013910747851300,3.216851318359375,0.04894304275512695,0.05059633031487465,-0.018521219491958618
1751013910757795300,3.22679541015625,0.04776805639266968,0.034339066594839096,0.018328674137592316
1751013910767738400,3.23673828125,0.04746365547180176,-0.00032091091270558536,0.055931709706783295
1751013910777682400,3.246682373046875,0.045817553997039795,-0.04230431467294693,0.08471169322729111
1751013910787625200,3.256625244140625,0.046596795320510864,-0.0640929639339447,0.10443612933158875
1751013910797569300,3.2665693359375,0.04433231055736542,-0.06512520462274551,0.09386949986219406
1751013910807512300,3.27651220703125,0.034379810094833374,-0.06693881750106812,0.07042010128498077
1751013910817456000,3.2864560546875,0.026575684547424316,-0.06197841465473175,0.0443594753742218
1751013910827399200,3.296399169921875,0.0214815903455019,-0.042695265263319016,0.020920727401971817
1751013910837343200,3.30634326171875,0.020296482369303703,-0.017785122618079185,0.001365668955259025
1751013910847287300,3.316287353515625,0.014069213531911373,0.0012386362068355083,-0.021411549299955368
1751013910857230300,3.326230224609375,-0.0010716560063883662,0.0057383133098483086,-0.05567098408937454
1751013910867174400,3.33617431640625,-0.021866949275135994,0.01836009882390499,-0.0993148684501648
1751013910877117400,3.346117431640625,-0.06371213495731354,0.02028609625995159,-0.15483538806438446
1751013910887061200,3.356061279296875,-0.13376738131046295,0.00330258603207767,-0.225849911570549
1751013910897004300,3.36600439453125,-0.2456318736076355,-0.044737376272678375,-0.3108987510204315
1751013910906948400,3.3759482421875,-0.34790337085723877,-0.10131916403770447,-0.37798166275024414
1751013910916891400,3.385891357421875,-0.39325088262557983,-0.1503373086452484,-0.39630207419395447
1751013910926835200,3.395835205078125,-0.3913366198539734,-0.1660803109407425,-0.3714342713356018
1751013910936778200,3.4057783203125,-0.36389219760894775,-0.1515413224697113,-0.3309536874294281
1751013910946722300,3.415722412109375,-0.33657243847846985,-0.11825500428676605,-0.31837213039398193
1751013910956665300,3.425665283203125,-0.31958386301994324,-0.10414291173219681,-0.34086865186691284
1751013910966609200,3.435609130859375,-0.30830615758895874,-0.11283600330352783,-0.3739320635795593
1751013910976552200,3.44555224609375,-0.3008035123348236,-0.12421435862779617,-0.3749808073043823
1751013910986496300,3.455496337890625,-0.2838652729988098,-0.11317609250545502,-0.32866790890693665
1751013910996439300,3.465439208984375,-0.24771127104759216,-0.10058040171861649,-0.23618777096271515
1751013911006383400,3.47538330078125,-0.18762235343456268,-0.09700670838356018,-0.12094239890575409
1751013911016326400,3.485326416015625,-0.12419997900724411,-0.09991487860679626,0.0020623519085347652
1751013911026270500,3.4952705078125,-0.06181170046329498,-0.09232726693153381,0.10492029041051865
1751013911036213500,3.505213623046875,-0.016050605103373528,-0.07348939776420593,0.17072327435016632
1751013911046157300,3.5151572265625,0.01966984197497368,-0.056894175708293915,0.18991801142692566
1751013911056100400,3.525100341796875,0.044491566717624664,-0.046242594718933105,0.16511784493923187
1751013911066044400,3.53504443359375,0.059360530227422714,-0.0227428637444973,0.12874093651771545
1751013911075987500,3.544987548828125,0.06844457238912582,-0.005660548806190491,0.08646431565284729
1751013911085931300,3.55493115234375,0.06752924621105194,0.0009257147903554142,0.04410460963845253
1751013911095875300,3.564875244140625,0.06621789932250977,-0.0004487426485866308,0.013979198411107063
1751013911105818400,3.574818359375,0.06517660617828369,0.0001246359315700829,0.0029377329628914595
1751013911115762200,3.58476220703125,0.06294567883014679,0.0029499835800379515,0.00857537891715765
1751013911125705200,3.594705322265625,0.05754212290048599,0.006025668233633041,0.01804930716753006
1751013911135649300,3.604649169921875,0.05639563128352165,0.013894244097173214,0.033310286700725555
1751013911145592300,3.61459228515625,0.06233954057097435,0.0211793202906847,0.053405702114105225
1751013911155536400,3.624536376953125,0.0683140754699707,0.010831608437001705,0.06632549315690994
1751013911165479400,3.6344794921875,0.0779842808842659,-0.008070709183812141,0.08174466341733932
1751013911175423500,3.644423583984375,0.09315390884876251,-0.023274961858987808,0.09290224313735962
1751013911185366300,3.6543662109375,0.10270107537508011,-0.035286083817481995,0.10706572979688644
1751013911195310300,3.664310302734375,0.11087671667337418,-0.045874547213315964,0.1108868345618248
1751013911205253400,3.67425341796875,0.11641769111156464,-0.04872492700815201,0.1094476655125618
1751013911215197400,3.684197509765625,0.11976022273302078,-0.037404097616672516,0.09843122959136963
1751013911225140200,3.69414013671875,0.12321966886520386,-0.0205747839063406,0.08165917545557022
1751013911235084300,3.704084228515625,0.12446948885917664,0.01895078830420971,0.05997492000460625
1751013911245027300,3.71402734375,0.11912000179290771,0.06282024085521698,0.03562430664896965
1751013911254971400,3.723971435546875,0.11285518109798431,0.0893021821975708,0.009615875780582428
1751013911264914200,3.7339140625,0.10970732569694519,0.08995065838098526,0.011992480605840683
1751013911274858200,3.743858154296875,0.10716906189918518,0.10449152439832687,0.041424140334129333
1751013911284801300,3.75380126953125,0.0896768867969513,0.14028599858283997,0.050577156245708466
1751013911294745000,3.7637451171875,0.055872853845357895,0.1667596846818924,0.0028794098179787397
1751013911304688000,3.773688232421875,0.028847094625234604,0.16425365209579468,-0.09069102257490158
1751013911314632400,3.783632568359375,0.014515292830765247,0.15342657268047333,-0.18773767352104187
1751013911324576300,3.793576171875,0.019163841381669044,0.14279310405254364,-0.24731764197349548
1751013911334519300,3.803519287109375,0.034388866275548935,0.13522519171237946,-0.2692248225212097
1751013911344463400,3.81346337890625,0.053703974932432175,0.12032241374254227,-0.2371872514486313
1751013911354406400,3.823406494140625,0.06168360263109207,0.14167191088199615,-0.2085830420255661
1751013911364350200,3.83335009765625,0.08077766746282578,0.1422591358423233,-0.19390076398849487
1751013911374293200,3.843293212890625,0.11681690067052841,0.12755130231380463,-0.14786748588085175
1751013911384237300,3.8532373046875,0.15537387132644653,0.13318867981433868,-0.07891718298196793
1751013911394180400,3.863180419921875,0.17140637338161469,0.14455239474773407,-0.008222243748605251
1751013911404124200,3.873124267578125,0.1528284251689911,0.15026380121707916,0.02869343012571335
1751013911414067200,3.883067138671875,0.11491592973470688,0.10258416831493378,0.01113201305270195
1751013911424011300,3.89301123046875,0.0646735355257988,0.032227445393800735,-0.031078290194272995
1751013911433954300,3.902954345703125,0.02534264139831066,-0.013309679925441742,-0.08373910188674927
1751013911443898000,3.912898193359375,-0.006191849708557129,-0.028852153569459915,-0.13001126050949097
1751013911453841200,3.922841064453125,-0.01985333301126957,-0.03166471794247627,-0.16094253957271576
1751013911463785500,3.932785400390625,-0.04362098127603531,-0.037570010870695114,-0.18662260472774506
1751013911473728500,3.942728515625,-0.08501609414815903,-0.04146035760641098,-0.21448566019535065
1751013911483672300,3.95267236328125,-0.12627911567687988,-0.042028144001960754,-0.2417319416999817
1751013911493615400,3.962615478515625,-0.15567587316036224,-0.058518704026937485,-0.2732429802417755
1751013911503559400,3.972559326171875,-0.17333289980888367,-0.09961580485105515,-0.2881079614162445
1751013911513502500,3.98250244140625,-0.19344988465309143,-0.1626906394958496,-0.28346046805381775
1751013911523446300,3.9924462890625,-0.20839102566242218,-0.22930856049060822,-0.2434675097465515
1751013911533389300,4.002389404296875,-0.2217845916748047,-0.27405765652656555,-0.16173164546489716
1751013911543333400,4.01233349609375,-0.21492455899715424,-0.2855425179004669,-0.06202422082424164
1751013911553277200,4.022277099609375,-0.19860443472862244,-0.2596888244152069,0.04386865347623825
1751013911563220200,4.03222021484375,-0.15932521224021912,-0.19767552614212036,0.13043896853923798
1751013911573164300,4.042164306640625,-0.09271661937236786,-0.13137294352054596,0.1741078794002533
1751013911583107300,4.052107421875,-0.0253977682441473,-0.056002549827098846,0.18154795467853546
1751013911593051100,4.062051025390625,0.017498832195997238,0.030301446095108986,0.14463335275650024
1751013911602994200,4.071994140625,0.04586522653698921,0.08633009344339371,0.07517091929912567
1751013911612938500,4.0819384765625,0.06025028973817825,0.11805552989244461,0.001942243310622871
1751013911622881500,4.091881591796875,0.06468099355697632,0.1475822627544403,-0.05681214854121208
1751013911632825300,4.101825439453125,0.06574279069900513,0.1563808172941208,-0.09799101203680038
1751013911642768400,4.111768310546875,0.05830138921737671,0.15238767862319946,-0.1216643825173378
1751013911652712400,4.12171240234375,0.05230474844574928,0.1450546532869339,-0.1265406310558319
1751013911662655200,4.1316552734375,0.045341648161411285,0.14276620745658875,-0.10283849388360977
1751013911672599300,4.141599365234375,0.03351907804608345,0.1398543119430542,-0.06120236963033676
1751013911682542300,4.151542236328125,0.020613398402929306,0.1248876079916954,-0.012783706188201904
1751013911692486400,4.161486328125,0.014059892855584621,0.10983994603157043,0.03213263675570488
1751013911702429200,4.17142919921875,0.012094746343791485,0.08475004136562347,0.06725680083036423
1751013911712373200,4.181373291015625,0.03207191452383995,0.07289844006299973,0.08631251752376556
1751013911722316300,4.19131640625,0.07117724418640137,0.07540607452392578,0.09469801187515259
1751013911732260400,4.20126025390625,0.11631542444229126,0.08563953638076782,0.08814530819654465
1751013911742203100,4.211203125,0.143922820687294,0.09785066545009613,0.07131119817495346
1751013911752147200,4.221147216796875,0.1587824523448944,0.10319722443819046,0.05011030659079552
1751013911762091500,4.231091552734375,0.1503026783466339,0.10569021105766296,0.028364796191453934
1751013911772034300,4.241034423828125,0.12358851730823517,0.09861472249031067,0.021646706387400627
1751013911781978400,4.250978271484375,0.0876571461558342,0.08222616463899612,0.023636620491743088
1751013911791921400,4.26092138671875,0.05131618306040764,0.0649944469332695,0.027874508872628212
1751013911801865700,4.27086572265625,0.020176108926534653,0.03365569934248924,0.029413016512989998
1751013911811808800,4.280808837890625,-0.004065847955644131,-0.009213738143444061,0.037942055612802505
1751013911821752800,4.2907529296875,-0.01793079636991024,-0.0419011116027832,0.04610997065901756
1751013911831696000,4.30069580078125,-0.021328724920749664,-0.059853747487068176,0.05636340752243996
1751013911841639700,4.3106396484375,-0.017764883115887642,-0.07440286129713058,0.06788264214992523
1751013911851582700,4.320582763671875,-0.013625530526041985,-0.07658878713846207,0.0766950473189354
1751013911861526800,4.33052685546875,-0.0002844255941454321,-0.0689132884144783,0.07310803234577179
1751013911871469800,4.3404697265625,0.010327205993235111,-0.045754704624414444,0.06819556653499603
1751013911881413600,4.35041357421875,0.015933159738779068,-0.009487245231866837,0.05956905335187912
1751013911891356700,4.360356689453125,0.015280419029295444,0.021340442821383476,0.04267076402902603
1751013911901301000,4.370301025390625,0.010867028497159481,0.03894766420125961,0.018159030005335808
1751013911911244000,4.380244140625,0.004544684197753668,0.04821280390024185,-0.007227020338177681
1751013911921187800,4.390187744140625,-0.0019244002178311348,0.05820578336715698,-0.018668493255972862
1751013911931131000,4.400130859375,-0.010014817118644714,0.06624799221754074,-0.025922143831849098
1751013911941075000,4.410074951171875,-0.030045250430703163,0.06687463819980621,-0.03536384925246239
1751013911951018000,4.42001806640625,-0.049609895795583725,0.04778856039047241,-0.05565154552459717
1751013911960961800,4.4299619140625,-0.04427345469594002,-0.004342284053564072,-0.07576533406972885
1751013911970905900,4.43990576171875,-0.038771096616983414,-0.05824999138712883,-0.09331236779689789
1751013911980849000,4.449848876953125,-0.0344085730612278,-0.08991577476263046,-0.09368414431810379
1751013911990792700,4.459792724609375,-0.022767096757888794,-0.0933280810713768,-0.07457569986581802
1751013912000735700,4.46973583984375,-0.011128018610179424,-0.09021085500717163,-0.043426837772130966
1751013912010679800,4.4796796875,-0.009433981962502003,-0.07590461522340775,-0.0015659386990591884
1751013912020622800,4.489622802734375,-0.01070883683860302,-0.03797561302781105,0.04447079449892044
1751013912030566700,4.499566650390625,-0.012588762678205967,0.011920308694243431,0.0735730230808258
1751013912040509700,4.509509765625,-0.012152004055678844,0.05909128487110138,0.06896495074033737
1751013912050454000,4.5194541015625,-0.00421285443007946,0.08365122228860855,0.03392760828137398
1751013912060396800,4.529396728515625,0.015935556963086128,0.09397922456264496,-0.017586451023817062
1751013912070340900,4.5393408203125,0.03442535176873207,0.10193195939064026,-0.06256937235593796
1751013912080284000,4.549283935546875,0.052994243800640106,0.09752682596445084,-0.08808085322380066
1751013912090228000,4.55922802734375,0.0617845393717289,0.08297903835773468,-0.08660279959440231
1751013912100170800,4.569170654296875,0.05462249740958214,0.059060391038656235,-0.06652869284152985
1751013912110114800,4.57911474609375,0.03430710732936859,0.03285408765077591,-0.04059456288814545
1751013912120057900,4.589057861328125,0.006193447392433882,0.009796704165637493,-0.010027067735791206
1751013912130001700,4.599001708984375,-0.008504006080329418,-0.006911968346685171,0.011522432789206505
1751013912139944700,4.60894482421875,-0.013245231471955776,-0.016218384727835655,0.021385716274380684
1751013912149888800,4.618888671875,-0.004880775231868029,-0.008992696180939674,0.02930675633251667
1751013912159831800,4.628831787109375,0.013863084837794304,-0.006110356654971838,0.04045234993100166
1751013912169775600,4.638775634765625,0.02731178142130375,0.0000500674286740832,0.05157850682735443
1751013912179718700,4.64871875,0.043234821408987045,0.015925703570246696,0.05474873259663582
1751013912189662700,4.658662841796875,0.05331648513674736,0.04216955602169037,0.06290466338396072
1751013912199605800,4.668605712890625,0.06733988970518112,0.06658009439706802,0.06300639361143112
1751013912209549800,4.6785498046875,0.07922318577766418,0.07060545682907104,0.055806007236242294
1751013912219494000,4.688493896484375,0.08035928755998611,0.05287360027432442,0.05433141440153122
1751013912229437000,4.69843701171875,0.0659334734082222,0.029341377317905426,0.05800710991024971
1751013912239380700,4.708380615234375,0.040225185453891754,-0.009752496145665646,0.06365966796875
1751013912249323800,4.71832373046875,0.007457383442670107,-0.056061938405036926,0.07309098541736603
1751013912259267800,4.728267822265625,-0.022429674863815308,-0.09238239377737045,0.08272231370210648
1751013912269211000,4.7382109375,-0.05101045221090317,-0.11521580815315247,0.08133799582719803
1751013912279154700,4.74815478515625,-0.06738756597042084,-0.128702312707901,0.07183077931404114
1751013912289097700,4.75809765625,-0.07026537507772446,-0.11887045949697495,0.05926625430583954
1751013912299041800,4.768041748046875,-0.05254603177309036,-0.08792585879564285,0.06166043505072594
1751013912308984800,4.77798486328125,-0.036739639937877655,-0.038597460836172104,0.06613454222679138
1751013912318928600,4.7879287109375,-0.016699351370334625,0.008716792799532413,0.06810581684112549
1751013912328871700,4.79787158203125,0.0012652678415179253,0.055749546736478806,0.06800541281700134
1751013912338816000,4.80781591796875,0.0075689698569476604,0.09979210793972015,0.06463944911956787
1751013912348758800,4.8177587890625,0.011803928762674332,0.12792547047138214,0.03796469420194626
1751013912358702800,4.827702880859375,0.006645385641604662,0.1330944001674652,0.00529622845351696
1751013912368646000,4.83764599609375,-0.0015571502735838294,0.11071985960006714,-0.03302213177084923
1751013912378590000,4.84758984375,-0.015530756674706936,0.07457037270069122,-0.06157920882105827
1751013912388533000,4.857532958984375,-0.044618867337703705,0.03314170613884926,-0.07747854292392731
1751013912398476800,4.867476806640625,-0.0789872258901596,-0.006527673918753862,-0.08602969348430634
1751013912408420900,4.8774208984375,-0.12017115205526352,-0.04862186312675476,-0.09911379963159561
1751013912418364000,4.887364013671875,-0.1628086268901825,-0.09171473979949951,-0.09667008370161057
1751013912428307700,4.8973076171875,-0.18030372262001038,-0.12857049703598022,-0.08255692571401596
1751013912438250800,4.907250732421875,-0.1787063628435135,-0.15850602090358734,-0.0527348518371582
1751013912448194800,4.91719482421875,-0.14973196387290955,-0.18121559917926788,-0.009217998944222927
1751013912458137900,4.927137939453125,-0.09876998513936996,-0.18049120903015137,0.049981143325567245
1751013912468081700,4.93708154296875,-0.03382374346256256,-0.16190926730632782,0.1182723119854927
1751013912478024700,4.947024658203125,0.03664989024400711,-0.1280362606048584,0.18374133110046387
1751013912487969000,4.956968994140625,0.08771201223134995,-0.08986624330282211,0.22566108405590057
1751013912497911800,4.966911865234375,0.10932009667158127,-0.056782856583595276,0.22652502357959747
1751013912507856000,4.97685595703125,0.09797023981809616,-0.026197781786322594,0.18776164948940277
1751013912517799000,4.986798828125,0.07173250615596771,0.0073535204865038395,0.1107984185218811
1751013912527743000,4.996742919921875,0.04608999565243721,0.036069855093955994,0.028611937537789345
1751013912537685800,5.006685791015625,0.02899676375091076,0.05492743104696274,-0.04277622699737549
1751013912547629800,5.0166298828125,0.00567093538120389,0.06610258668661118,-0.08928220719099045
1751013912557572900,5.02657275390625,-0.0062547000125050545,0.06885310262441635,-0.10373944789171219
1751013912567517000,5.036516845703125,-0.013548033311963081,0.0735543817281723,-0.0825318917632103
1751013912577459700,5.046459716796875,-0.013410081155598164,0.07237060368061066,-0.04200337454676628
1751013912587403800,5.05640380859375,-0.010875018313527107,0.05991579592227936,0.011447331868112087
1751013912597346800,5.066346923828125,-0.003632551757618785,0.05025890842080116,0.05639776214957237
1751013912607290600,5.07629052734375,0.00686163455247879,0.04050960764288902,0.08632370084524155
1751013912617234700,5.086234619140625,0.01889459602534771,0.026582607999444008,0.0972149670124054
1751013912627177700,5.096177734375,0.014724085107445717,0.008402805775403976,0.08672930300235748
1751013912637121800,5.106121826171875,-0.005288771353662014,-0.02413196861743927,0.05993817001581192
1751013912647064800,5.11606494140625,-0.03871304169297218,-0.05194069445133209,0.011977300979197025
1751013912657009000,5.1260087890625,-0.074456125497818,-0.0863383486866951,-0.026751453056931496
1751013912666952000,5.135951904296875,-0.10942555963993073,-0.11198512464761734,-0.0373268648982048
1751013912676895700,5.145895751953125,-0.1393515020608902,-0.14129267632961273,-0.011786085553467274
1751013912686838800,5.1558388671875,-0.1540156602859497,-0.1647021323442459,0.047917190939188004
1751013912696782800,5.165782958984375,-0.14162157475948334,-0.17822539806365967,0.12751615047454834
1751013912706726000,5.175725830078125,-0.11225676536560059,-0.1640821397304535,0.20435766875743866
1751013912716669700,5.185669677734375,-0.06849224120378494,-0.13365820050239563,0.2549649178981781
1751013912726612700,5.19561279296875,-0.00951068103313446,-0.10058999061584473,0.2583407461643219
1751013912736556800,5.205556884765625,0.043050531297922134,-0.06764322519302368,0.22265811264514923
1751013912746499800,5.215499755859375,0.08427679538726807,-0.04676324501633644,0.15727964043617249
1751013912756443600,5.225443603515625,0.09101858735084534,-0.019526829943060875,0.07369978725910187
1751013912766386700,5.23538671875,0.07980188727378845,0.008656072430312634,-0.0019417107105255127
1751013912776330800,5.245330810546875,0.059847619384527206,0.044144026935100555,-0.06287723034620285
1751013912786273800,5.255273681640625,0.033073797821998596,0.073979951441288,-0.12369956821203232
1751013912796217900,5.2652177734375,0.02395140565931797,0.08978714048862457,-0.17153580486774445
1751013912806161400,5.275161376953125,0.03214382007718086,0.09871725738048553,-0.19512981176376343
1751013912816104400,5.2851044921875,0.038491733372211456,0.10340441763401031,-0.18806417286396027
1751013912826048500,5.295048583984375,0.03001941740512848,0.0881170779466629,-0.15535683929920197
1751013912835991600,5.304991455078125,0.0028016455471515656,0.05314444378018379,-0.10453946143388748
1751013912845935600,5.314935546875,-0.03609621897339821,0.009178051725029945,-0.0450175404548645
1751013912855878700,5.324878662109375,-0.07162385433912277,-0.025978870689868927,0.004216582980006933
1751013912865822500,5.334822509765625,-0.09362822026014328,-0.05242113023996353,0.0418395921587944
1751013912875765500,5.344765625,-0.10633283108472824,-0.07137005031108856,0.06226683780550957
1751013912885709600,5.35470947265625,-0.10507342219352722,-0.07399699836969376,0.06321784853935242
1751013912895652600,5.364652587890625,-0.1022627204656601,-0.06168866530060768,0.05206027254462242
1751013912905596400,5.374596435546875,-0.10151357203722,-0.04340313374996185,0.0288753230124712
1751013912915539500,5.38453955078125,-0.10428832471370697,-0.02497672289609909,0.0017864484107121825
1751013912925483500,5.3944833984375,-0.10134153813123703,0.0004338289436418563,-0.022164158523082733
1751013912935426600,5.404426513671875,-0.09543757140636444,0.016458867117762566,-0.04322470352053642
1751013912945370400,5.414370361328125,-0.08601956814527512,0.02756265178322792,-0.06083245947957039
1751013912955313400,5.4243134765625,-0.06753750145435333,0.025839319452643394,-0.06933806091547012
1751013912965257500,5.434257568359375,-0.052614208310842514,0.006561229936778545,-0.06771113723516464
1751013912975200500,5.444200439453125,-0.03521417826414108,-0.009859554469585419,-0.06896628439426422
1751013912985144600,5.45414453125,-0.01606312207877636,-0.017947841435670853,-0.052628856152296066
1751013912995088600,5.464088623046875,-0.00021784658019896597,-0.01104359608143568,-0.030232204124331474
1751013913005031700,5.47403173828125,0.011266768909990788,0.0027659591287374496,-0.006886401679366827
1751013913014975500,5.4839755859375,0.023371635004878044,0.017258882522583008,0.017962755635380745
1751013913024918500,5.49391845703125,0.039263516664505005,0.0398896262049675,0.036982517689466476
1751013913034862600,5.503862548828125,0.056892044842243195,0.05445205792784691,0.03597104921936989
1751013913044805600,5.5138056640625,0.06967414915561676,0.05872935801744461,0.024341026321053505
1751013913054749400,5.52374951171875,0.07129788398742676,0.04963359981775284,0.004722317215055227
1751013913064692500,5.5336923828125,0.060992781072854996,0.03136298432946205,-0.02190130390226841
1751013913074636500,5.543636474609375,0.037633396685123444,0.0067878649570047855,-0.03924620524048805
1751013913084579600,5.55357958984375,0.008506935089826584,-0.014654576778411865,-0.05098249018192291
1751013913094523400,5.5635234375,-0.014058827422559261,-0.02166481502354145,-0.050942275673151016
1751013913104466400,5.573466552734375,-0.02159823663532734,-0.0131496237590909,-0.042022284120321274
1751013913114410500,5.583410400390625,-0.02057718113064766,-0.0008700547041371465,-0.02906893566250801
1751013913124353500,5.593353515625,-0.01721493899822235,0.01666473038494587,-0.01900405064225197
1751013913134297600,5.603297607421875,-0.006305566523224115,0.03789757937192917,-0.008973787538707256
1751013913144240600,5.61324072265625,0.0013733921805396676,0.055693089962005615,-0.004969991277903318
1751013913154184700,5.623184814453125,-0.003500991500914097,0.06327217817306519,-0.009157812222838402
1751013913164128500,5.63312841796875,-0.011633220128715038,0.05429279804229736,-0.027829766273498535
1751013913174071600,5.643071533203125,-0.02075614407658577,0.035168904811143875,-0.045764293521642685
1751013913184015600,5.653015625,-0.026678482070565224,0.01594674214720726,-0.053651511669158936
1751013913193958400,5.66295849609375,-0.027468375861644745,0.023359118029475212,-0.0415748730301857
1751013913203902500,5.67290234375,-0.010980479419231415,0.058636948466300964,-0.01696087419986725
1751013913213845500,5.682845458984375,0.022704780101776123,0.10246378928422928,0.005062935408204794
1751013913223789600,5.69278955078125,0.053886402398347855,0.12849566340446472,0.008452340960502625
1751013913233732400,5.702732421875,0.07383774220943451,0.14859506487846375,-0.013049488887190819
1751013913243676400,5.712676513671875,0.07883356511592865,0.14744217693805695,-0.0749908909201622
1751013913253619500,5.722619384765625,0.08566510677337646,0.14188016951084137,-0.14955966174602509
1751013913263563500,5.7325634765625,0.09534196555614471,0.12611079216003418,-0.21166111528873444
1751013913273506300,5.74250634765625,0.0998845174908638,0.10948841273784637,-0.24313968420028687
1751013913283450600,5.75245068359375,0.10209707170724869,0.08756420016288757,-0.2461455911397934
1751013913293393700,5.7623935546875,0.10868040472269058,0.05813414230942726,-0.21733339130878448
1751013913303337500,5.77233740234375,0.10176683962345123,0.026093119755387306,-0.1598314791917801
1751013913313280500,5.782280517578125,0.08852560818195343,0.012753079645335674,-0.09418695420026779
1751013913323224600,5.792224609375,0.06855589151382446,0.005690642632544041,-0.037636857479810715
1751013913333168400,5.80216845703125,0.055031824856996536,-0.002162753138691187,0.0038093857001513243
1751013913343111400,5.812111328125,0.039321038872003555,-0.00780492601916194,0.030549919232726097
1751013913353055500,5.822055419921875,0.031374167650938034,-0.0070459251292049885,0.04249712824821472
1751013913362998500,5.83199853515625,0.0333331897854805,-0.001433845958672464,0.04478451609611511
1751013913372942300,5.8419423828125,0.03875245526432991,0.009623599238693714,0.04065768048167229
1751013913382885400,5.851885498046875,0.045878008008003235,0.021042434498667717,0.04613953083753586
1751013913392829400,5.861829345703125,0.052554287016391754,0.029271069914102554,0.04578027129173279
1751013913402772500,5.8717724609375,0.052381981164216995,0.04224252700805664,0.04687190055847168
1751013913412716500,5.881716552734375,0.05121711641550064,0.04908658564090729,0.03939081355929375
1751013913422659600,5.89165966796875,0.04777071624994278,0.0423533171415329,0.037638720124959946
1751013913432603600,5.901603759765625,0.03983103483915329,0.020076239481568336,0.03702246770262718
1751013913442546700,5.911546630859375,0.03255794197320938,-0.002606702037155628,0.05288585275411606
1751013913452490500,5.921490478515625,0.020291956141591072,-0.03711221367120743,0.07141559571027756
1751013913462433500,5.93143359375,-0.0009270463488064706,-0.06253767758607864,0.08374310284852982
1751013913472377600,5.941377685546875,-0.021992916241288185,-0.08303070068359375,0.07572858035564423
1751013913482320600,5.951320556640625,-0.04379222169518471,-0.0907117947936058,0.05355270579457283
1751013913492264400,5.961264404296875,-0.058284346014261246,-0.08930697292089462,0.013067065738141537
1751013913502208500,5.97120849609375,-0.06415688246488571,-0.07488249987363815,-0.03905392438173294
1751013913512151600,5.981151611328125,-0.04711664468050003,-0.05004319176077843,-0.09181247651576996
1751013913522095400,5.991095458984375,-0.021207816898822784,-0.010951451025903225,-0.12015330791473389
1751013913532038400,6.001038330078125,0.013051087036728859,0.02418629638850689,-0.13356205821037292
1751013913541982500,6.010982421875,0.03851010650396347,0.05224882438778877,-0.1260889619588852
1751013913551925500,6.020925537109375,0.05796556547284126,0.06474623829126358,-0.10185765475034714
1751013913561869600,6.03086962890625,0.06636118143796921,0.0655134990811348,-0.0641116052865982
1751013913571812600,6.0408125,0.058636147528886795,0.0537327378988266,-0.023668311536312103
1751013913581756700,6.050756591796875,0.05318252742290497,0.033128391951322556,0.022905848920345306
1751013913591699700,6.06069970703125,0.04484736546874046,0.014761368744075298,0.06340773403644562
1751013913601643500,6.0706435546875,0.04075994715094566,0.00039281626231968403,0.09505806863307953
1751013913611586600,6.080586669921875,0.03278324753046036,-0.002712695859372616,0.11177899688482285
1751013913621530600,6.090530517578125,0.025181252509355545,-0.0012743226252496243,0.10431788116693497
1751013913631473700,6.1004736328125,0.021947376430034637,0.00330231967382133,0.07869933545589447
1751013913641417500,6.11041748046875,0.01630893163383007,0.014096377417445183,0.0493965782225132
1751013913651361500,6.120361572265625,0.010404970496892929,0.017919078469276428,0.015982428565621376
1751013913661304600,6.1303046875,-0.00030599720776081085,0.025892583653330803,-0.019112974405288696
1751013913671248400,6.140248291015625,0.0005052016349509358,0.02894829399883747,-0.04831000789999962
1751013913681191400,6.15019140625,0.005024852231144905,0.04915476217865944,-0.06065429374575615
1751013913691135500,6.160135498046875,0.00535588338971138,0.06659980118274689,-0.06296724826097488
1751013913701078500,6.17007861328125,-0.037209153175354004,0.0983249694108963,-0.07725377380847931
1751013913711022600,6.180022705078125,-0.1336161196231842,0.160491943359375,-0.11054568737745285
1751013913720965600,6.189965576171875,-0.2278488725423813,0.166860893368721,-0.18608199059963226
1751013913730909700,6.19990966796875,-0.2918294668197632,0.10461509227752686,-0.2720823884010315
1751013913740852500,6.2098525390625,-0.31339627504348755,0.038710642606019974,-0.3150807023048401
1751013913750796500,6.219796630859375,-0.29870307445526123,0.011859322898089886,-0.28509005904197693
1751013913760739600,6.229739501953125,-0.23974521458148956,-0.0073348782025277615,-0.1931588053703308
1751013913770683600,6.23968359375,-0.1573198437690735,-0.03045058436691761,-0.08289914578199387
1751013913780626400,6.24962646484375,-0.07957924902439117,-0.038716770708560944,0.012398079968988895
1751013913790570500,6.259570556640625,-0.026984745636582375,-0.022311164066195488,0.07141266763210297
1751013913800513500,6.269513427734375,-0.0041097900830209255,0.0030921963043510914,0.07393094897270203
1751013913810461400,6.27946142578125,0.012829245999455452,0.014131265692412853,0.03602324798703194
1751013913820405500,6.289405517578125,0.032344091683626175,0.028185032308101654,-0.014563762582838535
1751013913830348500,6.2993486328125,0.05330663174390793,0.049200303852558136,-0.042638540267944336
1751013913840292400,6.309292236328125,0.07230988144874573,0.06490123271942139,-0.04966315999627113
1751013913850235400,6.3192353515625,0.09270969778299332,0.0670354962348938,-0.042992208153009415
1751013913860179500,6.329179443359375,0.1148565411567688,0.0506804883480072,-0.02339800074696541
1751013913870122500,6.33912255859375,0.13846467435359955,0.03386368975043297,-0.0024311996530741453
1751013913880066600,6.349066650390625,0.1515951156616211,0.015428490936756134,0.024172181263566017
1751013913890009300,6.35900927734375,0.1487244963645935,-0.004018177278339863,0.0372922457754612
1751013913899953700,6.36895361328125,0.13810008764266968,-0.02219291962683201,0.04174318537116051
1751013913909896700,6.378896728515625,0.12442528456449509,-0.039502136409282684,0.050883419811725616
1751013913919840500,6.388840576171875,0.10994274914264679,-0.039453666657209396,0.06419123709201813
1751013913929783600,6.398783447265625,0.09941153973340988,-0.024103738367557526,0.08109458535909653
1751013913939727600,6.4087275390625,0.09314219653606415,-0.009889115579426289,0.09174030274152756
1751013913949671400,6.41867138671875,0.08255932480096817,0.002058623591437936,0.092303566634655
1751013913959614500,6.428614501953125,0.074043869972229,0.015414375811815262,0.0839308500289917
1751013913969558500,6.43855859375,0.07266301661729813,0.013158679008483887,0.06345833092927933
1751013913979501600,6.44850146484375,0.07162598520517349,0.009475527331233025,0.04012158513069153
1751013913989445400,6.4584453125,0.0653100311756134,-0.0004410194815136492,0.017226124182343483
1751013913999388400,6.468388427734375,0.060799166560173035,-0.013457485474646091,-0.0068296766839921474
1751013914009332500,6.47833251953125,0.05570986866950989,-0.023486683145165443,-0.01570146530866623
1751013914019275500,6.488275634765625,0.05663930997252464,-0.024351678788661957,-0.014741129241883755
1751013914029219600,6.498219482421875,0.06024576351046562,-0.023916518315672874,-0.002572879893705249
1751013914039162600,6.50816259765625,0.061636198312044144,-0.0255168117582798,0.007134608458727598
1751013914049106700,6.518106689453125,0.05766569450497627,-0.021204087883234024,0.018260495737195015
1751013914059049700,6.5280498046875,0.04254266619682312,-0.017222929745912552,0.023200128227472305
1751013914068993500,6.53799365234375,0.021435784175992012,-0.016174176707863808,0.010068080388009548
1751013914078936600,6.5479365234375,0.00860254280269146,-0.0163603313267231,-0.007527690846472979
1751013914088880600,6.557880615234375,-0.00002902845517382957,-0.01612837053835392,-0.014705442823469639
1751013914098824400,6.567824462890625,0.0018708707066252828,-0.013088904321193695,-0.021561751142144203
1751013914108767500,6.577767578125,0.007509315386414528,-0.0028362665325403214,-0.009675264358520508
1751013914118711600,6.587711669921875,0.01672944612801075,0.008100270293653011,0.005888249259442091
1751013914128654600,6.597654541015625,0.029872411862015724,0.018791796639561653,0.02983699180185795
1751013914138598400,6.607598388671875,0.03892343118786812,0.029076658189296722,0.0452020987868309
1751013914148541400,6.61754150390625,0.04424042999744415,0.03995540738105774,0.06021993234753609
1751013914158485500,6.627485595703125,0.05516897886991501,0.05335323512554169,0.06338723003864288
1751013914168428500,6.637428466796875,0.07106085866689682,0.059180233627557755,0.06600511819124222
1751013914178372600,6.64737255859375,0.07709451764822006,0.059307798743247986,0.06667090207338333
1751013914188315600,6.657315673828125,0.08287597447633743,0.05247092992067337,0.05901751294732094
1751013914198259700,6.667259765625,0.08635912090539932,0.03406023234128952,0.05282566323876381
1751013914208202500,6.677202392578125,0.08477534353733063,0.015075888484716415,0.04999951645731926
1751013914218146600,6.687146484375,0.0791693851351738,0.004303668159991503,0.0562044158577919
1751013914228089600,6.697089599609375,0.0686565563082695,0.0006103964988142252,0.06669513881206512
1751013914238033400,6.707033447265625,0.06457872688770294,0.005012867972254753,0.07354026287794113
1751013914247977500,6.7169775390625,0.06317337602376938,0.010867827571928501,0.07346676290035248
1751013914257920500,6.72692041015625,0.06186949089169502,0.015313176438212395,0.054421961307525635
1751013914267864600,6.736864501953125,0.05634210258722305,0.013540576212108135,0.02545289508998394
1751013914277807400,6.746807373046875,0.044742438942193985,0.0021856562234461308,-0.012987704016268253
1751013914287751400,6.75675146484375,0.03086364082992077,-0.014219416305422783,-0.03888481482863426
1751013914297694500,6.766694580078125,0.02233300171792507,-0.026376480236649513,-0.05157158151268959
1751013914307638500,6.776638427734375,0.016340358182787895,-0.03506104648113251,-0.0471949428319931
1751013914317581300,6.786581298828125,0.020720457658171654,-0.03845178335905075,-0.0220901221036911
1751013914327525600,6.796525634765625,0.02966122329235077,-0.02917945757508278,0.009976201690733433
1751013914337468700,6.80646875,0.0401892326772213,-0.023121031001210213,0.044620998203754425
1751013914347412500,6.81641259765625,0.04548918828368187,-0.020622454583644867,0.05970407649874687
1751013914357355500,6.82635546875,0.049555569887161255,-0.012205533683300018,0.06804323196411133
1751013914367299600,6.836299560546875,0.05961219593882561,-0.004178499802947044,0.06685226410627365
1751013914377242600,6.84624267578125,0.06189985200762749,0.0029265477787703276,0.06689008325338364
1751013914387186400,6.8561865234375,0.05350583419203758,0.009463276714086533,0.057615891098976135
1751013914397130500,6.866130615234375,0.043472908437252045,0.006193980108946562,0.05137290805578232
1751013914407073500,6.876073486328125,0.021023793146014214,0.011129883117973804,0.041975412517786026
1751013914417017300,6.886017333984375,-0.007558317389339209,0.009527725167572498,0.02449149452149868
1751013914426960400,6.89596044921875,-0.03199068829417229,0.011260110884904861,0.01044198777526617
1751013914436904400,6.905904541015625,-0.04406226798892021,0.026550650596618652,0.008815595880150795
1751013914446847500,6.915847412109375,-0.052013933658599854,0.05936958268284798,0.0020849888678640127
1751013914456791300,6.925791259765625,-0.07373041659593582,0.08884172141551971,-0.02057265304028988
1751013914466734300,6.935734375,-0.11642967164516449,0.11774660646915436,-0.06179412454366684
1751013914476678700,6.9456787109375,-0.14501631259918213,0.12625060975551605,-0.10213089734315872
1751013914486621700,6.95562158203125,-0.1557435244321823,0.11608639359474182,-0.14183276891708374
1751013914496565500,6.9655654296875,-0.13962021470069885,0.10374210774898529,-0.15748310089111328
1751013914506508500,6.975508544921875,-0.10000383108854294,0.10423612594604492,-0.13884496688842773
1751013914516452600,6.98545263671875,-0.049022138118743896,0.09900674223899841,-0.08817034214735031
1751013914526396400,6.995396484375,0.005490372888743877,0.10129812359809875,-0.020546820014715195
1751013914536339500,7.00533935546875,0.05023493990302086,0.10549286752939224,0.04637682065367699
1751013914546283500,7.015283447265625,0.08730507642030716,0.10582683235406876,0.0943901538848877
1751013914556226600,7.0252265625,0.1148083433508873,0.10154073685407639,0.11054408550262451
1751013914566170400,7.03517041015625,0.13654719293117523,0.08728590607643127,0.10020569711923599
1751013914576113400,7.045113525390625,0.13718289136886597,0.07976886630058289,0.07035086303949356
1751013914586057500,7.055057373046875,0.12836728990077972,0.06976257264614105,0.029260950163006783
1751013914596000500,7.06500048828125,0.09996601194143295,0.049380600452423096,-0.007191333919763565
1751013914605944600,7.074944580078125,0.06591403484344482,0.026044117286801338,-0.027803935110569
1751013914615887400,7.084887451171875,0.03220320865511894,0.005335643421858549,-0.0323193222284317
1751013914625831700,7.094831787109375,-0.006081328261643648,-0.0070643010549247265,-0.017241571098566055
1751013914635774700,7.104774658203125,-0.03242877870798111,-0.005961219780147076,0.012893960811197758
1751013914645718500,7.114718505859375,-0.04963093623518944,-0.0011028150329366326,0.04583939537405968
1751013914655662600,7.12466259765625,-0.05602119117975235,-0.00016964336100500077,0.07063209265470505
1751013914665605600,7.134605712890625,-0.05134255066514015,0.0038000645581632853,0.09255150705575943
1751013914675549400,7.144549560546875,-0.036917537450790405,0.0010868359822779894,0.09974870085716248
1751013914685492500,7.154492431640625,-0.025050224736332893,-0.01943441852927208,0.10062168538570404
1751013914695436500,7.1644365234375,-0.021628862246870995,-0.04092159867286682,0.08436814695596695
1751013914705379600,7.174379638671875,-0.030648989602923393,-0.05383553355932236,0.06545756757259369
1751013914715323400,7.184323486328125,-0.03666560351848602,-0.06596969813108444,0.04523751884698868
1751013914725266400,7.194266357421875,-0.05044186860322952,-0.07686468958854675,0.04331231862306595
1751013914735210500,7.20421044921875,-0.0759940966963768,-0.1039612889289856,0.04122040793299675
1751013914745153500,7.214153564453125,-0.11329913139343262,-0.16440598666667938,0.0454401858150959
1751013914755097600,7.22409765625,-0.13590110838413239,-0.25183624029159546,0.06439230591058731
1751013914765040600,7.23404052734375,-0.12362553179264069,-0.3001973628997803,0.09932924807071686
1751013914774984700,7.243984619140625,-0.05824705958366394,-0.33248579502105713,0.1496371626853943
1751013914784927500,7.253927490234375,0.01248143706470728,-0.3442399203777313,0.1994055211544037
1751013914794871600,7.26387158203125,0.04843118041753769,-0.3267197906970978,0.21686440706253052
1751013914804811800,7.273811767578125,0.05083788186311722,-0.2751748561859131,0.21184568107128143
1751013914814754800,7.2837548828125,0.025615347549319267,-0.22057178616523743,0.17778676748275757
1751013914824698600,7.29369873046875,-0.009106678888201714,-0.1735086739063263,0.12549613416194916
1751013914834641700,7.3036416015625,-0.039805203676223755,-0.11612580716609955,0.057739995419979095
1751013914844585700,7.313585693359375,-0.05126611515879631,-0.06526155769824982,-0.01787859946489334
1751013914854528800,7.32352880859375,-0.04405933618545532,-0.024394555017352104,-0.0852256789803505
1751013914864472600,7.33347265625,-0.02996881864964962,-0.01236558984965086,-0.1376233696937561
1751013914874415600,7.34341552734375,-0.005971073638647795,-0.004185423720628023,-0.14883768558502197
1751013914884359700,7.353359619140625,0.016033561900258064,0.009865679778158665,-0.13137373328208923
1751013914894302700,7.363302734375,0.032335035502910614,0.032871395349502563,-0.0958479642868042
1751013914904246500,7.37324658203125,0.02803962305188179,0.05402541905641556,-0.061286792159080505
1751013914914189600,7.383189453125,0.019327359274029732,0.06215498223900795,-0.02081713080406189
1751013914924134000,7.3931337890625,0.0032447953708469868,0.0639699250459671,0.010877149179577827
1751013914934077700,7.40307763671875,-0.012473979964852333,0.05396389961242676,0.03194408491253853
1751013914944020700,7.413020751953125,-0.027027621865272522,0.03651247173547745,0.037946317344903946
1751013914953964800,7.42296484375,-0.037211284041404724,0.013954431749880314,0.02725825272500515
1751013914963907800,7.432907958984375,-0.03946458548307419,-0.012943228706717491,0.012684103101491928
1751013914973851600,7.4428515625,-0.04111814126372337,-0.02630350925028324,-0.008258994668722153
1751013914983794700,7.452794677734375,-0.03519553691148758,-0.01582343690097332,-0.018260495737195015
1751013914993738800,7.46273876953125,-0.02701830118894577,0.009369799867272377,-0.0211204644292593
1751013915003681500,7.472681640625,-0.00902651809155941,0.04856593906879425,-0.016862602904438972
1751013915013625600,7.48262548828125,0.007819040678441525,0.08948300778865814,-0.005880259443074465
1751013915023568600,7.492568603515625,0.0270095132291317,0.12002440541982651,-0.005162005312740803
1751013915033512700,7.5025126953125,0.04182867333292961,0.13233087956905365,-0.01290754321962595
1751013915043455500,7.51245556640625,0.055099472403526306,0.1308232545852661,-0.044928859919309616
1751013915053399800,7.52239990234375,0.05546485632658005,0.1131071150302887,-0.0806727409362793
1751013915063343900,7.53234375,0.048471927642822266,0.09371237456798553,-0.10947855561971664
1751013915073286700,7.54228662109375,0.031189611181616783,0.0860813558101654,-0.11632607877254486
1751013915083230700,7.552230712890625,0.011729626916348934,0.07770784199237823,-0.10624814033508301
1751013915093173800,7.562173828125,-0.012824186123907566,0.0726262629032135,-0.07762209326028824
1751013915103117800,7.572117919921875,-0.031863123178482056,0.06561309844255447,-0.03941664844751358
1751013915113060600,7.582060546875,-0.03893248364329338,0.05410557985305786,0.010574613697826862
1751013915123004700,7.592004638671875,-0.04189471900463104,0.03994289040565491,0.05095186457037926
1751013915132947700,7.60194775390625,-0.037047501653432846,0.022916501387953758,0.07786337286233902
1751013915142891500,7.6118916015625,-0.03338298946619034,0.0007619303651154041,0.0904337614774704
1751013915152834600,7.62183447265625,-0.026441194117069244,-0.012027101591229439,0.08711439371109009
1751013915162778600,7.631778564453125,-0.02400280348956585,-0.012372513301670551,0.06458112597465515
1751013915172721700,7.6417216796875,-0.025108549743890762,-0.007221427746117115,0.028807679191231728
1751013915182665500,7.65166552734375,-0.0261828675866127,0.009836917743086815,-0.005917810369282961
1751013915192609800,7.66160986328125,-0.026164492592215538,0.026507241651415825,-0.03225594013929367
1751013915202552800,7.671552734375,-0.030669495463371277,0.037931933999061584,-0.03621472790837288
1751013915212496600,7.68149658203125,-0.03158695623278618,0.04051467031240463,-0.018628278747200966
1751013915222439700,7.691439697265625,-0.039686426520347595,0.03337739780545235,0.002871420234441757
1751013915232383700,7.7013837890625,-0.04020680859684944,0.029509156942367554,0.03139999881386757
1751013915242326800,7.711326904296875,-0.03434492275118828,0.024469923228025436,0.051036287099123
1751013915252270600,7.7212705078125,-0.03298857435584068,0.03978123515844345,0.059550411999225616
1751013915262213600,7.731213623046875,-0.025766616687178612,0.05234283208847046,0.05709391087293625
1751013915272157700,7.74115771484375,-0.015022092498838902,0.06631191074848175,0.05459267273545265
1751013915282100700,7.751100830078125,-0.008478972129523754,0.07764525711536407,0.04417305439710617
1751013915292044500,7.76104443359375,-0.004482366610318422,0.08009190857410431,0.027788221836090088
1751013915301988600,7.770988525390625,-0.003950266633182764,0.06532148271799088,0.002918558195233345
1751013915311931600,7.780931640625,-0.004954278469085693,0.046233274042606354,-0.013775733299553394
1751013915321875500,7.79087548828125,-0.0015105449128895998,0.024047812446951866,-0.02659938670694828
1751013915331818500,7.800818603515625,-0.0022445120848715305,0.002767557045444846,-0.024715200066566467
1751013915341762800,7.8107626953125,-0.009778594598174095,-0.018148910254240036,-0.024747423827648163
1751013915351705900,7.820705810546875,-0.01744317263364792,-0.029952306300401688,-0.01666979119181633
1751013915361649700,7.830649658203125,-0.016392555087804794,-0.03133688494563103,-0.006292783189564943
1751013915371592700,7.8405927734375,-0.015744874253869057,-0.023316508159041405,0.004000866785645485
1751013915381536800,7.850536865234375,-0.015904931351542473,-0.013864416629076004,0.0048975530080497265
1751013915391479800,7.860479736328125,-0.020146014168858528,0.005765743553638458,0.0021734058391302824
1751013915401423600,7.870423583984375,-0.029033781960606575,0.02875441685318947,-0.004737230949103832
1751013915411366700,7.88036669921875,-0.04319700598716736,0.06124338507652283,-0.012292885221540928
1751013915421310700,7.890310791015625,-0.05524248257279396,0.0881732702255249,-0.027212446555495262
1751013915431254500,7.900254638671875,-0.06120370328426361,0.11678600311279297,-0.03773672506213188
1751013915441197600,7.910197509765625,-0.06368204206228256,0.1422215849161148,-0.050276219844818115
1751013915451141600,7.9201416015625,-0.053880807012319565,0.161406472325325,-0.05973150581121445
1751013915461084700,7.930084716796875,-0.03425144776701927,0.1736128032207489,-0.06620192527770996
1751013915471028500,7.940028564453125,-0.007867776788771152,0.16760577261447906,-0.05982711538672447
1751013915480971500,7.949971435546875,0.01793106272816658,0.1568756401538849,-0.04982747882604599
1751013915490915800,7.959915771484375,0.034631747752428055,0.13627022504806519,-0.029464147984981537
1751013915500859000,7.96985888671875,0.03713138774037361,0.10333064943552017,-0.009855293668806553
1751013915510802700,7.979802734375,0.03358379378914833,0.06399549543857574,0.002186455298215151
1751013915520745700,7.989745849609375,0.02629285678267479,0.03373346105217934,0.01372113823890686
1751013915530689800,7.999689697265625,0.016637831926345825,0.014697719365358353,0.020833110436797142
1751013915540632800,8.0096328125,0.01028406247496605,-0.0018426411552354693,0.02251196652650833
1751013915550576600,8.01957666015625,0.0007576693315058947,-0.01357333268970251,0.02839622087776661
1751013915560520700,8.029520751953125,-0.0021947110071778297,-0.015467372722923756,0.03027401678264141
1751013915570463700,8.039463623046874,-0.0016365124611184,-0.008012918755412102,0.03788559511303902
1751013915580407600,8.049407470703125,0.010981811210513115,-0.0013321131700649858,0.04396612569689751
1751013915590350600,8.0593505859375,0.019957995042204857,0.00854501873254776,0.045695316046476364
1751013915600294700,8.069294677734375,0.02581002563238144,0.005112736485898495,0.04375866428017616
1751013915610237700,8.07923779296875,0.019664781168103218,-0.006666957400739193,0.041668351739645004
1751013915620181800,8.089181640625,0.01401541754603386,-0.023924773558974266,0.02744653820991516
1751013915630124500,8.09912451171875,0.004428570624440908,-0.04969858005642891,0.012224708683788776
1751013915640068900,8.10906884765625,-0.0024972460232675076,-0.08008790761232376,-0.005346562247723341
1751013915650012000,8.119011962890625,-0.013099290430545807,-0.099336177110672,-0.02443663403391838
1751013915659955700,8.128955810546875,-0.017607223242521286,-0.09696569293737411,-0.02544943429529667
1751013915669898800,8.138898681640624,-0.021860292181372643,-0.07738080620765686,-0.013795707374811172
1751013915679842800,8.1488427734375,-0.03007853962481022,-0.05462303012609482,0.00267780851572752
1751013915689786600,8.15878662109375,-0.051722049713134766,-0.03301414102315903,0.01438053697347641
1751013915699729700,8.168729736328125,-0.06648155301809311,-0.009545568376779556,0.017432520166039467
1751013915709673700,8.178673828125,-0.07258205860853195,0.0032708945218473673,0.009660616517066956
1751013915719616800,8.18861669921875,-0.066834956407547,0.006927680689841509,-0.0016554208705201745
1751013915729560600,8.198560546875,-0.05070525407791138,0.0065069012343883514,-0.016528110951185226
1751013915739503600,8.208503662109376,-0.03026735782623291,0.013803962618112564,-0.021951371803879738
1751013915749447700,8.21844775390625,-0.00532552320510149,0.01751188188791275,-0.015460182912647724
1751013915759390700,8.228390625,0.008773517794907093,0.02382144331932068,-0.006228334736078978
1751013915769334800,8.238334716796874,0.014455904252827168,0.02052045427262783,-0.0006058691651560366
1751013915779277800,8.24827783203125,0.008265386335551739,0.01480770856142044,0.0002519350382499397
1751013915789222000,8.258221923828126,0.0018157431622967124,-0.004738030023872852,-0.011224957183003426
1751013915799165700,8.268165771484375,-0.006869623903185129,-0.020954549312591553,-0.01890391670167446
1751013915809108700,8.278108642578125,-0.011802863329648972,-0.02599724568426609,-0.01919792965054512
1751013915819052800,8.288052734375,-0.011393802240490913,-0.026702716946601868,-0.011934423819184303
1751013915828995600,8.29799560546875,-0.011503524146974087,-0.021079186350107193,-0.0029726203065365553
1751013915838940000,8.30793994140625,0.003921238239854574,-0.012692891992628574,-0.0012306467397138476
1751013915848883000,8.317883056640625,0.018160628154873848,0.004366785287857056,0.001404284848831594
1751013915858826800,8.32782666015625,0.029279591515660286,0.013912087306380272,-0.008742092177271843
1751013915868769800,8.337769775390624,0.03538435697555542,0.003168629016727209,-0.02654372714459896
1751013915878713900,8.3477138671875,0.03909973055124283,-0.012352540157735348,-0.043593816459178925
1751013915888657000,8.357656982421876,0.04014928266406059,-0.036639504134655,-0.0547492653131485
1751013915898600700,8.3676005859375,0.03192916885018349,-0.06385327875614166,-0.056164201349020004
1751013915908543700,8.377543701171875,0.021078919991850853,-0.08860203623771667,-0.047925446182489395
1751013915918487800,8.38748779296875,0.01332592498511076,-0.09222500026226044,-0.022585203871130943
1751013915928431900,8.397431884765625,0.022058164700865746,-0.06227029860019684,0.01575499400496483
1751013915938374700,8.407374755859376,0.04049735888838768,-0.022306371480226517,0.04923785477876663
1751013915948318700,8.417318603515625,0.06215658038854599,0.014021542854607105,0.06744349002838135
1751013915958261800,8.42726171875,0.08313749730587006,0.04193280264735222,0.05627472326159477
1751013915968205600,8.43720556640625,0.09954523295164108,0.05750856548547745,0.01876836083829403
1751013915978148600,8.447148681640625,0.10946177691221237,0.054731689393520355,-0.030015423893928528
1751013915988093000,8.457093017578124,0.10688037425279617,0.04597574844956398,-0.06929438561201096
1751013915998036000,8.467035888671875,0.08615432679653168,0.032759279012680054,-0.09119702130556107
1751013916007979800,8.476979736328126,0.048100683838129044,0.011358648538589478,-0.08652184158563614
1751013916017922800,8.4869228515625,0.014337659813463688,-0.007444334216415882,-0.057438258081674576
1751013916027867000,8.496866943359375,-0.013770407065749168,-0.027336549013853073,-0.022938871756196022
1751013916037810700,8.506810791015624,-0.03416702523827553,-0.04463351517915726,0.01008246187120676
1751013916047753700,8.516753662109375,-0.03963316231966019,-0.05380703881382942,0.030043918639421463
1751013916057697800,8.52669775390625,-0.03067908249795437,-0.05263524875044823,0.032639436423778534
1751013916067640800,8.536640869140625,-0.015113173052668571,-0.037754833698272705,0.019602729007601738
1751013916077584600,8.546584716796875,0.005255215801298618,-0.02569018304347992,-0.0021110877860337496
1751013916087527700,8.556527587890624,0.01931564137339592,-0.007968444377183914,-0.023673105984926224
1751013916097471700,8.5664716796875,0.028668928891420364,0.010777546092867851,-0.03453747183084488
1751013916107414800,8.576414794921876,0.03939986974000931,0.022098110988736153,-0.04102040454745293
1751013916117358800,8.58635888671875,0.04123185947537422,0.022043250501155853,-0.04548279568552971
1751013916127301600,8.596301513671875,0.039139147847890854,0.017017599195241928,-0.03918442130088806
1751013916137246000,8.606245849609374,0.029683327302336693,0.004762264434248209,-0.034263696521520615
1751013916147189800,8.616189697265625,0.010135192424058914,-0.009194563142955303,-0.024096015840768814
1751013916157132800,8.6261328125,-0.006746053230017424,-0.018576348200440407,-0.022822758182883263
1751013916167076900,8.636076904296875,-0.015970177948474884,-0.02382384054362774,-0.01599734276533127
1751013916177020000,8.64602001953125,-0.01792920008301735,-0.021260282024741173,-0.008792426437139511
1751013916186963700,8.655963623046874,-0.015740348026156425,-0.01437893882393837,-0.005852829199284315
1751013916196906800,8.66590673828125,-0.007872037589550018,-0.00640889722853899,-0.008280300535261631
1751013916206850800,8.675850830078126,0.00615270109847188,-0.004319380968809128,-0.005230980925261974
1751013916216793900,8.6857939453125,0.01661199890077114,0.0025425199419260025,-0.00720651401206851
1751013916226737700,8.695737548828125,0.02153565175831318,0.005340969655662775,-0.013318735174834728
1751013916236680700,8.7056806640625,0.02412477694451809,0.0051958272233605385,-0.021981731057167053
1751013916246624800,8.715624755859375,0.026023078709840775,0.008527974598109722,-0.022599851712584496
1751013916256568800,8.72556884765625,0.027512850239872932,0.020108463242650032,-0.021705295890569687
1751013916266512000,8.735511962890625,0.024478178471326828,0.03368206322193146,-0.020258134230971336
1751013916276456000,8.7454560546875,0.01984853856265545,0.03543495759367943,-0.024775654077529907
1751013916286399000,8.75539892578125,0.01583116129040718,0.022397451102733612,-0.03912023827433586
1751013916296342800,8.7653427734375,0.008640093728899956,0.0008266451768577099,-0.0575391910970211
1751013916306285800,8.775285888671876,0.004766259342432022,-0.025463014841079712,-0.06976310163736343
1751013916316230000,8.78522998046875,0.005681854207068682,-0.04363802447915077,-0.06346872448921204
1751013916326173000,8.7951728515625,0.006910370197147131,-0.05837276205420494,-0.04950416833162308
1751013916336116700,8.80511669921875,0.004729773849248886,-0.06886934489011765,-0.03281653672456741
1751013916346059800,8.815059814453125,0.014427408576011658,-0.07316982001066208,-0.012525378726422787
1751013916356003800,8.82500390625,0.02412477694451809,-0.0667492002248764,0.011410580016672611
1751013916365947000,8.83494677734375,0.032173916697502136,-0.055443551391363144,0.027938157320022583
1751013916375890700,8.844890625,0.04060468450188637,-0.03945686295628548,0.04273388162255287
1751013916385834800,8.854834716796875,0.052627526223659515,-0.020554808899760246,0.04956568777561188
1751013916395777800,8.86477783203125,0.06405621767044067,-0.00011638013529591262,0.051303666085004807
1751013916405721900,8.874721923828124,0.06953486800193787,0.01859951764345169,0.04663035273551941
1751013916415665000,8.884664794921875,0.06694228202104568,0.029760558158159256,0.030590400099754333
1751013916425609000,8.89460888671875,0.05528802424669266,0.03297499567270279,0.006344715133309364
1751013916435552000,8.904552001953125,0.04221749305725098,0.031565647572278976,-0.01648470014333725
1751013916445495800,8.914495849609375,0.027210848405957222,0.02587926760315895,-0.03026602603495121
1751013916455438800,8.92443896484375,0.013272928074002266,0.015250325202941895,-0.031370971351861954
1751013916465383000,8.9343828125,-0.005726595409214497,0.00020426444825716317,-0.017656225711107254
1751013916475325700,8.94432568359375,-0.016344351693987846,-0.013056945987045765,0.0012066783383488655
1751013916485269800,8.954269775390625,-0.021443773061037064,-0.013440174981951714,0.02648034319281578
1751013916495213800,8.9642138671875,-0.018871691077947617,-0.0067788101732730865,0.045813027769327164
1751013916505156900,8.974156982421874,-0.012776515446603298,0.003114300547167659,0.058993011713027954
1751013916515100700,8.9841005859375,0.000022903184799361043,0.029164010658860207,0.06639526784420013
1751013916525043700,8.994043701171876,0.007305583450943232,0.05024879053235054,0.05392954498529434
1751013916534988000,9.003988037109375,0.02171541564166546,0.05049752816557884,0.028593027964234352
1751013916544930800,9.013930908203125,0.024816665798425674,0.04427718371152878,0.0054578823037445545
1751013916554875000,9.023875,0.028110196813941002,0.03419072553515434,-0.021146563813090324
1751013916564818000,9.03381787109375,0.021951904520392418,0.01660028100013733,-0.036426182836294174
1751013916574762000,9.043761962890626,0.011417770758271217,0.002755040070042014,-0.03533322364091873
1751013916584704800,9.053704833984375,-0.00020586235041264445,-0.006777478381991386,-0.03261813148856163
1751013916594648800,9.06364892578125,-0.011846539564430714,-0.006706904619932175,-0.022590529173612595
1751013916604593000,9.073593017578125,-0.021168401464819908,-0.006702111102640629,-0.011926167644560337
1751013916614536000,9.083535888671875,-0.036430712789297104,-0.006587328854948282,-0.0031198931392282248
1751013916624479700,9.093479736328124,-0.051958538591861725,-0.018639463931322098,-0.0027079021092504263
1751013916634422800,9.1034228515625,-0.06855509430170059,-0.04896807670593262,-0.009328787215054035
1751013916644366800,9.113366943359376,-0.08506190031766891,-0.07214929163455963,-0.01341620646417141
1751013916654309600,9.1233095703125,-0.08467201143503189,-0.07766257226467133,-0.007876032963395119
1751013916664253700,9.133253662109375,-0.06829223781824112,-0.05934667959809303,0.00806325301527977
1751013916674196700,9.14319677734375,-0.048561941832304,-0.03275608271360397,0.021015536040067673
1751013916684140800,9.153140869140625,-0.03701287880539894,-0.028660673648118973,0.011574097909033298
1751013916694083600,9.16308349609375,-0.03931731358170509,-0.02700924687087536,-0.00902918167412281
1751013916704028000,9.17302783203125,-0.04595763608813286,-0.02779487892985344,-0.042455848306417465
1751013916713972000,9.182971923828125,-0.05752135068178177,-0.03074725903570652,-0.07590461522340775
1751013916723914800,9.192914794921874,-0.06683681905269623,-0.04397278279066086,-0.09631907939910889
1751013916733858800,9.20285888671875,-0.07454507052898407,-0.07254131138324738,-0.10324089974164963
1751013916743801900,9.2128017578125,-0.07761356979608536,-0.09443915635347366,-0.08820150047540665
1751013916753746000,9.222745849609375,-0.08430609107017517,-0.09869302064180374,-0.06305193901062012
1751013916763688700,9.232688720703125,-0.08648775517940521,-0.09808049350976944,-0.04074476659297943
1751013916773632800,9.2426328125,-0.0865548625588417,-0.09391717612743378,-0.024386566132307053
1751013916783575800,9.252575927734375,-0.0882481038570404,-0.07920853793621063,-0.017138773575425148
1751013916793519600,9.26251953125,-0.08469624817371368,-0.05350636690855026,-0.028794096782803535
1751013916803462700,9.272462646484374,-0.06894391030073166,-0.026607375591993332,-0.04965011030435562
1751013916813406500,9.282406494140625,-0.04535895958542824,0.005898102652281523,-0.07004406303167343
1751013916823350500,9.2923505859375,-0.022211829200387,0.04760000854730606,-0.08689361810684204
1751013916833293300,9.302293212890625,0.00004953479583491571,0.07814859598875046,-0.09023614972829819
1751013916843237400,9.3122373046875,0.015631956979632378,0.09492651373147964,-0.08334442228078842
1751013916853180400,9.322180419921875,0.022396119311451912,0.10637544095516205,-0.06142580881714821
1751013916863124700,9.332124755859375,0.021017400547862053,0.12999768555164337,-0.03472975268959999
1751013916873067500,9.342067626953124,0.011446000076830387,0.13986043632030487,-0.010971425101161003
1751013916883011600,9.352011474609375,-0.0035380094777792692,0.13726678490638733,0.0015041533624753356
1751013916892954600,9.36195458984375,-0.019243203103542328,0.13660071790218353,-0.011298194527626038
1751013916902898400,9.3718984375,-0.023394271731376648,0.12625327706336975,-0.03038373775780201
1751013916912841500,9.381841552734375,-0.022950856015086174,0.09959077090024948,-0.0430220365524292
1751013916922785500,9.39178564453125,-0.018571553751826286,0.07494854182004929,-0.04103638231754303
1751013916932729600,9.4017294921875,-0.008068845607340336,0.0548347532749176,-0.018143316730856895
1751013916942672400,9.41167236328125,0.008071774616837502,0.042026545852422714,0.020413130521774292
1751013916952616400,9.421616455078125,0.02846572920680046,0.0350290909409523,0.05387281998991966
1751013916962559500,9.4315595703125,0.04840455204248428,0.035406991839408875,0.08389410376548767
1751013916972503300,9.44150341796875,0.06969466060400009,0.040700823068618774,0.09547192603349686
1751013916982446300,9.4514462890625,0.07259271293878555,0.04543352872133255,0.08663476258516312
1751013916992390700,9.461390625,0.0781954675912857,0.04356478899717331,0.06326872110366821
1751013917002333400,9.47133349609375,0.08162615448236465,0.036800358444452286,0.03407328203320503
1751013917012277500,9.481277587890625,0.0874028131365776,0.0287602748721838,0.007188404444605112
1751013917022220500,9.491220458984374,0.09096266329288483,0.022823557257652283,-0.014615427702665329
1751013917032164600,9.50116455078125,0.11002210527658463,0.0000977380113909021,-0.049069806933403015
1751013917042108400,9.5111083984375,0.13608379662036896,-0.029738187789916992,-0.0751408264040947
1751013917052051500,9.521051513671875,0.1330653727054596,-0.051261056214571,-0.09924323111772537
1751013917061995500,9.53099560546875,0.11817777156829834,-0.05109434202313423,-0.10283130407333374
1751013917071938600,9.5409384765625,0.10007653385400772,-0.035778503865003586,-0.09627380222082138
1751013917081882400,9.55088232421875,0.07821623980998993,-0.013925403356552124,-0.07260043174028397
1751013917091825400,9.560825439453126,0.052566803991794586,0.007023554760962725,-0.043413255363702774
1751013917101769500,9.57076953125,0.023877901956439018,0.02359427511692047,-0.020208066329360008
1751013917111712500,9.58071240234375,-0.0007238471880555153,0.026496056467294693,0.007438741624355316
1751013917121656300,9.59065625,-0.017461813986301422,0.019115371629595757,0.03684483468532562
1751013917131600600,9.6006005859375,-0.027820711955428123,0.013406619429588318,0.06203274428844452
1751013917141543700,9.610543701171874,-0.04591209813952446,0.012515791691839695,0.0713420882821083
1751013917151487500,9.620487548828125,-0.06938706338405609,0.008312257938086987,0.07397063076496124
1751013917161430500,9.630430419921876,-0.08119125664234161,0.008872054517269135,0.06563493609428406
1751013917171374600,9.64037451171875,-0.07861678302288055,0.013457751832902431,0.056881923228502274
1751013917181317600,9.650317626953125,-0.07036923617124557,0.029682794585824013,0.0477273091673851
1751013917191261400,9.660261474609374,-0.05668165534734726,0.046293195337057114,0.03136591240763664
1751013917201204500,9.67020458984375,-0.03954075276851654,0.06414622813463211,0.005460012704133987
1751013917211148500,9.6801484375,-0.02148931287229061,0.06842779368162155,-0.020836573094129562
1751013917221091600,9.690091552734375,-0.005541505757719278,0.054717306047677994,-0.046421561390161514
1751013917231035400,9.700035400390625,-0.0016192019684240222,0.034269824624061584,-0.06118479371070862
1751013917240979500,9.7099794921875,-0.013945110142230988,0.019589679315686226,-0.06209959089756012
1751013917250922500,9.719922607421875,-0.023095466196537018,0.009169530123472214,-0.05149541422724724
1751013917260866300,9.7298662109375,-0.03934820368885994,0.0011094729416072369,-0.04084223881363869
1751013917270809300,9.739809326171875,-0.054192397743463516,-0.007976965978741646,-0.047205064445734024
1751013917280753700,9.749753662109375,-0.06299121677875519,-0.022066686302423477,-0.0467376783490181
1751013917290696700,9.75969677734375,-0.0671398863196373,-0.025536784902215004,-0.050286874175071716
1751013917300640500,9.769640625,-0.065433070063591,-0.0224445890635252,-0.044509146362543106
1751013917310583600,9.77958349609375,-0.06686291843652725,-0.01607377454638481,-0.03466849774122238
1751013917320527600,9.789527587890625,-0.05940287187695503,-0.002805906580761075,-0.004299673717468977
1751013917330470700,9.799470703125,-0.04922746866941452,0.014417821541428566,0.03130572289228439
1751013917340414500,9.80941455078125,-0.028272384777665138,0.017784323543310165,0.0759565457701683
1751013917350358500,9.819358642578125,0.000990962260402739,0.015450594946742058,0.12051443010568619
1751013917360301600,9.829301513671876,0.036428581923246384,0.015439409762620926,0.16307760775089264
1751013917370245400,9.839245361328125,0.05784519016742706,0.008485097438097,0.1839999258518219
1751013917380188400,9.8491884765625,0.04872466251254082,-0.0219108909368515,0.16874827444553375
1751013917390132500,9.859132568359374,0.02436845563352108,-0.05534261837601662,0.131896510720253
1751013917400075500,9.869075439453125,0.001746501075103879,-0.07755497843027115,0.0961528941988945
1751013917410019600,9.87901953125,-0.01362526509910822,-0.08484085649251938,0.06341945379972458
1751013917419962400,9.88896240234375,-0.017603227868676186,-0.07570941001176834,0.0505467988550663
1751013917429906700,9.89890673828125,-0.005260275676846504,-0.04848524555563927,0.0448891781270504
1751013917439849700,9.908849609375,0.023729564622044563,-0.015307051129639149,0.04165370389819145
1751013917449793500,9.91879345703125,0.056766077876091,0.016584303230047226,0.033242374658584595
1751013917459737600,9.928737548828124,0.08565311878919601,0.045826610177755356,0.018741464242339134
1751013917469680600,9.9386806640625,0.09816784411668777,0.062132347375154495,-0.0022152173332870007
1751013917479624400,9.94862451171875,0.09333900362253189,0.07057776302099228,-0.024920795112848282
1751013917489567500,9.9585673828125,0.08154971897602081,0.08243256062269211,-0.04785913601517677
1751013917499511600,9.968511474609375,0.07223717868328094,0.08510823547840118,-0.07419673353433609
1751013917509454600,9.97845458984375,0.057140517979860306,0.08306985348463058,-0.08922974765300751
1751013917519398400,9.9883984375,0.04905356094241142,0.08113080263137817,-0.09001058340072632
1751013917529341400,9.998341552734376,0.04551049321889877,0.07607559114694595,-0.07297753542661667
1751013917539285500,10.008285400390625,0.050769705325365067,0.08537109196186066,-0.040765538811683655
1751013917549229600,10.0182294921875,0.06907095015048981,0.0968642309308052,0.006771087180823088
1751013917559172600,10.028172607421874,0.07699944078922272,0.102690689265728,0.04555896297097206
1751013917569116700,10.03811669921875,0.07154369354248047,0.10375808924436569,0.07070213556289673
1751013917579059700,10.048059814453126,0.04463111609220505,0.10300814360380173,0.07265129685401917
1751013917589003500,10.05800341796875,0.012591425329446793,0.10502175986766815,0.039867255836725235
1751013917598946600,10.067946533203125,-0.021017400547862053,0.08373590558767319,-0.013304087333381176
1751013917608890600,10.077890625,-0.03959747776389122,0.06733936071395874,-0.06445489078760147
1751013917618833700,10.087833740234375,-0.05134574696421623,0.06596117466688156,-0.09143910557031631
1751013917628777500,10.097777587890626,-0.04988526925444603,0.07524175941944122,-0.08346612751483917
1751013917638720500,10.107720458984375,-0.04409129545092583,0.08389037102460861,-0.051962532103061676
1751013917648664600,10.11766455078125,-0.03026070073246956,0.08827020972967148,0.0000655137628200464
1751013917658608400,10.1276083984375,-0.012532835826277733,0.09263566136360168,0.048103880137205124
1751013917668551400,10.137551513671875,0.004024835303425789,0.09693507105112076,0.07923649996519089
1751013917678495500,10.14749560546875,0.008742358535528183,0.09144469350576401,0.07353387027978897
1751013917688438500,10.1574384765625,0.000028229507734067738,0.07865619659423828,0.047796282917261124
1751013917698382600,10.167382568359375,-0.004867991898208857,0.07182785123586655,0.011515774764120579
1751013917708325600,10.17732568359375,-0.003436543047428131,0.07952278852462769,-0.019885823130607605
1751013917718269700,10.187269775390625,0.001350222621113062,0.09140368551015854,-0.04387398064136505
1751013917728212500,10.19721240234375,0.007804127410054207,0.08685021102428436,-0.060150157660245895
1751013917738156500,10.207156494140625,0.004928978625684977,0.0650266706943512,-0.061635132879018784
1751013917748100600,10.2171005859375,-0.0030988543294370174,0.03995460644364357,-0.05877703055739403
1751013917758043600,10.227043701171874,-0.007243531756103039,0.01966824382543564,-0.04511554539203644
1751013917767987500,10.236987548828125,-0.00221947836689651,-0.007244863547384739,-0.028447620570659637
1751013917777930500,10.246930419921876,0.007451258134096861,-0.034445859491825104,-0.012737899087369442
1751013917787874600,10.25687451171875,0.011884888634085655,-0.05312766507267952,-0.0070914654061198235
1751013917797817300,10.2668173828125,0.019055983051657677,-0.06434889882802963,-0.005724464543163776
1751013917807761700,10.27676171875,0.018514562398195267,-0.06759582459926605,-0.00954077485948801
1751013917817704700,10.28670458984375,0.017831195145845413,-0.07053941488265991,-0.010418818332254887
1751013917827648800,10.296648681640624,0.0167962908744812,-0.06292357295751572,-0.005272526293992996
1751013917837591800,10.306591796875,0.02317376248538494,-0.0481286458671093,0.004018709994852543
1751013917847535900,10.316535888671876,0.03238670155405998,-0.025199096649885178,0.002538258908316493
1751013917857480000,10.32647998046875,0.03628210723400116,-0.008104265667498112,-0.006654706783592701
1751013917867422700,10.336422607421875,0.02972353994846344,0.002891926560550928,-0.02287255972623825
1751013917877366800,10.34636669921875,0.021815283223986626,0.007902930490672588,-0.03883394971489906
1751013917887309800,10.356309814453125,0.01617950201034546,0.007850732654333115,-0.043292079120874405
1751013917897253600,10.366253662109376,0.004567321389913559,-0.009236907586455345,-0.03970187157392502
1751013917907196700,10.37619677734375,0.005692773032933474,-0.03226286545395851,-0.026616962626576424
1751013917917140700,10.386140625,0.00016165387933142483,-0.06124391779303551,-0.009544769302010536
1751013917927083800,10.396083740234374,-0.006383596919476986,-0.08409862965345383,0.002017078222706914
1751013917937027600,10.406027587890625,-0.016209596768021584,-0.1012113094329834,0.012051336467266083
1751013917946971600,10.4159716796875,-0.024157267063856125,-0.10750222206115723,0.015795741230249405
1751013917956914700,10.425914794921875,-0.032350484281778336,-0.10596717894077301,0.01600160263478756
1751013917966858800,10.435858642578125,-0.038952991366386414,-0.09495767205953598,0.015397598035633564
1751013917976801800,10.4458017578125,-0.042444128543138504,-0.07317753881216049,0.020658141002058983
1751013917986745900,10.455745849609375,-0.03339763730764389,-0.0479627326130867,0.02846786007285118
1751013917996689000,10.46568896484375,-0.015915051102638245,-0.02834508940577507,0.04619519039988518
1751013918006632700,10.4756328125,-0.005932191386818886,-0.01137036643922329,0.05974695459008217
1751013918016575700,10.48557568359375,-0.005885319784283638,0.009068596176803112,0.07455279678106308
1751013918026519800,10.495519775390624,-0.013806892558932304,0.035357989370822906,0.09003482013940811
1751013918036463600,10.505463623046875,-0.0391058586537838,0.042625490576028824,0.09166201204061508
1751013918046406700,10.51540673828125,-0.06409110128879547,0.01269741915166378,0.09723573923110962
1751013918056350700,10.525350830078125,-0.08051854372024536,-0.025070199742913246,0.11692848056554794
1751013918066293800,10.535293701171875,-0.07978803664445877,-0.04116474837064743,0.1368662416934967
1751013918076237600,10.545237548828124,-0.06933939456939697,-0.03422961011528969,0.14964035153388977
1751013918086180600,10.5551806640625,-0.052745502442121506,-0.019391540437936783,0.14539767801761627
1751013918096124700,10.565124755859374,-0.026934145018458366,-0.00820839498192072,0.11051372438669205
1751013918106067700,10.575067626953125,0.003507649526000023,0.002987001556903124,0.06132514402270317
1751013918116011800,10.58501171875,0.02208639308810234,0.020565463230013847,0.0002769687562249601
1751013918125954800,10.594954833984374,0.030166691169142723,0.0326511524617672,-0.07414080947637558
1751013918135899000,10.60489892578125,0.02859143167734146,0.02353328838944435,-0.13262249529361725
1751013918145842700,10.6148427734375,0.021208882331848145,-0.004245611373335123,-0.149396151304245
1751013918155785700,10.62478564453125,0.019337745383381844,-0.00788561999797821,-0.1303718537092209
1751013918165729800,10.634729736328126,0.013382917270064354,-0.016079101711511612,-0.08473219722509384
1751013918175672800,10.6446728515625,0.000049801110435510054,-0.02725292555987835,-0.04418930038809776
1751013918185616600,10.65461669921875,-0.011492072604596615,-0.0475776381790638,-0.0049249837175011635
1751013918195559700,10.6645595703125,-0.007778294384479523,-0.0622846782207489,0.03387727215886116
1751013918205503700,10.674503662109375,-0.0001174454009742476,-0.05699431151151657,0.06746666133403778
1751013918215446800,10.68444677734375,0.020784107968211174,-0.026631610468029976,0.09026145190000534
1751013918225390600,10.694390625,0.04408703371882439,0.008511196821928024,0.08101814985275269
1751013918235335000,10.7043349609375,0.05516818165779114,0.029198098927736282,0.05029672756791115
1751013918245278000,10.71427783203125,0.04737523943185806,0.0437549389898777,0.005026184022426605
1751013918255221800,10.7242216796875,0.04006752371788025,0.05662679299712181,-0.027592478320002556
1751013918265164800,10.734164794921876,0.032107334583997726,0.07211174070835114,-0.04902613162994385
1751013918275108900,10.74410888671875,0.02111753635108471,0.08317824453115463,-0.06265592575073242
1751013918285052000,10.754052001953125,0.006472013890743256,0.08069618046283722,-0.07308326661586761
1751013918294995700,10.76399560546875,0.003751328680664301,0.06506288796663284,-0.07362814992666245
1751013918304938800,10.773938720703125,-0.003230947069823742,0.04597841203212738,-0.07342202216386795
1751013918314882800,10.7838828125,-0.018436796963214874,0.027940554544329643,-0.07107550650835037
1751013918324826600,10.79382666015625,-0.025784192606806755,0.007360977120697498,-0.06733856350183487
1751013918334769700,10.803769775390625,-0.03345649316906929,-0.009922405704855919,-0.06933459639549255
1751013918344713700,10.813713623046874,-0.037277329713106155,-0.024443557485938072,-0.07079347968101501
1751013918354656800,10.82365673828125,-0.027211114764213562,-0.030354177579283714,-0.0754055380821228
1751013918364600600,10.8336005859375,-0.0163616631180048,-0.03057841584086418,-0.07619889825582504
1751013918374543600,10.843543701171875,-0.004882107023149729,-0.029339779168367386,-0.07194316387176514
1751013918384488000,10.853488037109376,-0.006231796927750111,-0.030434338375926018,-0.058526959270238876
1751013918394431000,10.863430908203124,-0.02137186750769615,-0.04259992390871048,-0.036550287157297134
1751013918404374800,10.873374755859375,-0.050154514610767365,-0.050881024450063705,-0.000493750034365803
1751013918414317800,10.88331787109375,-0.060937121510505676,-0.04548998549580574,0.03594308719038963
1751013918424262000,10.893261962890625,-0.036558810621500015,-0.06928959488868713,0.025956498458981514
1751013918434205700,10.903205810546876,-0.006042179651558399,-0.05238810554146767,-0.010155964642763138
1751013918444148700,10.913148681640624,0.00620995881035924,-0.009732522070407867,-0.046959251165390015
1751013918454092800,10.9230927734375,-0.000031691615731688216,0.0151605773717165,-0.08324029296636581
