time,seconds_elapsed,z,y,x
1751015431027935500,0.348935546875,-0.9849395751953125,-0.2083740234375,0.020843505859375
1751015431037878500,0.35887841796875,-0.9866943359375,-0.2120819091796875,0.02459716796875
1751015431047821600,0.368821533203125,-0.989013671875,-0.216796875,0.0247039794921875
1751015431057764600,0.3787646484375,-0.9855194091796875,-0.21514892578125,0.0223236083984375
1751015431067707600,0.388707763671875,-0.9856414794921875,-0.21209716796875,0.01727294921875
1751015431077650400,0.398650390625,-0.98565673828125,-0.211334228515625,0.014739990234375
1751015431087593500,0.408593505859375,-0.98907470703125,-0.211151123046875,0.010162353515625
1751015431097537500,0.41853759765625,-0.98876953125,-0.21124267578125,0.007537841796875
1751015431107480600,0.42848046875,-0.984405517578125,-0.2145843505859375,0.00506591796875
1751015431117423600,0.438423583984375,-0.9830474853515625,-0.2162628173828125,0.0031585693359375
1751015431127366700,0.44836669921875,-0.99029541015625,-0.2161407470703125,0.00152587890625
1751015431137309400,0.458309326171875,-0.990234375,-0.2206573486328125,0.0012664794921875
1751015431147252500,0.46825244140625,-0.9859619140625,-0.2222747802734375,0.00360107421875
1751015431157195500,0.478195556640625,-0.9878082275390625,-0.2224578857421875,0.0057525634765625
1751015431167138600,0.488138671875,-0.986541748046875,-0.225555419921875,0.0056304931640625
1751015431177081600,0.49808154296875,-0.985321044921875,-0.225677490234375,0.0080718994140625
1751015431187024600,0.508024658203125,-0.988250732421875,-0.2246246337890625,0.012908935546875
1751015431196967700,0.5179677734375,-0.98681640625,-0.224945068359375,0.0164947509765625
1751015431206910700,0.52791064453125,-0.9840545654296875,-0.2264862060546875,0.018768310546875
1751015431216853500,0.537853515625,-0.983062744140625,-0.225341796875,0.02032470703125
1751015431226796300,0.54779638671875,-0.982635498046875,-0.2262115478515625,0.0224609375
1751015431236739300,0.5577392578125,-0.9822235107421875,-0.2269287109375,0.02252197265625
1751015431246682400,0.567682373046875,-0.979705810546875,-0.227874755859375,0.022552490234375
1751015431256626700,0.577626708984375,-0.9754638671875,-0.22857666015625,0.0234375
1751015431266569700,0.58756982421875,-0.9743194580078125,-0.2279510498046875,0.025115966796875
1751015431276512500,0.597512451171875,-0.9756011962890625,-0.2307586669921875,0.0267333984375
1751015431286455300,0.607455322265625,-0.9710845947265625,-0.2332763671875,0.02459716796875
1751015431296398300,0.6173984375,-0.964324951171875,-0.2328948974609375,0.018341064453125
1751015431306341400,0.62734130859375,-0.96722412109375,-0.23162841796875,0.015380859375
1751015431316284400,0.637284423828125,-0.9703521728515625,-0.231414794921875,0.0158538818359375
1751015431326227500,0.6472275390625,-0.9684295654296875,-0.230010986328125,0.0146331787109375
1751015431336170500,0.65717041015625,-0.9662322998046875,-0.2271728515625,0.0131988525390625
1751015431346113500,0.667113525390625,-0.9642333984375,-0.225189208984375,0.0131683349609375
1751015431356056600,0.677056640625,-0.96337890625,-0.2225494384765625,0.015960693359375
1751015431365999400,0.686999267578125,-0.970184326171875,-0.21893310546875,0.0178375244140625
1751015431375942400,0.6969423828125,-0.97601318359375,-0.2171783447265625,0.018218994140625
1751015431385885400,0.706885498046875,-0.97711181640625,-0.2142333984375,0.0198822021484375
1751015431395828500,0.716828369140625,-0.97845458984375,-0.2088470458984375,0.0213623046875
1751015431405772500,0.7267724609375,-0.975860595703125,-0.20489501953125,0.018341064453125
1751015431415715600,0.736715576171875,-0.9730987548828125,-0.199615478515625,0.0093231201171875
1751015431425658400,0.746658447265625,-0.9727020263671875,-0.1889801025390625,0.005584716796875
1751015431435601400,0.756601318359375,-0.972137451171875,-0.1821746826171875,0.0010833740234375
1751015431445544400,0.76654443359375,-0.974151611328125,-0.1758575439453125,-0.0003204345703125
1751015431455487500,0.776487548828125,-0.982666015625,-0.1706390380859375,0.004302978515625
1751015431465430300,0.78643017578125,-0.983795166015625,-0.1671600341796875,0.010498046875
1751015431475373300,0.796373291015625,-0.97705078125,-0.1649169921875,0.0140380859375
1751015431485316400,0.80631640625,-0.9750823974609375,-0.162933349609375,0.0155181884765625
1751015431495259400,0.81625927734375,-0.9743499755859375,-0.165069580078125,0.0180816650390625
1751015431505202200,0.8262021484375,-0.971282958984375,-0.16973876953125,0.023040771484375
1751015431515145200,0.836145263671875,-0.9685211181640625,-0.177703857421875,0.027984619140625
1751015431525088300,0.846088134765625,-0.967987060546875,-0.185150146484375,0.0359954833984375
1751015431535031300,0.85603125,-0.969879150390625,-0.19158935546875,0.043121337890625
1751015431544975400,0.865975341796875,-0.9736175537109375,-0.1998138427734375,0.054595947265625
1751015431554918400,0.87591845703125,-0.97943115234375,-0.2094268798828125,0.06640625
1751015431564861200,0.885861083984375,-0.984710693359375,-0.2130584716796875,0.076141357421875
1751015431574804200,0.89580419921875,-0.9877777099609375,-0.209991455078125,0.0859375
1751015431584747300,0.905747314453125,-0.991546630859375,-0.2067108154296875,0.09466552734375
1751015431594690300,0.915690185546875,-0.994903564453125,-0.2036285400390625,0.1013031005859375
1751015431604633300,0.92563330078125,-0.9988861083984375,-0.2043609619140625,0.10638427734375
1751015431614576400,0.935576416015625,-1.0036468505859375,-0.2073516845703125,0.108917236328125
1751015431624519400,0.94551953125,-1.0017242431640625,-0.21209716796875,0.1034088134765625
1751015431634462500,0.95546240234375,-0.9964141845703125,-0.2219696044921875,0.097686767578125
1751015431644405200,0.9654052734375,-0.9913482666015625,-0.236419677734375,0.0914154052734375
1751015431654348300,0.975348388671875,-0.992462158203125,-0.249542236328125,0.0872344970703125
1751015431664291300,0.985291259765625,-0.9965362548828125,-0.259674072265625,0.0796661376953125
1751015431674234400,0.995234375,-0.9968414306640625,-0.2639312744140625,0.0714111328125
1751015431684177400,1.005177490234375,-0.9996490478515625,-0.2631378173828125,0.0623016357421875
1751015431694121500,1.01512158203125,-1.0066375732421875,-0.26385498046875,0.0567474365234375
1751015431704064300,1.025064208984375,-1.0111236572265625,-0.2666778564453125,0.0506439208984375
1751015431714007300,1.03500732421875,-1.0081787109375,-0.2654571533203125,0.0462188720703125
1751015431723950300,1.044950439453125,-1.002685546875,-0.2613067626953125,0.0393218994140625
1751015431733893400,1.054893310546875,-0.9974517822265625,-0.2578125,0.0330047607421875
1751015431743836400,1.06483642578125,-0.98931884765625,-0.257415771484375,0.027557373046875
1751015431753779500,1.074779541015625,-0.9781494140625,-0.262298583984375,0.020538330078125
1751015431763722500,1.084722412109375,-0.964874267578125,-0.2657623291015625,0.016571044921875
1751015431773665500,1.09466552734375,-0.9588470458984375,-0.26702880859375,0.0194549560546875
1751015431783608300,1.1046083984375,-0.957489013671875,-0.2710113525390625,0.027069091796875
1751015431793551400,1.11455126953125,-0.95135498046875,-0.273834228515625,0.037109375
1751015431803494400,1.124494384765625,-0.9507598876953125,-0.2756805419921875,0.0449676513671875
1751015431813437400,1.1344375,-0.952056884765625,-0.2761383056640625,0.05047607421875
1751015431823380500,1.14438037109375,-0.95037841796875,-0.274932861328125,0.051727294921875
1751015431833324500,1.154324462890625,-0.9531097412109375,-0.2706756591796875,0.0549468994140625
1751015431843267300,1.164267333984375,-0.95916748046875,-0.2674407958984375,0.0616302490234375
1751015431853210400,1.17421044921875,-0.960113525390625,-0.26654052734375,0.0663604736328125
1751015431863153400,1.1841533203125,-0.962432861328125,-0.262725830078125,0.069976806640625
1751015431873096400,1.194096435546875,-0.9649810791015625,-0.2659454345703125,0.0722503662109375
1751015431883039500,1.20403955078125,-0.9671783447265625,-0.2711029052734375,0.0804290771484375
1751015431892982500,1.213982421875,-0.96905517578125,-0.2679443359375,0.0907440185546875
1751015431902925300,1.22392529296875,-0.9681549072265625,-0.26617431640625,0.096893310546875
1751015431912868400,1.233868408203125,-0.9658660888671875,-0.268310546875,0.10076904296875
1751015431922811400,1.243811279296875,-0.96673583984375,-0.2698822021484375,0.1040191650390625
1751015431932754200,1.253754150390625,-0.9650115966796875,-0.2713165283203125,0.1051177978515625
1751015431942697200,1.263697265625,-0.9653778076171875,-0.26715087890625,0.107147216796875
1751015431952640300,1.27364013671875,-0.9707183837890625,-0.2653350830078125,0.1074981689453125
1751015431962584300,1.283584228515625,-0.974945068359375,-0.2696380615234375,0.1038818359375
1751015431972527400,1.29352734375,-0.98065185546875,-0.27557373046875,0.0992584228515625
1751015431982470400,1.303470458984375,-0.9908599853515625,-0.277862548828125,0.09088134765625
1751015431992413200,1.3134130859375,-1.0051422119140625,-0.277069091796875,0.0799102783203125
1751015432002356200,1.323356201171875,-1.0176544189453125,-0.2740631103515625,0.0680084228515625
1751015432012299300,1.33329931640625,-1.031280517578125,-0.2733612060546875,0.0583648681640625
1751015432022242300,1.3432421875,-1.0436248779296875,-0.2745208740234375,0.0480499267578125
1751015432032185300,1.353185302734375,-1.05364990234375,-0.276275634765625,0.038848876953125
1751015432042128400,1.36312841796875,-1.0654449462890625,-0.27880859375,0.0317840576171875
1751015432052071400,1.373071533203125,-1.0692596435546875,-0.2716217041015625,0.0267333984375
1751015432062014500,1.383014404296875,-1.0850067138671875,-0.2636566162109375,0.028289794921875
1751015432071957200,1.392957275390625,-1.1107330322265625,-0.2626190185546875,0.0355072021484375
1751015432081900300,1.402900390625,-1.1351318359375,-0.2653350830078125,0.0486602783203125
1751015432091843300,1.41284326171875,-1.1592559814453125,-0.2687530517578125,0.07073974609375
1751015432101787400,1.422787353515625,-1.1758270263671875,-0.2738494873046875,0.0980682373046875
1751015432111730400,1.43273046875,-1.1841888427734375,-0.274169921875,0.1185302734375
1751015432121673500,1.442673583984375,-1.1945343017578125,-0.2562255859375,0.12744140625
1751015432131616300,1.4526162109375,-1.2249755859375,-0.2200469970703125,0.1288909912109375
1751015432141559300,1.462559326171875,-1.25555419921875,-0.176727294921875,0.1276092529296875
1751015432151502300,1.47250244140625,-1.2714385986328125,-0.132080078125,0.123443603515625
1751015432161445400,1.4824453125,-1.2690277099609375,-0.0797271728515625,0.1180877685546875
1751015432171388400,1.492388427734375,-1.2547607421875,-0.023590087890625,0.108123779296875
1751015432181331500,1.50233154296875,-1.232666015625,0.0236968994140625,0.092681884765625
1751015432191274500,1.5122744140625,-1.1996917724609375,0.0556488037109375,0.081298828125
1751015432201217500,1.522217529296875,-1.1535186767578125,0.0660247802734375,0.066741943359375
1751015432211160300,1.532160400390625,-1.093505859375,0.0679931640625,0.0512542724609375
1751015432221103400,1.542103271484375,-1.0255279541015625,0.060577392578125,0.031585693359375
1751015432231047400,1.55204736328125,-0.9541168212890625,0.0316925048828125,0.0092010498046875
1751015432240990500,1.561990478515625,-0.891143798828125,-0.0071868896484375,-0.0090789794921875
1751015432250933500,1.57193359375,-0.8517913818359375,-0.039642333984375,-0.022003173828125
1751015432260876500,1.58187646484375,-0.835906982421875,-0.0660552978515625,-0.027923583984375
1751015432270819300,1.5918193359375,-0.8307952880859375,-0.092620849609375,-0.027313232421875
1751015432280762400,1.601762451171875,-0.8345184326171875,-0.1205291748046875,-0.03118896484375
1751015432290705400,1.611705322265625,-0.84954833984375,-0.1472930908203125,-0.036224365234375
1751015432300648400,1.6216484375,-0.86676025390625,-0.170196533203125,-0.0412445068359375
1751015432310591500,1.631591552734375,-0.86639404296875,-0.187103271484375,-0.05413818359375
1751015432320535000,1.64153515625,-0.8618011474609375,-0.186187744140625,-0.06683349609375
1751015432330478000,1.65147802734375,-0.8652801513671875,-0.1764373779296875,-0.0718231201171875
1751015432340420900,1.6614208984375,-0.8726654052734375,-0.1687164306640625,-0.072723388671875
1751015432350364000,1.671364013671875,-0.88092041015625,-0.15814208984375,-0.0732574462890625
1751015432360307000,1.681306884765625,-0.9015350341796875,-0.142547607421875,-0.069427490234375
1751015432370251000,1.6912509765625,-0.930145263671875,-0.1266632080078125,-0.06573486328125
1751015432380194000,1.701194091796875,-0.9470672607421875,-0.1140594482421875,-0.05755615234375
1751015432390136800,1.71113671875,-0.9597320556640625,-0.1029052734375,-0.045013427734375
1751015432400080000,1.721079833984375,-0.9677276611328125,-0.0946044921875,-0.0297393798828125
1751015432410023000,1.73102294921875,-0.9714202880859375,-0.0926055908203125,-0.0155029296875
1751015432419966000,1.740966064453125,-0.967864990234375,-0.09918212890625,-0.010711669921875
1751015432429908700,1.75090869140625,-0.95245361328125,-0.110809326171875,-0.0127716064453125
1751015432439851800,1.760851806640625,-0.9339599609375,-0.1261444091796875,-0.0146026611328125
1751015432449794800,1.770794921875,-0.9163360595703125,-0.14617919921875,-0.016998291015625
1751015432459737900,1.78073779296875,-0.8984527587890625,-0.165802001953125,-0.01708984375
1751015432469681000,1.790680908203125,-0.8887176513671875,-0.181549072265625,-0.012542724609375
1751015432479623700,1.800623779296875,-0.879364013671875,-0.195404052734375,-0.0056610107421875
1751015432489567700,1.810567626953125,-0.8643341064453125,-0.21234130859375,0.001922607421875
1751015432499510800,1.8205107421875,-0.85101318359375,-0.229461669921875,0.0116729736328125
1751015432509453800,1.830453857421875,-0.8455657958984375,-0.243255615234375,0.0203857421875
1751015432519396900,1.84039697265625,-0.84637451171875,-0.2572784423828125,0.02410888671875
1751015432529340000,1.85033984375,-0.8515777587890625,-0.267852783203125,0.0280914306640625
1751015432539282700,1.86028271484375,-0.859466552734375,-0.273712158203125,0.0256500244140625
1751015432549225700,1.870225830078125,-0.8762054443359375,-0.275299072265625,0.020721435546875
1751015432559168800,1.880168701171875,-0.894683837890625,-0.2775115966796875,0.014404296875
1751015432569111800,1.89011181640625,-0.9113616943359375,-0.2783660888671875,0.006439208984375
1751015432579054800,1.900054931640625,-0.938812255859375,-0.2760467529296875,0.0062408447265625
1751015432588998000,1.909997802734375,-0.962554931640625,-0.2802581787109375,-0.0003509521484375
1751015432598941000,1.91994091796875,-0.978546142578125,-0.28399658203125,-0.0114288330078125
1751015432608884000,1.929884033203125,-1.0103912353515625,-0.28631591796875,-0.01800537109375
1751015432618827800,1.939827880859375,-1.0474395751953125,-0.289886474609375,-0.01983642578125
1751015432628770800,1.949770751953125,-1.0772247314453125,-0.2932281494140625,-0.0202178955078125
1751015432638713900,1.9597138671875,-1.111053466796875,-0.2877655029296875,-0.016998291015625
1751015432648657000,1.969656982421875,-1.1458587646484375,-0.2769927978515625,-0.01513671875
1751015432658600000,1.979599853515625,-1.1724395751953125,-0.2615203857421875,-0.0154571533203125
1751015432668543000,1.98954296875,-1.2015228271484375,-0.241912841796875,-0.0116424560546875
1751015432678485800,1.99948583984375,-1.2301177978515625,-0.2294921875,-0.003875732421875
1751015432688428800,2.0094287109375,-1.2473297119140625,-0.2346343994140625,0.00286865234375
1751015432698371800,2.019371826171875,-1.2514190673828125,-0.2499237060546875,0.0106201171875
1751015432708315000,2.02931494140625,-1.2569122314453125,-0.2584075927734375,0.02093505859375
1751015432718258000,2.0392578125,-1.27215576171875,-0.24627685546875,0.03326416015625
1751015432728201000,2.049200927734375,-1.2873382568359375,-0.218292236328125,0.0477752685546875
1751015432738144800,2.059144775390625,-1.2987518310546875,-0.1706390380859375,0.0593414306640625
1751015432748087800,2.069087890625,-1.3100738525390625,-0.1055450439453125,0.0619354248046875
1751015432758030800,2.07903076171875,-1.30413818359375,-0.041748046875,0.0572967529296875
1751015432767974000,2.088973876953125,-1.2716217041015625,0.022308349609375,0.0514373779296875
1751015432777917000,2.0989169921875,-1.2300872802734375,0.068939208984375,0.0460357666015625
1751015432787860000,2.10885986328125,-1.166717529296875,0.072479248046875,0.03826904296875
1751015432797803000,2.118802978515625,-1.0756683349609375,0.0525054931640625,0.033477783203125
1751015432807746000,2.12874609375,-0.9877777099609375,0.0319061279296875,0.0359344482421875
1751015432817688800,2.138688720703125,-0.919891357421875,0.015716552734375,0.0506591796875
1751015432827631900,2.1486318359375,-0.8765716552734375,0.000396728515625,0.0736846923828125
1751015432837575000,2.158574951171875,-0.855377197265625,-0.0207672119140625,0.0907135009765625
1751015432847518000,2.16851806640625,-0.8398590087890625,-0.0446014404296875,0.113037109375
1751015432857461000,2.1784609375,-0.8342742919921875,-0.066741943359375,0.1464080810546875
1751015432867405000,2.188405029296875,-0.8458251953125,-0.08514404296875,0.18560791015625
1751015432877347800,2.198347900390625,-0.8655548095703125,-0.1048736572265625,0.2136993408203125
1751015432887291000,2.208290771484375,-0.8820648193359375,-0.1232757568359375,0.2332305908203125
1751015432897234000,2.21823388671875,-0.8915863037109375,-0.1337127685546875,0.235137939453125
1751015432907177000,2.228177001953125,-0.891937255859375,-0.136474609375,0.2205963134765625
1751015432917120000,2.2381201171875,-0.8862762451171875,-0.1365966796875,0.181854248046875
1751015432927063000,2.24806298828125,-0.8830718994140625,-0.139739990234375,0.1370391845703125
1751015432937005800,2.258005859375,-0.8802490234375,-0.14013671875,0.1077117919921875
1751015432946948900,2.267948974609375,-0.88385009765625,-0.1381072998046875,0.081085205078125
1751015432956891600,2.2778916015625,-0.8899688720703125,-0.1313018798828125,0.0560302734375
1751015432966834700,2.287834716796875,-0.894622802734375,-0.1215362548828125,0.0354766845703125
1751015432976779000,2.297779052734375,-0.9017791748046875,-0.115203857421875,0.0171356201171875
1751015432986721800,2.3077216796875,-0.91387939453125,-0.11346435546875,0.007568359375
1751015432996664800,2.317664794921875,-0.9284515380859375,-0.1093292236328125,0.0077056884765625
1751015433006608000,2.32760791015625,-0.9500885009765625,-0.10626220703125,0.0123748779296875
1751015433016550700,2.337550537109375,-0.959716796875,-0.1105194091796875,0.011566162109375
1751015433026493700,2.34749365234375,-0.95318603515625,-0.1172332763671875,0.010223388671875
1751015433036436700,2.357436767578125,-0.9461517333984375,-0.122955322265625,0.012847900390625
1751015433046379800,2.3673798828125,-0.933013916015625,-0.130035400390625,0.0157470703125
1751015433056322800,2.37732275390625,-0.9114532470703125,-0.14178466796875,0.0210418701171875
1751015433066265900,2.387265869140625,-0.884857177734375,-0.157867431640625,0.02655029296875
1751015433076209000,2.397208984375,-0.866058349609375,-0.168914794921875,0.031219482421875
1751015433086152000,2.40715185546875,-0.8587188720703125,-0.17669677734375,0.0353851318359375
1751015433096095700,2.417095703125,-0.8501434326171875,-0.19775390625,0.0386810302734375
1751015433106038800,2.427038818359375,-0.8391876220703125,-0.2225341796875,0.0415496826171875
1751015433115981800,2.43698193359375,-0.832366943359375,-0.23968505859375,0.0475616455078125
1751015433125924900,2.4469248046875,-0.8291168212890625,-0.2549896240234375,0.0599822998046875
1751015433135868000,2.456867919921875,-0.8258056640625,-0.270416259765625,0.072784423828125
1751015433145811000,2.46681103515625,-0.8343963623046875,-0.275054931640625,0.0879974365234375
1751015433155753700,2.476753662109375,-0.848876953125,-0.2699737548828125,0.1045379638671875
1751015433165696800,2.48669677734375,-0.871917724609375,-0.2677154541015625,0.1094207763671875
1751015433175639800,2.496639892578125,-0.900909423828125,-0.26617431640625,0.110504150390625
1751015433185582800,2.506582763671875,-0.9347381591796875,-0.2580413818359375,0.117034912109375
1751015433195526000,2.51652587890625,-0.968719482421875,-0.244384765625,0.12030029296875
1751015433205469000,2.526468994140625,-0.9809417724609375,-0.2704925537109375,0.1224517822265625
1751015433215412700,2.536412841796875,-1.0070343017578125,-0.3122406005859375,0.112762451171875
1751015433225355800,2.546355712890625,-1.0604705810546875,-0.3076171875,0.0911407470703125
1751015433235298800,2.556298828125,-1.123046875,-0.2651214599609375,0.0817718505859375
1751015433245241900,2.566241943359375,-1.1768341064453125,-0.234619140625,0.082916259765625
1751015433255185000,2.576184814453125,-1.210693359375,-0.2297821044921875,0.0732574462890625
1751015433265128000,2.5861279296875,-1.2339019775390625,-0.22222900390625,0.0635528564453125
1751015433275071000,2.596071044921875,-1.2557373046875,-0.203155517578125,0.06353759765625
1751015433285014000,2.606013916015625,-1.2721710205078125,-0.1860809326171875,0.060882568359375
1751015433294956800,2.615956787109375,-1.28155517578125,-0.1825714111328125,0.06927490234375
1751015433304899800,2.62589990234375,-1.2880706787109375,-0.1868743896484375,0.08203125
1751015433314843000,2.6358427734375,-1.308868408203125,-0.189666748046875,0.0936737060546875
1751015433324786700,2.64578662109375,-1.32305908203125,-0.1759796142578125,0.0888671875
1751015433334729700,2.655729736328125,-1.321014404296875,-0.1473541259765625,0.0826416015625
1751015433344672800,2.6656728515625,-1.323089599609375,-0.1180572509765625,0.0670623779296875
1751015433354615800,2.67561572265625,-1.3233184814453125,-0.0805816650390625,0.0503387451171875
1751015433364558600,2.68555859375,-1.3076171875,-0.0372772216796875,0.035125732421875
1751015433374501600,2.695501708984375,-1.2746124267578125,-0.0006103515625,0.0209503173828125
1751015433384444700,2.705444580078125,-1.2200927734375,0.024658203125,0.0092926025390625
1751015433394387700,2.7153876953125,-1.148773193359375,0.0286407470703125,-0.0030975341796875
1751015433404330800,2.725330810546875,-1.0731201171875,0.00567626953125,-0.026123046875
1751015433414273800,2.735273681640625,-1.0001068115234375,-0.0321044921875,-0.0505218505859375
1751015433424216800,2.745216796875,-0.939178466796875,-0.0662384033203125,-0.06964111328125
1751015433434159900,2.755159912109375,-0.895965576171875,-0.0859832763671875,-0.084869384765625
1751015433444103700,2.765103759765625,-0.8725738525390625,-0.0970306396484375,-0.0918121337890625
1751015433454046700,2.775046630859375,-0.8619384765625,-0.11114501953125,-0.0927581787109375
1751015433463989800,2.78498974609375,-0.853668212890625,-0.1356658935546875,-0.0855255126953125
1751015433473932800,2.794932861328125,-0.83856201171875,-0.1681976318359375,-0.0743408203125
1751015433483875800,2.804875732421875,-0.8252410888671875,-0.197113037109375,-0.0706634521484375
1751015433493819000,2.81481884765625,-0.8315582275390625,-0.215057373046875,-0.0820465087890625
1751015433503761700,2.82476171875,-0.84814453125,-0.2259063720703125,-0.0939483642578125
1751015433513704700,2.83470458984375,-0.8343658447265625,-0.2053070068359375,-0.0926666259765625
1751015433523647700,2.844647705078125,-0.8356170654296875,-0.1939697265625,-0.0987091064453125
1751015433533590800,2.8545908203125,-0.8503570556640625,-0.180816650390625,-0.0913543701171875
1751015433543533800,2.864533935546875,-0.885589599609375,-0.1672821044921875,-0.0675506591796875
1751015433553478000,2.874477783203125,-0.907318115234375,-0.1656036376953125,-0.04034423828125
1751015433563420700,2.884420654296875,-0.9117889404296875,-0.16949462890625,-0.0230712890625
1751015433573363700,2.89436376953125,-0.9127960205078125,-0.1726226806640625,-0.016937255859375
1751015433583306800,2.904306640625,-0.9362945556640625,-0.172454833984375,-0.0270233154296875
1751015433593249800,2.914249755859375,-0.9293212890625,-0.15826416015625,-0.0350799560546875
1751015433603192800,2.92419287109375,-0.8882293701171875,-0.1586761474609375,-0.012054443359375
1751015433613136000,2.934135986328125,-0.85296630859375,-0.16766357421875,0.017730712890625
1751015433623079000,2.944078857421875,-0.8542938232421875,-0.1685333251953125,0.0182037353515625
1751015433633022000,2.95402197265625,-0.8440399169921875,-0.1672515869140625,0.016357421875
1751015433642964700,2.96396484375,-0.8255157470703125,-0.1369781494140625,-0.0027923583984375
1751015433652907800,2.97390771484375,-0.8010406494140625,-0.1247100830078125,0.011505126953125
1751015433662851800,2.983851806640625,-0.80828857421875,-0.168701171875,0.045013427734375
1751015433672795000,2.993794921875,-0.852264404296875,-0.181243896484375,0.064117431640625
1751015433682738000,3.003738037109375,-0.8773345947265625,-0.18853759765625,0.0740966796875
1751015433692681000,3.013680908203125,-0.8875885009765625,-0.1998138427734375,0.0675506591796875
1751015433702623700,3.023623779296875,-0.906463623046875,-0.2119598388671875,0.0608673095703125
1751015433712566800,3.03356689453125,-0.9301910400390625,-0.2227783203125,0.05859375
1751015433722509800,3.043509765625,-0.9535064697265625,-0.2321014404296875,0.06292724609375
1751015433732452600,3.05345263671875,-0.9696044921875,-0.2401275634765625,0.0630035400390625
1751015433742395600,3.063395751953125,-0.971710205078125,-0.244659423828125,0.0613861083984375
1751015433752338700,3.073338623046875,-0.9810333251953125,-0.2452545166015625,0.0688018798828125
1751015433762281700,3.08328173828125,-1.0078125,-0.247955322265625,0.0837249755859375
1751015433772225800,3.093225830078125,-1.0284423828125,-0.256072998046875,0.09942626953125
1751015433782168800,3.1031689453125,-1.047119140625,-0.2590789794921875,0.1064453125
1751015433792111600,3.113111572265625,-1.0709381103515625,-0.253204345703125,0.1165771484375
1751015433802054700,3.1230546875,-1.1050567626953125,-0.241455078125,0.1269378662109375
1751015433811997700,3.132997802734375,-1.1360626220703125,-0.2355194091796875,0.1369781494140625
1751015433821940700,3.142940673828125,-1.159454345703125,-0.2345123291015625,0.145782470703125
1751015433831883800,3.1528837890625,-1.1758880615234375,-0.23431396484375,0.1561279296875
1751015433841826600,3.16282666015625,-1.1741485595703125,-0.22991943359375,0.1648712158203125
1751015433851769600,3.17276953125,-1.1639404296875,-0.230194091796875,0.16766357421875
1751015433861712600,3.182712646484375,-1.1425628662109375,-0.2453460693359375,0.1668701171875
1751015433871655700,3.19265576171875,-1.1265716552734375,-0.264923095703125,0.1690826416015625
1751015433881599700,3.202599853515625,-1.1247711181640625,-0.2718658447265625,0.1658172607421875
1751015433891542800,3.212542724609375,-1.1542205810546875,-0.259124755859375,0.1596527099609375
1751015433901485600,3.222485595703125,-1.2110137939453125,-0.238525390625,0.160888671875
1751015433911428600,3.2324287109375,-1.2562103271484375,-0.21551513671875,0.1699981689453125
1751015433921371600,3.24237158203125,-1.264556884765625,-0.179351806640625,0.173553466796875
1751015433931314700,3.252314697265625,-1.234893798828125,-0.12286376953125,0.1455841064453125
1751015433941257700,3.2622578125,-1.185028076171875,-0.0700531005859375,0.0998077392578125
1751015433951200800,3.27220068359375,-1.1211700439453125,-0.0437774658203125,0.074951171875
1751015433961143800,3.282143798828125,-1.0504913330078125,-0.04754638671875,0.051116943359375
1751015433971086800,3.2920869140625,-0.98724365234375,-0.05206298828125,0.0351715087890625
1751015433981030700,3.30203076171875,-0.94769287109375,-0.0404815673828125,0.0293426513671875
1751015433990973700,3.3119736328125,-0.932281494140625,-0.0272064208984375,0.030975341796875
1751015434000916700,3.321916748046875,-0.925689697265625,-0.0326385498046875,0.0531005859375
1751015434010859800,3.33185986328125,-0.9351654052734375,-0.049835205078125,0.0826416015625
1751015434020802800,3.341802734375,-0.9503326416015625,-0.06640625,0.11151123046875
1751015434030745900,3.351745849609375,-0.96820068359375,-0.08306884765625,0.1335601806640625
1751015434040688600,3.361688720703125,-0.9889984130859375,-0.09857177734375,0.143402099609375
1751015434050631700,3.371631591796875,-0.9954681396484375,-0.1085662841796875,0.137115478515625
1751015434060574700,3.38157470703125,-0.9855804443359375,-0.1077423095703125,0.11810302734375
1751015434070517800,3.391517822265625,-0.9681854248046875,-0.1014404296875,0.098724365234375
1751015434080460800,3.401460693359375,-0.95159912109375,-0.101715087890625,0.0796661376953125
1751015434090404900,3.41140478515625,-0.933502197265625,-0.1083831787109375,0.0587615966796875
1751015434100347600,3.42134765625,-0.9081878662109375,-0.1127777099609375,0.04205322265625
1751015434110290700,3.431290771484375,-0.8806915283203125,-0.1193389892578125,0.0286712646484375
1751015434120233700,3.441233642578125,-0.85406494140625,-0.129364013671875,0.018280029296875
1751015434130176800,3.4511767578125,-0.8227386474609375,-0.1410675048828125,0.0164031982421875
1751015434140119800,3.461119873046875,-0.810028076171875,-0.15240478515625,0.0222930908203125
1751015434150062800,3.471062744140625,-0.8176422119140625,-0.16290283203125,0.034515380859375
1751015434160006000,3.481005859375,-0.8360443115234375,-0.175750732421875,0.0452728271484375
1751015434169949000,3.490948974609375,-0.8480377197265625,-0.1919097900390625,0.05023193359375
1751015434179891700,3.5008916015625,-0.855224609375,-0.2066802978515625,0.054168701171875
1751015434189835800,3.510835693359375,-0.86639404296875,-0.2180023193359375,0.055938720703125
1751015434199778800,3.52077880859375,-0.882965087890625,-0.2255706787109375,0.0605010986328125
1751015434209721900,3.530721923828125,-0.90185546875,-0.2324676513671875,0.063446044921875
1751015434219665000,3.540664794921875,-0.9202880859375,-0.238739013671875,0.063507080078125
1751015434229608000,3.55060791015625,-0.92205810546875,-0.2411346435546875,0.0561370849609375
1751015434239550700,3.56055078125,-0.9258880615234375,-0.2325439453125,0.0458526611328125
1751015434249493800,3.57049365234375,-0.9382781982421875,-0.2187042236328125,0.0374908447265625
1751015434259436800,3.580436767578125,-0.9559326171875,-0.207366943359375,0.029510498046875
1751015434269379800,3.5903798828125,-0.9824371337890625,-0.1943817138671875,0.0297088623046875
1751015434279323000,3.600322998046875,-1.0131072998046875,-0.1831512451171875,0.038116455078125
1751015434289267000,3.610266845703125,-1.04632568359375,-0.17681884765625,0.0486297607421875
1751015434299209700,3.620209716796875,-1.072998046875,-0.1758880615234375,0.0541229248046875
1751015434309152800,3.63015283203125,-1.090087890625,-0.1748809814453125,0.05291748046875
1751015434319095600,3.640095458984375,-1.10955810546875,-0.1771392822265625,0.0477142333984375
1751015434329038600,3.65003857421875,-1.135345458984375,-0.1851043701171875,0.0457305908203125
1751015434338981600,3.659981689453125,-1.1628570556640625,-0.18994140625,0.0386505126953125
1751015434348924700,3.669924560546875,-1.188568115234375,-0.179107666015625,0.0305328369140625
1751015434358867700,3.67986767578125,-1.2137298583984375,-0.1721954345703125,0.0218505859375
1751015434368810800,3.689810791015625,-1.2236785888671875,-0.178680419921875,0.0082855224609375
1751015434378753500,3.69975341796875,-1.2122802734375,-0.1810302734375,-0.00457763671875
1751015434388697600,3.709697509765625,-1.190521240234375,-0.184814453125,-0.020751953125
1751015434398640600,3.719640625,-1.16302490234375,-0.197418212890625,-0.032257080078125
1751015434408583700,3.729583740234375,-1.149017333984375,-0.217926025390625,-0.0322113037109375
1751015434418526700,3.739526611328125,-1.160980224609375,-0.2342529296875,-0.0153656005859375
1751015434428469800,3.7494697265625,-1.1836395263671875,-0.2332000732421875,0.00335693359375
1751015434438412500,3.75941259765625,-1.19891357421875,-0.218719482421875,0.01385498046875
1751015434448355600,3.76935546875,-1.219635009765625,-0.19580078125,0.0222015380859375
1751015434458298600,3.779298583984375,-1.24884033203125,-0.1609039306640625,0.0186920166015625
1751015434468241700,3.78924169921875,-1.266693115234375,-0.1136932373046875,-0.0084686279296875
1751015434478184700,3.799184814453125,-1.2620849609375,-0.073974609375,-0.0515289306640625
1751015434488128800,3.809128662109375,-1.2116851806640625,-0.050628662109375,-0.084991455078125
1751015434498071600,3.819071533203125,-1.135650634765625,-0.0381011962890625,-0.1152801513671875
1751015434508014600,3.8290146484375,-1.0542755126953125,-0.0360870361328125,-0.1471099853515625
1751015434517957600,3.83895751953125,-0.96881103515625,-0.0340728759765625,-0.170501708984375
1751015434527900700,3.848900634765625,-0.8975372314453125,-0.0254364013671875,-0.18096923828125
1751015434537843700,3.85884375,-0.849212646484375,-0.0230255126953125,-0.1749114990234375
1751015434547786800,3.868786865234375,-0.82177734375,-0.038604736328125,-0.1473388671875
1751015434557729800,3.878729736328125,-0.811279296875,-0.0712432861328125,-0.1166534423828125
1751015434567672800,3.8886728515625,-0.8160247802734375,-0.1085662841796875,-0.077239990234375
1751015434577615600,3.89861572265625,-0.8321533203125,-0.1463470458984375,-0.04339599609375
1751015434587558400,3.908558349609375,-0.8431396484375,-0.169097900390625,-0.017181396484375
1751015434597502700,3.918502685546875,-0.846710205078125,-0.1737060546875,0.0046844482421875
1751015434607445800,3.92844580078125,-0.83447265625,-0.1723175048828125,0.0121917724609375
1751015434617388800,3.938388916015625,-0.8123931884765625,-0.17279052734375,0.0054473876953125
1751015434627331800,3.948331787109375,-0.793701171875,-0.1756591796875,-0.0101776123046875
1751015434637274600,3.958274658203125,-0.7775115966796875,-0.1794586181640625,-0.0195770263671875
1751015434647217400,3.968217529296875,-0.7651519775390625,-0.1816864013671875,-0.0216522216796875
1751015434657160400,3.978160400390625,-0.7596282958984375,-0.1791534423828125,-0.0203704833984375
1751015434667103500,3.988103515625,-0.760711669921875,-0.1809234619140625,-0.010223388671875
1751015434677046500,3.998046630859375,-0.769866943359375,-0.184967041015625,0.0035400390625
1751015434686989600,4.007989501953125,-0.78369140625,-0.1908721923828125,0.0172119140625
1751015434696933600,4.01793359375,-0.7937469482421875,-0.199188232421875,0.0231781005859375
1751015434706876400,4.02787646484375,-0.80889892578125,-0.201995849609375,0.023773193359375
1751015434716819500,4.0378193359375,-0.83349609375,-0.20147705078125,0.02239990234375
1751015434726762500,4.047762451171875,-0.855255126953125,-0.2023162841796875,0.01983642578125
1751015434736705500,4.05770556640625,-0.86981201171875,-0.19757080078125,0.0172576904296875
1751015434746648600,4.067648681640625,-0.878692626953125,-0.1897430419921875,0.0123748779296875
1751015434756591600,4.077591552734375,-0.887969970703125,-0.183807373046875,0.007904052734375
1751015434766534700,4.08753466796875,-0.8924713134765625,-0.1847381591796875,0.0047454833984375
1751015434776477700,4.097477783203125,-0.8924713134765625,-0.1911163330078125,0.002105712890625
1751015434786420500,4.10742041015625,-0.89593505859375,-0.1990966796875,-0.0014495849609375
1751015434796364500,4.117364501953125,-0.909698486328125,-0.206817626953125,-0.0036773681640625
1751015434806307600,4.1273076171875,-0.9255218505859375,-0.21551513671875,-0.0070953369140625
1751015434816250600,4.137250732421875,-0.947662353515625,-0.226531982421875,-0.0112457275390625
1751015434826193700,4.147193603515625,-0.965850830078125,-0.2445831298828125,-0.0126800537109375
1751015434836136700,4.15713671875,-0.9964752197265625,-0.2603759765625,-0.017608642578125
1751015434846079500,4.16707958984375,-1.04205322265625,-0.2672576904296875,-0.02227783203125
1751015434856022500,4.1770224609375,-1.0811309814453125,-0.26220703125,-0.0246429443359375
1751015434865965600,4.186965576171875,-1.1090850830078125,-0.25048828125,-0.0261688232421875
1751015434875908600,4.19690869140625,-1.1309051513671875,-0.2347564697265625,-0.02471923828125
1751015434885851600,4.2068515625,-1.1602630615234375,-0.22003173828125,-0.0193328857421875
1751015434895795500,4.21679541015625,-1.1945953369140625,-0.2059326171875,-0.016143798828125
1751015434905738500,4.226738525390625,-1.2310028076171875,-0.1909637451171875,-0.001129150390625
1751015434915681500,4.236681640625,-1.2658843994140625,-0.1898345947265625,0.0279693603515625
1751015434925624600,4.24662451171875,-1.27691650390625,-0.2136383056640625,0.0513763427734375
1751015434935567600,4.256567626953125,-1.282012939453125,-0.236572265625,0.0698089599609375
1751015434945510700,4.2665107421875,-1.28851318359375,-0.2331085205078125,0.074676513671875
1751015434955453700,4.27645361328125,-1.3017730712890625,-0.2028045654296875,0.061676025390625
1751015434965396700,4.286396728515625,-1.3204345703125,-0.153594970703125,0.0328216552734375
1751015434975339800,4.29633984375,-1.3475189208984375,-0.1018829345703125,-0.004547119140625
1751015434985282600,4.306282470703125,-1.3679046630859375,-0.04669189453125,-0.044677734375
1751015434995226600,4.3162265625,-1.3618621826171875,0.0125885009765625,-0.0916748046875
1751015435005169700,4.326169677734375,-1.3056640625,0.0529022216796875,-0.13165283203125
1751015435015112700,4.33611279296875,-1.2073822021484375,0.0628662109375,-0.1624603271484375
1751015435025055700,4.3460556640625,-1.106719970703125,0.0500640869140625,-0.1784515380859375
1751015435034998500,4.35599853515625,-1.0298919677734375,0.0352630615234375,-0.1757659912109375
1751015435044941600,4.365941650390625,-0.975494384765625,0.0345001220703125,-0.1646575927734375
1751015435054884600,4.375884521484375,-0.9294281005859375,0.0333709716796875,-0.1500244140625
1751015435064827600,4.38582763671875,-0.8978271484375,0.0316314697265625,-0.108001708984375
1751015435074770700,4.395770751953125,-0.9005889892578125,0.03045654296875,-0.0571136474609375
1751015435084713700,4.405713623046875,-0.9242401123046875,0.01153564453125,-0.010955810546875
1751015435094656800,4.41565673828125,-0.954132080078125,-0.01263427734375,0.02667236328125
1751015435104600600,4.4256005859375,-0.9711761474609375,-0.0277557373046875,0.0527496337890625
1751015435114543600,4.435543701171875,-0.9773101806640625,-0.0265960693359375,0.059600830078125
1751015435124486700,4.445486572265625,-0.9809112548828125,-0.0184173583984375,0.050048828125
1751015435134429700,4.4554296875,-0.960601806640625,-0.0165863037109375,0.01861572265625
1751015435144372700,4.465372802734375,-0.9209136962890625,-0.024658203125,-0.0288543701171875
1751015435154315800,4.475315673828125,-0.8829803466796875,-0.037200927734375,-0.066864013671875
1751015435164258800,4.4852587890625,-0.8524017333984375,-0.052276611328125,-0.0829925537109375
1751015435174201600,4.49520166015625,-0.8179931640625,-0.0688018798828125,-0.092498779296875
1751015435184144600,4.50514453125,-0.7847137451171875,-0.0851593017578125,-0.0906829833984375
1751015435194087400,4.51508740234375,-0.76202392578125,-0.1034088134765625,-0.083465576171875
1751015435204031700,4.52503173828125,-0.7479095458984375,-0.1226806640625,-0.0782623291015625
1751015435213974800,4.534974853515625,-0.75030517578125,-0.13629150390625,-0.069061279296875
1751015435223917800,4.544917724609375,-0.7662506103515625,-0.1457366943359375,-0.055877685546875
1751015435233860600,4.554860595703125,-0.7830352783203125,-0.1560516357421875,-0.0405426025390625
1751015435243803600,4.5648037109375,-0.797576904296875,-0.1673736572265625,-0.0264434814453125
1751015435253746400,4.574746337890625,-0.8130035400390625,-0.1763153076171875,-0.01702880859375
1751015435263689500,4.584689453125,-0.8235015869140625,-0.186187744140625,-0.01336669921875
1751015435273632500,4.594632568359375,-0.832672119140625,-0.1915283203125,-0.011474609375
1751015435283575600,4.604575439453125,-0.844024658203125,-0.192596435546875,-0.0128021240234375
1751015435293518600,4.6145185546875,-0.85479736328125,-0.1954803466796875,-0.0155487060546875
1751015435303462400,4.62446240234375,-0.864776611328125,-0.201690673828125,-0.0191192626953125
1751015435313405400,4.634405517578125,-0.8764801025390625,-0.2064666748046875,-0.0261688232421875
1751015435323348200,4.64434814453125,-0.8894500732421875,-0.20794677734375,-0.03350830078125
1751015435333291300,4.654291259765625,-0.9038238525390625,-0.2101287841796875,-0.0377349853515625
1751015435343234300,4.664234375,-0.918212890625,-0.2153778076171875,-0.0412445068359375
1751015435353177300,4.67417724609375,-0.9364166259765625,-0.2213287353515625,-0.0392913818359375
1751015435363120400,4.684120361328125,-0.9614105224609375,-0.2300872802734375,-0.035675048828125
1751015435373063400,4.6940634765625,-0.994415283203125,-0.24127197265625,-0.0294036865234375
1751015435383006200,4.704006103515625,-1.0396728515625,-0.245452880859375,-0.0240478515625
1751015435392949200,4.71394921875,-1.100006103515625,-0.24237060546875,-0.01885986328125
1751015435402893300,4.723893310546875,-1.167572021484375,-0.238922119140625,-0.014984130859375
1751015435412836400,4.73383642578125,-1.2292022705078125,-0.23785400390625,-0.0147552490234375
1751015435422779400,4.743779296875,-1.281768798828125,-0.2346038818359375,-0.0150299072265625
1751015435432722400,4.753722412109375,-1.3045501708984375,-0.219696044921875,-0.029632568359375
1751015435442665200,4.763665283203125,-1.30419921875,-0.2081146240234375,-0.0601806640625
1751015435452608300,4.773608154296875,-1.2732696533203125,-0.200347900390625,-0.0908966064453125
1751015435462551300,4.78355126953125,-1.227996826171875,-0.18988037109375,-0.1121673583984375
1751015435472494300,4.793494384765625,-1.1974334716796875,-0.1821441650390625,-0.1213226318359375
1751015435482437400,4.803437255859375,-1.1972503662109375,-0.171966552734375,-0.102386474609375
1751015435492380400,4.81338037109375,-1.2204132080078125,-0.1654815673828125,-0.0766754150390625
1751015435502324200,4.82332421875,-1.230224609375,-0.1647491455078125,-0.0615997314453125
1751015435512267300,4.833267333984375,-1.2227783203125,-0.1597137451171875,-0.0487823486328125
1751015435522210300,4.843210205078125,-1.214080810546875,-0.1478271484375,-0.0460052490234375
1751015435532153300,4.8531533203125,-1.2042999267578125,-0.128631591796875,-0.0494842529296875
1751015435542096400,4.863096435546875,-1.198211669921875,-0.105133056640625,-0.06402587890625
1751015435552039400,4.873039306640625,-1.1861572265625,-0.0758056640625,-0.0919189453125
1751015435561982500,4.882982421875,-1.155792236328125,-0.0545806884765625,-0.121856689453125
1751015435571925500,4.892925537109375,-1.1087493896484375,-0.0513458251953125,-0.14471435546875
1751015435581868300,4.902868408203125,-1.0496826171875,-0.0601043701171875,-0.160797119140625
1751015435591811300,4.912811279296875,-0.9904632568359375,-0.06451416015625,-0.1788177490234375
1751015435601755400,4.92275537109375,-0.9365386962890625,-0.0662078857421875,-0.1911773681640625
1751015435611698400,4.932698486328125,-0.8964691162109375,-0.0688629150390625,-0.18994140625
1751015435621641500,4.942641357421875,-0.8689117431640625,-0.0784912109375,-0.17413330078125
1751015435631584500,4.95258447265625,-0.8526458740234375,-0.088134765625,-0.1488037109375
1751015435641527300,4.96252734375,-0.842803955078125,-0.099273681640625,-0.1153717041015625
1751015435651470300,4.97247021484375,-0.84149169921875,-0.1220703125,-0.0872955322265625
1751015435661413400,4.982413330078125,-0.839996337890625,-0.13775634765625,-0.061767578125
1751015435671356400,4.9923564453125,-0.8346405029296875,-0.1392669677734375,-0.0453338623046875
1751015435681299500,5.002299560546875,-0.8280029296875,-0.13720703125,-0.038665771484375
1751015435691242500,5.012242431640625,-0.820526123046875,-0.14312744140625,-0.038055419921875
1751015435701186300,5.022186279296875,-0.8134307861328125,-0.1541290283203125,-0.043365478515625
1751015435711129300,5.03212939453125,-0.8021697998046875,-0.158477783203125,-0.0480194091796875
1751015435721072400,5.042072265625,-0.7874603271484375,-0.1580047607421875,-0.0514678955078125
1751015435731015400,5.052015380859375,-0.78009033203125,-0.1627197265625,-0.0478515625
1751015435740958500,5.06195849609375,-0.7784576416015625,-0.173797607421875,-0.036834716796875
1751015435750901500,5.071901611328125,-0.785491943359375,-0.1851806640625,-0.0263519287109375
1751015435760844500,5.081844482421875,-0.794403076171875,-0.19317626953125,-0.0159149169921875
1751015435770787600,5.09178759765625,-0.802154541015625,-0.2017364501953125,-0.005218505859375
1751015435780730400,5.10173046875,-0.8192596435546875,-0.208984375,0.00311279296875
1751015435790673200,5.111673095703125,-0.8455657958984375,-0.212615966796875,0.0125579833984375
1751015435800617500,5.121617431640625,-0.8610992431640625,-0.21563720703125,0.0172576904296875
1751015435810560500,5.131560546875,-0.8691253662109375,-0.2183685302734375,0.014404296875
1751015435820503600,5.141503662109375,-0.872772216796875,-0.2169036865234375,0.00665283203125
1751015435830446600,5.151446533203125,-0.8833770751953125,-0.217498779296875,-0.0041656494140625
1751015435840389400,5.161389404296875,-0.8988494873046875,-0.2231903076171875,-0.0136260986328125
1751015435850332200,5.171332275390625,-0.9213409423828125,-0.2331695556640625,-0.018707275390625
1751015435860275200,5.181275146484375,-0.9423828125,-0.2429962158203125,-0.02166748046875
1751015435870218200,5.19121826171875,-0.9545135498046875,-0.2441253662109375,-0.0225677490234375
1751015435880161300,5.201161376953125,-0.96575927734375,-0.2448883056640625,-0.0317230224609375
1751015435890104300,5.211104248046875,-0.9813079833984375,-0.248504638671875,-0.0466461181640625
1751015435900048100,5.221048095703125,-0.999114990234375,-0.257080078125,-0.05548095703125
1751015435909991200,5.2309912109375,-1.019378662109375,-0.269073486328125,-0.0552215576171875
1751015435919934200,5.240934326171875,-1.0416259765625,-0.2780609130859375,-0.0499114990234375
1751015435929877200,5.250877197265625,-1.0669097900390625,-0.28033447265625,-0.0409088134765625
1751015435939820300,5.2608203125,-1.091949462890625,-0.2745513916015625,-0.03106689453125
1751015435949763300,5.270763427734375,-1.112274169921875,-0.2659759521484375,-0.027618408203125
1751015435959706400,5.280706298828125,-1.13421630859375,-0.257965087890625,-0.0251922607421875
1751015435969649400,5.2906494140625,-1.1539764404296875,-0.25933837890625,-0.0202789306640625
1751015435979592400,5.300592529296875,-1.16558837890625,-0.2587890625,-0.0240020751953125
1751015435989535200,5.31053515625,-1.18267822265625,-0.2516937255859375,-0.033233642578125
1751015435999479300,5.320479248046875,-1.195404052734375,-0.2523193359375,-0.033203125
1751015436009422300,5.33042236328125,-1.200927734375,-0.26727294921875,-0.0302886962890625
1751015436019365400,5.340365478515625,-1.1952972412109375,-0.281402587890625,-0.0300140380859375
1751015436029308400,5.350308349609375,-1.1897735595703125,-0.2876434326171875,-0.02740478515625
1751015436039251200,5.360251220703125,-1.18035888671875,-0.2860107421875,-0.025299072265625
1751015436049194200,5.3701943359375,-1.190704345703125,-0.2667236328125,-0.027984619140625
1751015436059137300,5.38013720703125,-1.217071533203125,-0.2351531982421875,-0.0306243896484375
1751015436069080300,5.390080322265625,-1.2369537353515625,-0.19793701171875,-0.0315399169921875
1751015436079023400,5.4000234375,-1.2418060302734375,-0.1444244384765625,-0.0399322509765625
1751015436088966400,5.40996630859375,-1.2236480712890625,-0.0836639404296875,-0.049530029296875
1751015436098910200,5.41991015625,-1.173919677734375,-0.038482666015625,-0.0661163330078125
1751015436108853200,5.429853271484375,-1.1082305908203125,-0.019500732421875,-0.0669708251953125
1751015436118796300,5.43979638671875,-1.0452880859375,-0.028228759765625,-0.0609283447265625
1751015436128739300,5.4497392578125,-0.9754638671875,-0.0502166748046875,-0.063323974609375
1751015436138682400,5.459682373046875,-0.9127044677734375,-0.0594940185546875,-0.066375732421875
1751015436148625400,5.46962548828125,-0.87841796875,-0.0490264892578125,-0.06689453125
1751015436158568400,5.479568359375,-0.8725738525390625,-0.0418243408203125,-0.051055908203125
1751015436168511500,5.489511474609375,-0.8925933837890625,-0.0589447021484375,-0.0230865478515625
1751015436178454300,5.499454345703125,-0.9186248779296875,-0.0850830078125,-0.0122222900390625
1751015436188397300,5.509397216796875,-0.942230224609375,-0.1060333251953125,-0.003204345703125
1751015436198341400,5.51934130859375,-0.9653778076171875,-0.1203155517578125,0.0150909423828125
1751015436208284400,5.529284423828125,-0.9831085205078125,-0.1350860595703125,0.0268707275390625
1751015436218227500,5.5392275390625,-0.9830474853515625,-0.13623046875,0.017242431640625
1751015436228170500,5.54917041015625,-0.9659881591796875,-0.1253662109375,-0.0064849853515625
1751015436238113300,5.55911328125,-0.9391326904296875,-0.1192779541015625,-0.040283203125
1751015436248056300,5.569056396484375,-0.9211273193359375,-0.1158447265625,-0.0739288330078125
1751015436257999400,5.578999267578125,-0.9134368896484375,-0.114013671875,-0.088134765625
1751015436267942400,5.5889423828125,-0.89825439453125,-0.1168060302734375,-0.0947723388671875
1751015436277885400,5.598885498046875,-0.8776092529296875,-0.1275482177734375,-0.1026611328125
1751015436287828500,5.608828369140625,-0.8638458251953125,-0.14239501953125,-0.1050567626953125
1751015436297772300,5.618772216796875,-0.85699462890625,-0.1584320068359375,-0.10308837890625
1751015436307715300,5.62871533203125,-0.8611907958984375,-0.1684417724609375,-0.09259033203125
1751015436317658400,5.638658447265625,-0.878387451171875,-0.1756439208984375,-0.070953369140625
1751015436327602000,5.648601806640625,-0.8990936279296875,-0.18841552734375,-0.050811767578125
1751015436337545000,5.658544921875,-0.914520263671875,-0.20037841796875,-0.03839111328125
1751015436347488000,5.668488037109375,-0.9265289306640625,-0.210205078125,-0.029266357421875
1751015436357431000,5.67843115234375,-0.926513671875,-0.221466064453125,-0.0187225341796875
1751015436367373800,5.688373779296875,-0.9263916015625,-0.228118896484375,-0.009307861328125
1751015436377316900,5.69831689453125,-0.928375244140625,-0.22613525390625,-0.0046234130859375
1751015436387260000,5.708260009765625,-0.9369049072265625,-0.218963623046875,0.0008087158203125
1751015436397204000,5.718203857421875,-0.94354248046875,-0.212493896484375,0.00341796875
1751015436407147000,5.72814697265625,-0.9417266845703125,-0.2073211669921875,0.003326416015625
1751015436417090000,5.738090087890625,-0.9449920654296875,-0.2015380859375,0.003753662109375
1751015436427032800,5.74803271484375,-0.9544677734375,-0.1978759765625,0.000152587890625
1751015436436975900,5.757975830078125,-0.9623870849609375,-0.198150634765625,-0.005584716796875
1751015436446919000,5.7679189453125,-0.975677490234375,-0.204345703125,-0.0099945068359375
1751015436456862000,5.777862060546875,-0.9915618896484375,-0.2117156982421875,-0.0106201171875
1751015436466805000,5.787804931640625,-1.00665283203125,-0.2193756103515625,-0.0032958984375
1751015436476748000,5.797748046875,-1.020751953125,-0.2247314453125,0.003082275390625
1751015436486690800,5.80769091796875,-1.0448150634765625,-0.2282562255859375,0.007659912109375
1751015436496635000,5.817634765625,-1.07879638671875,-0.228271484375,0.0162200927734375
1751015436506578000,5.827577880859375,-1.1135406494140625,-0.2280426025390625,0.019500732421875
1751015436516521000,5.83752099609375,-1.134002685546875,-0.2302398681640625,0.015380859375
1751015436526464000,5.847464111328125,-1.1426544189453125,-0.2241363525390625,0.013031005859375
1751015436536406800,5.85740673828125,-1.154022216796875,-0.207550048828125,0.013458251953125
1751015436546349800,5.867349853515625,-1.1628265380859375,-0.19580078125,0.0164642333984375
1751015436556292900,5.87729296875,-1.1585845947265625,-0.198028564453125,0.0139007568359375
1751015436566236000,5.88723583984375,-1.1407012939453125,-0.2012939453125,0.005340576171875
1751015436576178700,5.8971787109375,-1.1288909912109375,-0.19476318359375,-0.0013275146484375
1751015436586123000,5.907123046875,-1.134429931640625,-0.1802215576171875,-0.0011444091796875
1751015436596065800,5.917065673828125,-1.135009765625,-0.1769866943359375,0.0051116943359375
1751015436606008800,5.9270087890625,-1.1363372802734375,-0.172454833984375,0.0104522705078125
1751015436615952000,5.936951904296875,-1.14263916015625,-0.1680755615234375,0.022491455078125
1751015436625895000,5.94689501953125,-1.15655517578125,-0.1592254638671875,0.0300750732421875
1751015436635837700,5.956837646484375,-1.1724395751953125,-0.1327362060546875,0.0245361328125
1751015436645780700,5.96678076171875,-1.1820526123046875,-0.0912322998046875,0.004913330078125
1751015436655723800,5.976723876953125,-1.1783905029296875,-0.0514068603515625,-0.02874755859375
1751015436665666800,5.986666748046875,-1.1575469970703125,-0.032073974609375,-0.0782470703125
1751015436675609900,5.99660986328125,-1.1259765625,-0.034149169921875,-0.111419677734375
1751015436685553700,6.0065537109375,-1.0829010009765625,-0.0423736572265625,-0.1277618408203125
1751015436695496700,6.01649658203125,-1.040069580078125,-0.0472412109375,-0.1405487060546875
1751015436705439700,6.026439697265625,-0.9990386962890625,-0.047027587890625,-0.144561767578125
1751015436715382800,6.0363828125,-0.958343505859375,-0.0510406494140625,-0.1399383544921875
1751015436725325800,6.046325927734375,-0.9279022216796875,-0.0641632080078125,-0.1212310791015625
1751015436735268900,6.056268798828125,-0.9112396240234375,-0.0814361572265625,-0.0915069580078125
1751015436745212000,6.0662119140625,-0.9018707275390625,-0.1046295166015625,-0.068084716796875
1751015436755155000,6.076155029296875,-0.8893280029296875,-0.1271209716796875,-0.041961669921875
1751015436765098000,6.086097900390625,-0.884735107421875,-0.1399383544921875,-0.0185699462890625
1751015436775041800,6.096041748046875,-0.8874969482421875,-0.142913818359375,-0.0006561279296875
1751015436784984800,6.10598486328125,-0.8885498046875,-0.1417388916015625,0.0087890625
1751015436794927900,6.115927978515625,-0.88836669921875,-0.1439056396484375,0.008331298828125
1751015436804871000,6.125870849609375,-0.89031982421875,-0.1455841064453125,-0.005462646484375
1751015436814814000,6.13581396484375,-0.8883056640625,-0.145538330078125,-0.0298004150390625
1751015436824756700,6.1457568359375,-0.8752593994140625,-0.1455841064453125,-0.053253173828125
1751015436834699800,6.15569970703125,-0.8638153076171875,-0.1440887451171875,-0.0638427734375
1751015436844642800,6.165642822265625,-0.8553466796875,-0.1465301513671875,-0.0626373291015625
1751015436854585900,6.1755859375,-0.8512115478515625,-0.159942626953125,-0.0618896484375
1751015436864529000,6.18552880859375,-0.84649658203125,-0.177734375,-0.0621490478515625
1751015436874473000,6.195472900390625,-0.8390045166015625,-0.1919097900390625,-0.0583038330078125
1751015436884415700,6.205415771484375,-0.838226318359375,-0.2009735107421875,-0.050079345703125
1751015436894358800,6.21535888671875,-0.8461456298828125,-0.212158203125,-0.0376434326171875
1751015436904301800,6.2253017578125,-0.855377197265625,-0.22705078125,-0.029327392578125
1751015436914244900,6.235244873046875,-0.863128662109375,-0.237457275390625,-0.022186279296875
1751015436924188000,6.24518798828125,-0.8688201904296875,-0.244140625,-0.0178375244140625
1751015436934131000,6.255130859375,-0.8709564208984375,-0.24652099609375,-0.0159454345703125
1751015436944074000,6.265073974609375,-0.8786773681640625,-0.250518798828125,-0.011505126953125
1751015436954017000,6.27501708984375,-0.89459228515625,-0.2566070556640625,-0.0048828125
1751015436963960800,6.2849609375,-0.9036407470703125,-0.2682647705078125,-0.00543212890625
1751015436973904000,6.29490380859375,-0.907928466796875,-0.2765960693359375,-0.0120697021484375
1751015436983847000,6.304846923828125,-0.916595458984375,-0.2813873291015625,-0.0171051025390625
1751015436993790000,6.3147900390625,-0.9297332763671875,-0.2866668701171875,-0.015106201171875
1751015437003733000,6.32473291015625,-0.945159912109375,-0.29132080078125,-0.007049560546875
1751015437013676000,6.334676025390625,-0.9618682861328125,-0.2982635498046875,0.00347900390625
1751015437023618800,6.344618896484375,-0.980194091796875,-0.305633544921875,0.0144195556640625
1751015437033561900,6.354561767578125,-1.000335693359375,-0.30743408203125,0.0271759033203125
1751015437043505000,6.3645048828125,-1.0234527587890625,-0.301361083984375,0.041259765625
1751015437053449000,6.374448974609375,-1.04541015625,-0.290985107421875,0.0536956787109375
1751015437063392000,6.38439208984375,-1.06683349609375,-0.2791900634765625,0.0640716552734375
1751015437073335000,6.3943349609375,-1.098663330078125,-0.2636871337890625,0.07171630859375
1751015437083277800,6.40427783203125,-1.139007568359375,-0.2491302490234375,0.0802154541015625
1751015437093220900,6.414220947265625,-1.167388916015625,-0.242645263671875,0.0818634033203125
1751015437103164000,6.424163818359375,-1.1810760498046875,-0.2437744140625,0.075958251953125
1751015437113107000,6.43410693359375,-1.1842193603515625,-0.2577056884765625,0.0775909423828125
1751015437123050000,6.444050048828125,-1.1904754638671875,-0.2953948974609375,0.0855712890625
1751015437132993000,6.453992919921875,-1.188446044921875,-0.33587646484375,0.090423583984375
1751015437142935800,6.463935791015625,-1.1726531982421875,-0.3471221923828125,0.095703125
1751015437152879900,6.4738798828125,-1.1666259765625,-0.3278045654296875,0.082427978515625
1751015437162823000,6.483822998046875,-1.1864471435546875,-0.2824859619140625,0.0599212646484375
1751015437172766000,6.493765869140625,-1.2357025146484375,-0.2248077392578125,0.042388916015625
1751015437182709000,6.503708984375,-1.2939300537109375,-0.1734466552734375,0.0336151123046875
1751015437192652000,6.513652099609375,-1.326385498046875,-0.1226806640625,0.019287109375
1751015437202594800,6.5235947265625,-1.3023223876953125,-0.0803375244140625,-0.0054931640625
1751015437212537900,6.533537841796875,-1.205841064453125,-0.0665740966796875,-0.0313568115234375
1751015437222481000,6.54348095703125,-1.09185791015625,-0.0801239013671875,-0.0590057373046875
1751015437232423700,6.553423583984375,-0.9976348876953125,-0.0899200439453125,-0.0802154541015625
1751015437242368000,6.563367919921875,-0.924407958984375,-0.0756378173828125,-0.082977294921875
1751015437252310800,6.573310791015625,-0.8666839599609375,-0.0554351806640625,-0.0760498046875
1751015437262253800,6.58325390625,-0.83233642578125,-0.046966552734375,-0.055938720703125
1751015437272196900,6.59319677734375,-0.8346099853515625,-0.0561676025390625,-0.022613525390625
1751015437282140000,6.603139892578125,-0.856201171875,-0.0733489990234375,-0.004180908203125
1751015437292082700,6.613082763671875,-0.8765716552734375,-0.0887603759765625,0.018218994140625
1751015437302025700,6.623025634765625,-0.9143829345703125,-0.1025848388671875,0.0482940673828125
1751015437311968800,6.63296875,-0.9467315673828125,-0.1182861328125,0.068023681640625
1751015437321911000,6.6429111328125,-0.9524993896484375,-0.1243896484375,0.0695648193359375
1751015437331855000,6.652855224609375,-0.94049072265625,-0.117431640625,0.060394287109375
1751015437341798100,6.662798095703125,-0.9135284423828125,-0.113433837890625,0.0381622314453125
1751015437351741200,6.6727412109375,-0.8902130126953125,-0.1170196533203125,0.0084381103515625
1751015437361684000,6.68268408203125,-0.8701629638671875,-0.1215362548828125,-0.0037841796875
1751015437371627000,6.692626953125,-0.846343994140625,-0.1259918212890625,-0.0091552734375
1751015437381570000,6.702570068359375,-0.8245697021484375,-0.13323974609375,-0.01220703125
1751015437391513000,6.71251318359375,-0.810882568359375,-0.14312744140625,-0.0164794921875
1751015437401456000,6.7224560546875,-0.8046875,-0.155181884765625,-0.019073486328125
1751015437411399200,6.732399169921875,-0.8057403564453125,-0.16790771484375,-0.0172576904296875
1751015437421343000,6.742343017578125,-0.813812255859375,-0.1746063232421875,-0.0113372802734375
1751015437431286000,6.7522861328125,-0.8336944580078125,-0.18048095703125,-0.006134033203125
1751015437441229000,6.76222900390625,-0.8504486083984375,-0.1913909912109375,-0.0032501220703125
1751015437451172000,6.772172119140625,-0.8634490966796875,-0.20147705078125,0.0027008056640625
1751015437461115100,6.782115234375,-0.8759307861328125,-0.21112060546875,0.0064239501953125
1751015437471058200,6.79205810546875,-0.8793792724609375,-0.21875,0.012908935546875
1751015437481001200,6.802001220703125,-0.8740081787109375,-0.21905517578125,0.016937255859375
1751015437490944300,6.8119443359375,-0.8778228759765625,-0.2143096923828125,0.016265869140625
1751015437500887000,6.821886962890625,-0.8865203857421875,-0.213409423828125,0.0162811279296875
1751015437510831000,6.8318310546875,-0.902923583984375,-0.214202880859375,0.0167999267578125
1751015437520774100,6.841774169921875,-0.91900634765625,-0.214691162109375,0.01922607421875
1751015437530717200,6.85171728515625,-0.929779052734375,-0.2176055908203125,0.023101806640625
1751015437540660200,6.86166015625,-0.9455413818359375,-0.21636962890625,0.026519775390625
1751015437550603300,6.871603271484375,-0.96832275390625,-0.212615966796875,0.0267181396484375
1751015437560546000,6.881546142578125,-0.9908599853515625,-0.21185302734375,0.0251007080078125
1751015437570489000,6.891489013671875,-1.0126800537109375,-0.2156829833984375,0.0253143310546875
1751015437580432100,6.90143212890625,-1.0439910888671875,-0.2167816162109375,0.0294036865234375
1751015437590375200,6.911375244140625,-1.0873870849609375,-0.2169952392578125,0.0393829345703125
1751015437600319200,6.9213193359375,-1.1351165771484375,-0.2159423828125,0.050872802734375
1751015437610262300,6.93126220703125,-1.175323486328125,-0.2193450927734375,0.053131103515625
1751015437620205000,6.941205078125,-1.2062835693359375,-0.2161407470703125,0.0489501953125
1751015437630148000,6.951148193359375,-1.2261810302734375,-0.2083892822265625,0.043212890625
1751015437640091100,6.961091064453125,-1.2365264892578125,-0.1971588134765625,0.0300750732421875
1751015437650034200,6.9710341796875,-1.24371337890625,-0.1816558837890625,0.020904541015625
1751015437659977200,6.980977294921875,-1.245452880859375,-0.179229736328125,0.0175628662109375
1751015437669920300,6.990920166015625,-1.2492828369140625,-0.189239501953125,0.01580810546875
1751015437679863300,7.00086328125,-1.2555084228515625,-0.1992645263671875,0.0229644775390625
1751015437689807000,7.01080712890625,-1.2658538818359375,-0.2054443359375,0.0431365966796875
1751015437699750100,7.020750244140625,-1.273040771484375,-0.205230712890625,0.0664215087890625
1751015437709693200,7.030693115234375,-1.280059814453125,-0.1904754638671875,0.084503173828125
1751015437719636200,7.04063623046875,-1.292572021484375,-0.17205810546875,0.09307861328125
1751015437729579300,7.050579345703125,-1.299346923828125,-0.14544677734375,0.096466064453125
1751015437739522300,7.060522216796875,-1.309722900390625,-0.1045989990234375,0.0880279541015625
1751015437749465300,7.07046533203125,-1.3095703125,-0.0532989501953125,0.0637664794921875
1751015437759408000,7.080408203125,-1.2793121337890625,-0.0148162841796875,0.01904296875
1751015437769352200,7.090352294921875,-1.2133636474609375,-0.0089874267578125,-0.0319061279296875
1751015437779295200,7.100295166015625,-1.1306304931640625,-0.010986328125,-0.06207275390625
1751015437789238300,7.11023828125,-1.0508880615234375,-0.00872802734375,-0.078704833984375
1751015437799181300,7.120181396484375,-0.9874725341796875,-0.00970458984375,-0.0820465087890625
1751015437809124400,7.130124267578125,-0.935272216796875,-0.01556396484375,-0.0668182373046875
1751015437819067100,7.140067138671875,-0.8897552490234375,-0.0263824462890625,-0.034423828125
1751015437829010000,7.150010009765625,-0.8522186279296875,-0.0514373779296875,-0.0069122314453125
1751015437838953000,7.159952880859375,-0.8198394775390625,-0.0888824462890625,0.0226593017578125
1751015437848896000,7.16989599609375,-0.798248291015625,-0.1324005126953125,0.0553436279296875
1751015437858840300,7.17984033203125,-0.7882843017578125,-0.1712799072265625,0.07958984375
1751015437868783400,7.189783447265625,-0.785003662109375,-0.1960906982421875,0.100372314453125
1751015437878726000,7.199725830078125,-0.7877960205078125,-0.21600341796875,0.1211700439453125
1751015437888669000,7.2096689453125,-0.7890472412109375,-0.235565185546875,0.13720703125
1751015437898612000,7.219612060546875,-0.7865447998046875,-0.252716064453125,0.1495513916015625
1751015437908555000,7.229554931640625,-0.787261962890625,-0.2603912353515625,0.157379150390625
1751015437918498000,7.239498046875,-0.7881927490234375,-0.2601318359375,0.1625518798828125
1751015437928441000,7.249441162109375,-0.787872314453125,-0.2571868896484375,0.165740966796875
1751015437938384100,7.259384033203125,-0.782196044921875,-0.2564239501953125,0.167388916015625
1751015437948328000,7.269327880859375,-0.7790069580078125,-0.2550201416015625,0.1633148193359375
1751015437958271000,7.27927099609375,-0.786834716796875,-0.2584991455078125,0.1570587158203125
1751015437968214000,7.289214111328125,-0.7948150634765625,-0.2625732421875,0.1496124267578125
1751015437978157000,7.299156982421875,-0.7940216064453125,-0.264434814453125,0.14239501953125
1751015437988100000,7.30910009765625,-0.7886505126953125,-0.25457763671875,0.1295928955078125
1751015437998043100,7.319043212890625,-0.795562744140625,-0.2385406494140625,0.11187744140625
1751015438007986200,7.328986083984375,-0.8170166015625,-0.2252044677734375,0.0924835205078125
1751015438017929000,7.338928955078125,-0.842803955078125,-0.2201385498046875,0.0706939697265625
1751015438027873000,7.348873046875,-0.8738861083984375,-0.217864990234375,0.0530548095703125
1751015438037816000,7.358816162109375,-0.9049530029296875,-0.2124176025390625,0.04150390625
1751015438047759000,7.368759033203125,-0.9392852783203125,-0.2100067138671875,0.037445068359375
1751015438057702100,7.3787021484375,-0.96832275390625,-0.21160888671875,0.0358428955078125
1751015438067645200,7.388645263671875,-0.9821929931640625,-0.2162628173828125,0.0299224853515625
1751015438077588000,7.398587890625,-0.988037109375,-0.2216949462890625,0.020538330078125
1751015438087531000,7.408531005859375,-0.9952239990234375,-0.223419189453125,0.0146942138671875
1751015438097474000,7.41847412109375,-1.012115478515625,-0.2256927490234375,0.0170745849609375
1751015438107417000,7.4284169921875,-1.02484130859375,-0.2335357666015625,0.01824951171875
1751015438117361200,7.438361083984375,-1.0311126708984375,-0.2331390380859375,0.012359619140625
1751015438127304200,7.44830419921875,-1.0453033447265625,-0.2256927490234375,0.00799560546875
1751015438137247000,7.4582470703125,-1.0625457763671875,-0.2197265625,0.003509521484375
1751015438147190000,7.46818994140625,-1.0832672119140625,-0.21380615234375,0.0025482177734375
1751015438157133000,7.478133056640625,-1.1016693115234375,-0.20556640625,0.0066680908203125
1751015438167076000,7.488076171875,-1.11614990234375,-0.196197509765625,0.0172119140625
1751015438177019100,7.49801904296875,-1.1333770751953125,-0.191802978515625,0.0327911376953125
1751015438186962200,7.507962158203125,-1.14459228515625,-0.195220947265625,0.047088623046875
1751015438196906000,7.517906005859375,-1.154571533203125,-0.207550048828125,0.0627593994140625
1751015438206849000,7.52784912109375,-1.1697540283203125,-0.2234039306640625,0.0774383544921875
1751015438216792000,7.5377919921875,-1.18182373046875,-0.2442626953125,0.0891265869140625
1751015438226735000,7.547735107421875,-1.1902618408203125,-0.2588348388671875,0.0992279052734375
1751015438236678100,7.55767822265625,-1.20831298828125,-0.260589599609375,0.106048583984375
1751015438246621200,7.56762109375,-1.235107421875,-0.253326416015625,0.1036376953125
1751015438256564200,7.577564208984375,-1.25146484375,-0.2364349365234375,0.0895538330078125
1751015438266507300,7.58750732421875,-1.2684173583984375,-0.2056732177734375,0.057861328125
1751015438276450000,7.597449951171875,-1.2854156494140625,-0.155731201171875,0.0050201416015625
1751015438286394000,7.60739404296875,-1.289825439453125,-0.1022186279296875,-0.0460968017578125
1751015438296337200,7.617337158203125,-1.2567138671875,-0.06866455078125,-0.0789794921875
1751015438306280200,7.6272802734375,-1.1769561767578125,-0.0708465576171875,-0.10333251953125
1751015438316223200,7.63722314453125,-1.0825347900390625,-0.0969390869140625,-0.1196746826171875
1751015438326166300,7.647166259765625,-0.998443603515625,-0.115203857421875,-0.1238250732421875
1751015438336109300,7.657109375,-0.9304962158203125,-0.1141815185546875,-0.1136932373046875
1751015438346052400,7.66705224609375,-0.8838958740234375,-0.109039306640625,-0.0803680419921875
1751015438355995400,7.676995361328125,-0.863677978515625,-0.1140594482421875,-0.0351409912109375
1751015438365939500,7.686939453125,-0.869171142578125,-0.13470458984375,-0.0085296630859375
1751015438375882500,7.696882568359375,-0.8770904541015625,-0.1621551513671875,0.01422119140625
1751015438385825300,7.7068251953125,-0.88909912109375,-0.1879119873046875,0.0410919189453125
1751015438395768300,7.716768310546875,-0.9153594970703125,-0.2064971923828125,0.0661468505859375
1751015438405711400,7.72671142578125,-0.938201904296875,-0.2204742431640625,0.0808258056640625
1751015438415654400,7.736654296875,-0.938690185546875,-0.225128173828125,0.084381103515625
1751015438425597400,7.746597412109375,-0.926177978515625,-0.2218475341796875,0.072662353515625
1751015438435540500,7.75654052734375,-0.9015045166015625,-0.2158660888671875,0.050994873046875
1751015438445483500,7.7664833984375,-0.8697357177734375,-0.2086944580078125,0.020172119140625
1751015438455427300,7.77642724609375,-0.8453216552734375,-0.2059478759765625,0.0006103515625
1751015438465370400,7.786370361328125,-0.8241729736328125,-0.2044830322265625,-0.0039215087890625
1751015438475313400,7.7963134765625,-0.8069610595703125,-0.2038726806640625,-0.0121917724609375
1751015438485256400,7.80625634765625,-0.7885894775390625,-0.2069244384765625,-0.0179290771484375
1751015438495199500,7.816199462890625,-0.7751922607421875,-0.2145538330078125,-0.0204315185546875
1751015438505142500,7.826142578125,-0.7745819091796875,-0.2212982177734375,-0.0161285400390625
1751015438515085600,7.83608544921875,-0.7806549072265625,-0.226837158203125,-0.0067596435546875
1751015438525028400,7.8460283203125,-0.7933502197265625,-0.23272705078125,0.00390625
1751015438534971400,7.855971435546875,-0.8154449462890625,-0.24072265625,0.0141448974609375
1751015438544915500,7.86591552734375,-0.8333740234375,-0.252471923828125,0.0222015380859375
1751015438554858500,7.8758583984375,-0.8479461669921875,-0.2615814208984375,0.03271484375
1751015438564801500,7.885801513671875,-0.86175537109375,-0.2652435302734375,0.037384033203125
1751015438574744600,7.89574462890625,-0.869873046875,-0.258544921875,0.0361480712890625
1751015438584687400,7.905687255859375,-0.8717498779296875,-0.2501220703125,0.034576416015625
1751015438594630400,7.91563037109375,-0.875396728515625,-0.2427215576171875,0.0313873291015625
1751015438604573400,7.925573486328125,-0.885498046875,-0.2410736083984375,0.0318603515625
1751015438614516200,7.93551611328125,-0.900421142578125,-0.241363525390625,0.03399658203125
1751015438624460500,7.94546044921875,-0.9172821044921875,-0.24432373046875,0.0343017578125
1751015438634403600,7.955403564453125,-0.9387359619140625,-0.252593994140625,0.0417022705078125
1751015438644346400,7.965346435546875,-0.9684600830078125,-0.2666778564453125,0.0550079345703125
1751015438654289400,7.975289306640625,-1.0102386474609375,-0.2793426513671875,0.0636444091796875
1751015438664232200,7.985232177734375,-1.0516204833984375,-0.2832183837890625,0.0629730224609375
1751015438674175200,7.99517529296875,-1.0949249267578125,-0.27435302734375,0.0613250732421875
1751015438684118300,8.0051181640625,-1.1369171142578125,-0.260528564453125,0.055206298828125
1751015438694061300,8.015061279296875,-1.1732635498046875,-0.243194580078125,0.0493316650390625
1751015438704005400,8.02500537109375,-1.1916351318359375,-0.2271270751953125,0.03936767578125
1751015438713948400,8.034948486328124,-1.190093994140625,-0.2095489501953125,0.025390625
1751015438723891200,8.04489111328125,-1.186187744140625,-0.1860809326171875,0.0162353515625
1751015438733834200,8.054834228515626,-1.1857452392578125,-0.16973876953125,0.0115966796875
1751015438743777300,8.06477734375,-1.1720123291015625,-0.172576904296875,0.0131072998046875
1751015438753720300,8.07472021484375,-1.15020751953125,-0.183563232421875,0.0173492431640625
1751015438763663400,8.084663330078126,-1.1537322998046875,-0.1949005126953125,0.0278167724609375
1751015438773606400,8.0946064453125,-1.171630859375,-0.2128448486328125,0.0452880859375
1751015438783549200,8.104549072265625,-1.1865234375,-0.2337188720703125,0.061065673828125
1751015438793493200,8.1144931640625,-1.200897216796875,-0.2470245361328125,0.07269287109375
1751015438803436300,8.124436279296875,-1.209197998046875,-0.2350921630859375,0.0862884521484375
1751015438813379300,8.13437939453125,-1.2182769775390625,-0.1959686279296875,0.0962371826171875
1751015438823322400,8.144322265625,-1.2434539794921875,-0.1392822265625,0.0948333740234375
1751015438833265400,8.154265380859375,-1.275054931640625,-0.08782958984375,0.0691680908203125
1751015438843208200,8.164208251953125,-1.279998779296875,-0.050384521484375,0.0123443603515625
1751015438853151200,8.174151123046874,-1.2455596923828125,-0.016754150390625,-0.025848388671875
1751015438863094300,8.18409423828125,-1.1905364990234375,0.010162353515625,-0.05218505859375
1751015438873038300,8.194038330078126,-1.127166748046875,0.0196685791015625,-0.08123779296875
1751015438882981400,8.2039814453125,-1.0555267333984375,0.012847900390625,-0.102996826171875
1751015438892924400,8.21392431640625,-0.9969635009765625,0.0098419189453125,-0.1082916259765625
1751015438902867200,8.2238671875,-0.9522552490234375,0.0093231201171875,-0.10064697265625
1751015438912810200,8.233810302734375,-0.9221038818359375,-0.0027923583984375,-0.078948974609375
1751015438922753300,8.243753173828125,-0.9015655517578125,-0.028594970703125,-0.038909912109375
1751015438932696300,8.2536962890625,-0.885772705078125,-0.0614013671875,-0.0068511962890625
1751015438942639400,8.263639404296875,-0.8715057373046875,-0.091552734375,0.01190185546875
1751015438952583400,8.27358349609375,-0.86181640625,-0.1122894287109375,0.0408782958984375
1751015438962526200,8.283526123046874,-0.8658447265625,-0.128021240234375,0.0693206787109375
1751015438972469200,8.29346923828125,-0.8715972900390625,-0.14178466796875,0.089263916015625
1751015438982412300,8.303412353515625,-0.8702392578125,-0.153656005859375,0.0955047607421875
1751015438992355300,8.313355224609374,-0.861846923828125,-0.1669769287109375,0.09088134765625
1751015439002298400,8.32329833984375,-0.8528289794921875,-0.17779541015625,0.079986572265625
1751015439012241400,8.333241455078126,-0.844482421875,-0.18109130859375,0.0678863525390625
1751015439022184400,8.343184326171874,-0.8280792236328125,-0.184356689453125,0.0601043701171875
1751015439032128300,8.353128173828125,-0.8113250732421875,-0.18670654296875,0.055419921875
1751015439042071300,8.3630712890625,-0.799957275390625,-0.190582275390625,0.0543212890625
1751015439052014300,8.373014404296875,-0.8019561767578125,-0.1997528076171875,0.058685302734375
1751015439061957400,8.382957275390625,-0.79974365234375,-0.2121429443359375,0.06494140625
1751015439071900400,8.392900390625,-0.7949066162109375,-0.2212982177734375,0.0714263916015625
1751015439081843500,8.402843505859375,-0.7959747314453125,-0.22552490234375,0.0758056640625
1751015439091786500,8.412786376953125,-0.80328369140625,-0.2297821044921875,0.07318115234375
1751015439101729300,8.422729248046876,-0.8106689453125,-0.2327423095703125,0.0696868896484375
1751015439111673300,8.43267333984375,-0.82318115234375,-0.23602294921875,0.0644073486328125
1751015439121616400,8.442616455078126,-0.83697509765625,-0.2416534423828125,0.0618896484375
1751015439131559400,8.452559326171874,-0.849090576171875,-0.24932861328125,0.060516357421875
1751015439141502500,8.46250244140625,-0.863983154296875,-0.2552947998046875,0.058013916015625
1751015439151445500,8.472445556640626,-0.885894775390625,-0.25994873046875,0.057525634765625
1751015439161388300,8.48238818359375,-0.9088134765625,-0.26324462890625,0.0566253662109375
1751015439171331300,8.492331298828125,-0.927978515625,-0.2659912109375,0.0511627197265625
1751015439181274400,8.5022744140625,-0.940643310546875,-0.266021728515625,0.04107666015625
1751015439191218400,8.512218505859375,-0.948577880859375,-0.2705230712890625,0.03802490234375
1751015439201161500,8.522161376953125,-0.955535888671875,-0.271636962890625,0.04248046875
1751015439211104500,8.5321044921875,-0.9817962646484375,-0.268646240234375,0.052642822265625
1751015439221047300,8.54204736328125,-1.00775146484375,-0.266876220703125,0.0604095458984375
1751015439230990300,8.551990234375,-1.01953125,-0.2566070556640625,0.0660247802734375
1751015439240933400,8.561933349609374,-1.0426025390625,-0.2390289306640625,0.069732666015625
1751015439250876400,8.57187646484375,-1.075653076171875,-0.2328338623046875,0.077545166015625
1751015439260819500,8.5818193359375,-1.1055908203125,-0.2313232421875,0.0823516845703125
1751015439270763500,8.591763427734374,-1.1356964111328125,-0.22772216796875,0.0815277099609375
1751015439280706300,8.601706298828125,-1.1594390869140625,-0.22662353515625,0.078369140625
1751015439290649300,8.6116494140625,-1.1715087890625,-0.2379150390625,0.07745361328125
1751015439300592400,8.62159228515625,-1.1782379150390625,-0.2555694580078125,0.0856781005859375
1751015439310535400,8.631535400390625,-1.1855010986328125,-0.276824951171875,0.0978851318359375
1751015439320478500,8.641478515625,-1.2032318115234375,-0.28631591796875,0.1088714599609375
1751015439330421800,8.651421875,-1.217041015625,-0.27850341796875,0.1089630126953125
1751015439340364800,8.66136474609375,-1.2229461669921875,-0.2529754638671875,0.1023712158203125
1751015439350308600,8.67130859375,-1.24774169921875,-0.213134765625,0.0894622802734375
1751015439360251600,8.681251708984375,-1.27862548828125,-0.1605224609375,0.0604400634765625
1751015439370194700,8.691194580078125,-1.297943115234375,-0.0966644287109375,0.0288848876953125
1751015439380137700,8.7011376953125,-1.2815704345703125,-0.048980712890625,0.0003204345703125
1751015439390080800,8.711080810546875,-1.21905517578125,-0.0366058349609375,-0.0156707763671875
1751015439400023800,8.72102392578125,-1.13616943359375,-0.0408935546875,-0.0308074951171875
1751015439409966600,8.730966552734374,-1.0647430419921875,-0.0518646240234375,-0.050262451171875
1751015439419909600,8.74090966796875,-1.002349853515625,-0.06622314453125,-0.06280517578125
1751015439429853700,8.750853759765626,-0.9550933837890625,-0.072601318359375,-0.0678863525390625
1751015439439796700,8.760796630859375,-0.9278106689453125,-0.076202392578125,-0.0530242919921875
1751015439449739800,8.77073974609375,-0.9238739013671875,-0.0926055908203125,-0.0138702392578125
1751015439459682800,8.780682861328126,-0.94000244140625,-0.1180572509765625,0.0141448974609375
1751015439469625600,8.79062548828125,-0.9650726318359375,-0.143646240234375,0.0324554443359375
1751015439479568600,8.800568603515625,-0.9849700927734375,-0.158111572265625,0.0522613525390625
1751015439489511700,8.81051171875,-0.9958953857421875,-0.166259765625,0.062530517578125
1751015439499454700,8.820454833984375,-0.9932861328125,-0.16558837890625,0.063079833984375
1751015439509398800,8.830398681640625,-0.9767608642578125,-0.1637725830078125,0.0511322021484375
1751015439519341800,8.840341796875,-0.952301025390625,-0.161834716796875,0.023040771484375
1751015439529284600,8.85028466796875,-0.921234130859375,-0.1593780517578125,-0.00762939453125
1751015439539227600,8.8602275390625,-0.8862152099609375,-0.1610870361328125,-0.02435302734375
1751015439549170700,8.870170654296874,-0.84893798828125,-0.17138671875,-0.036895751953125
1751015439559113700,8.88011376953125,-0.815521240234375,-0.1865081787109375,-0.0448150634765625
1751015439569056800,8.890056884765626,-0.79095458984375,-0.2026519775390625,-0.044952392578125
1751015439578999800,8.899999755859374,-0.778564453125,-0.2164459228515625,-0.0380706787109375
1751015439588943600,8.909943603515625,-0.7849578857421875,-0.2240142822265625,-0.0184173583984375
1751015439598886700,8.91988671875,-0.798736572265625,-0.232757568359375,-0.003021240234375
1751015439608829700,8.92982958984375,-0.8082275390625,-0.2447967529296875,0.0042724609375
1751015439618772700,8.939772705078125,-0.8186798095703125,-0.2583465576171875,0.0180511474609375
1751015439628715800,8.9497158203125,-0.8384246826171875,-0.26763916015625,0.0390777587890625
1751015439638658800,8.959658935546875,-0.857330322265625,-0.2758636474609375,0.06011962890625
1751015439648601900,8.969601806640625,-0.8627777099609375,-0.279083251953125,0.068634033203125
1751015439658545700,8.979545654296874,-0.85699462890625,-0.2711181640625,0.0619354248046875
1751015439668488700,8.98948876953125,-0.860321044921875,-0.2617340087890625,0.05218505859375
1751015439678431700,8.999431640625,-0.8741455078125,-0.2578887939453125,0.0503082275390625
1751015439688374800,9.009374755859374,-0.8894500732421875,-0.2538909912109375,0.0498504638671875
1751015439698317800,9.01931787109375,-0.9065093994140625,-0.2470855712890625,0.0558319091796875
1751015439708260900,9.0292607421875,-0.9243011474609375,-0.2388153076171875,0.0601348876953125
1751015439718204000,9.039203857421874,-0.9411773681640625,-0.2337188720703125,0.0584869384765625
1751015439728146700,9.049146728515625,-0.958465576171875,-0.2353363037109375,0.05426025390625
1751015439738090800,9.0590908203125,-0.98828125,-0.240203857421875,0.0525970458984375
1751015439748033800,9.06903369140625,-1.0159759521484375,-0.2437744140625,0.0506439208984375
1751015439757976800,9.078976806640625,-1.0412445068359375,-0.247161865234375,0.0581817626953125
1751015439767919900,9.088919921875,-1.0609893798828125,-0.2531280517578125,0.067047119140625
1751015439777863000,9.09886279296875,-1.0840606689453125,-0.256744384765625,0.0705413818359375
1751015439787805700,9.1088056640625,-1.1190948486328125,-0.25433349609375,0.0697021484375
1751015439797748700,9.118748779296874,-1.1576080322265625,-0.247406005859375,0.067840576171875
1751015439807691800,9.12869189453125,-1.1878509521484375,-0.2424774169921875,0.0641326904296875
1751015439817635800,9.1386357421875,-1.2050933837890625,-0.2438201904296875,0.0617218017578125
1751015439827579000,9.148578857421874,-1.2073974609375,-0.2524871826171875,0.0621337890625
1751015439837521700,9.158521728515625,-1.2063446044921875,-0.2635498046875,0.0656890869140625
1751015439847464700,9.168464599609376,-1.20196533203125,-0.278411865234375,0.070831298828125
1751015439857407700,9.17840771484375,-1.1910858154296875,-0.282806396484375,0.07257080078125
1751015439867350800,9.188350830078125,-1.1784210205078125,-0.261138916015625,0.0677032470703125
1751015439877293800,9.1982939453125,-1.1773529052734375,-0.2272796630859375,0.0575714111328125
1751015439887238000,9.20823779296875,-1.169921875,-0.198150634765625,0.0414276123046875
1751015439897180700,9.2181806640625,-1.1673736572265625,-0.1650238037109375,0.0130157470703125
1751015439907123700,9.228123779296874,-1.1747283935546875,-0.1211700439453125,-0.020416259765625
1751015439917066800,9.238066650390625,-1.1746063232421875,-0.08673095703125,-0.062042236328125
1751015439927009800,9.248009765625,-1.15679931640625,-0.076995849609375,-0.0997314453125
1751015439936952800,9.257952880859374,-1.1138153076171875,-0.07354736328125,-0.124847412109375
1751015439946896000,9.267895751953125,-1.0621337890625,-0.08380126953125,-0.1448974609375
1751015439956839000,9.2778388671875,-1.0166778564453125,-0.1004180908203125,-0.1611175537109375
1751015439966782700,9.28778271484375,-0.9714508056640625,-0.109619140625,-0.165679931640625
1751015439976725800,9.297725830078125,-0.9263916015625,-0.1211395263671875,-0.1556854248046875
1751015439986668800,9.307668701171876,-0.89776611328125,-0.1369171142578125,-0.1239166259765625
1751015439996611800,9.31761181640625,-0.8939971923828125,-0.1580810546875,-0.09014892578125
1751015440006555000,9.327554931640625,-0.89202880859375,-0.1884002685546875,-0.066497802734375
1751015440016498000,9.337497802734376,-0.88671875,-0.2116241455078125,-0.0362701416015625
1751015440026441000,9.34744091796875,-0.8948211669921875,-0.223480224609375,-0.00604248046875
1751015440036384800,9.357384765625,-0.908447265625,-0.230987548828125,0.020477294921875
1751015440046327800,9.367327880859374,-0.9120635986328125,-0.2322845458984375,0.0393829345703125
1751015440056270800,9.377270751953125,-0.900787353515625,-0.2295684814453125,0.0483245849609375
1751015440066214000,9.3872138671875,-0.8850860595703125,-0.2283477783203125,0.0470428466796875
1751015440076157000,9.397156982421874,-0.8735809326171875,-0.2225189208984375,0.03558349609375
1751015440086100000,9.407099853515625,-0.864349365234375,-0.2164306640625,0.0145111083984375
1751015440096042800,9.417042724609376,-0.8488311767578125,-0.2159271240234375,-0.0087890625
1751015440105985500,9.426985595703124,-0.825164794921875,-0.216156005859375,-0.0186920166015625
1751015440115929900,9.436929931640625,-0.8129730224609375,-0.217254638671875,-0.016448974609375
1751015440125873000,9.446872802734376,-0.80767822265625,-0.22332763671875,-0.0128326416015625
1751015440135816000,9.45681591796875,-0.8049468994140625,-0.23321533203125,-0.009490966796875
1751015440145758700,9.4667587890625,-0.807647705078125,-0.2469024658203125,0.0008544921875
1751015440155701800,9.47670166015625,-0.81402587890625,-0.2578125,0.0135040283203125
1751015440165644500,9.48664453125,-0.8267669677734375,-0.266754150390625,0.024169921875
1751015440175587600,9.496587646484375,-0.8417816162109375,-0.2768707275390625,0.0332489013671875
1751015440185532000,9.506531982421874,-0.855712890625,-0.281463623046875,0.0418243408203125
1751015440195475000,9.516474853515625,-0.8638458251953125,-0.2785186767578125,0.052398681640625
1751015440205417700,9.526417724609376,-0.8736724853515625,-0.2709503173828125,0.06207275390625
1751015440215360800,9.53636083984375,-0.8908233642578125,-0.2639923095703125,0.0665740966796875
1751015440225303600,9.546303466796875,-0.9063568115234375,-0.260467529296875,0.0609283447265625
1751015440235246600,9.55624658203125,-0.91314697265625,-0.258880615234375,0.0499725341796875
1751015440245189600,9.566189697265624,-0.9141845703125,-0.2608184814453125,0.0435943603515625
1751015440255133700,9.5761337890625,-0.919708251953125,-0.26763916015625,0.03729248046875
1751015440265076700,9.58607666015625,-0.937164306640625,-0.282745361328125,0.0294189453125
1751015440275019500,9.59601953125,-0.956207275390625,-0.3031463623046875,0.02972412109375
1751015440284962600,9.605962646484375,-0.971038818359375,-0.3169097900390625,0.034210205078125
1751015440294905600,9.615905517578126,-0.9954833984375,-0.31866455078125,0.0442352294921875
1751015440304848600,9.6258486328125,-1.0380096435546875,-0.31610107421875,0.062591552734375
1751015440314791700,9.635791748046875,-1.0782928466796875,-0.3118133544921875,0.074981689453125
1751015440324734000,9.64573388671875,-1.1142730712890625,-0.29608154296875,0.078277587890625
1751015440334678000,9.655677978515625,-1.154327392578125,-0.27490234375,0.0845489501953125
1751015440344621000,9.66562109375,-1.1938323974609375,-0.2620391845703125,0.095672607421875
1751015440354563800,9.675563720703124,-1.21087646484375,-0.2543182373046875,0.0989227294921875
1751015440364507000,9.6855068359375,-1.202301025390625,-0.2491912841796875,0.0957489013671875
1751015440374450000,9.695449951171875,-1.185302734375,-0.268951416015625,0.0949554443359375
1751015440384393000,9.70539306640625,-1.1757049560546875,-0.29962158203125,0.094329833984375
1751015440394336000,9.7153359375,-1.164459228515625,-0.310699462890625,0.0908203125
1751015440404280000,9.725280029296876,-1.1550750732421875,-0.30853271484375,0.089752197265625
1751015440414222800,9.735222900390625,-1.1513519287109375,-0.303955078125,0.0787353515625
1751015440424166000,9.745165771484375,-1.1475372314453125,-0.3003997802734375,0.0488128662109375
1751015440434109000,9.75510888671875,-1.1411895751953125,-0.2845306396484375,0.0153350830078125
1751015440444052000,9.765052001953125,-1.1465911865234375,-0.246429443359375,-0.00994873046875
1751015440453995000,9.7749951171875,-1.15496826171875,-0.215362548828125,-0.0335540771484375
1751015440463938000,9.78493798828125,-1.1312103271484375,-0.2081298828125,-0.061981201171875
1751015440473881900,9.7948818359375,-1.072113037109375,-0.206756591796875,-0.09088134765625
1751015440483825000,9.804824951171875,-1.0140533447265625,-0.20721435546875,-0.108428955078125
1751015440493768000,9.814767822265624,-0.970367431640625,-0.2093505859375,-0.1180877685546875
1751015440503711000,9.8247109375,-0.9432830810546875,-0.2085723876953125,-0.119232177734375
1751015440513654000,9.834654052734376,-0.93310546875,-0.2114410400390625,-0.1092987060546875
1751015440523597000,9.84459716796875,-0.9340667724609375,-0.2189483642578125,-0.0913848876953125
1751015440533540000,9.8545400390625,-0.941314697265625,-0.227630615234375,-0.079193115234375
1751015440543483100,9.864483154296876,-0.9396820068359375,-0.24005126953125,-0.0713958740234375
1751015440553427000,9.874427001953125,-0.93975830078125,-0.2539215087890625,-0.06829833984375
1751015440563370000,9.884369873046875,-0.944549560546875,-0.262298583984375,-0.0705108642578125
1751015440573313000,9.89431298828125,-0.9507293701171875,-0.2583770751953125,-0.078521728515625
1751015440583256000,9.904256103515625,-0.947998046875,-0.24871826171875,-0.09295654296875
1751015440593199000,9.91419921875,-0.9320068359375,-0.2409210205078125,-0.114471435546875
1751015440603142100,9.92414208984375,-0.912109375,-0.23687744140625,-0.1376953125
1751015440613085000,9.9340849609375,-0.8881378173828125,-0.24017333984375,-0.1515350341796875
1751015440623029000,9.944029052734376,-0.8652496337890625,-0.244842529296875,-0.1592864990234375
1751015440632972000,9.953971923828124,-0.8420257568359375,-0.2471466064453125,-0.158172607421875
1751015440642915000,9.9639150390625,-0.82464599609375,-0.2510833740234375,-0.1490936279296875
1751015440652858000,9.973858154296876,-0.8133392333984375,-0.2549896240234375,-0.1352691650390625
1751015440662801200,9.98380126953125,-0.81396484375,-0.2610931396484375,-0.1215972900390625
1751015440672744000,9.993743896484375,-0.8232269287109375,-0.26751708984375,-0.113494873046875
1751015440682687000,10.00368701171875,-0.8320159912109375,-0.2745361328125,-0.10882568359375
1751015440692631000,10.013631103515625,-0.84454345703125,-0.2790679931640625,-0.1014556884765625
1751015440702574000,10.023573974609375,-0.858001708984375,-0.28204345703125,-0.095611572265625
1751015440712517000,10.03351708984375,-0.8626556396484375,-0.2872314453125,-0.0929412841796875
1751015440722460000,10.0434599609375,-0.8673095703125,-0.29119873046875,-0.0885162353515625
1751015440732403000,10.05340283203125,-0.87353515625,-0.298614501953125,-0.0800323486328125
1751015440742346000,10.063345947265624,-0.878326416015625,-0.302520751953125,-0.0716705322265625
1751015440752289000,10.0732890625,-0.8798980712890625,-0.2974395751953125,-0.0682525634765625
1751015440762233000,10.083233154296876,-0.8846893310546875,-0.2947845458984375,-0.0650787353515625
1751015440772176100,10.093176025390624,-0.89324951171875,-0.295501708984375,-0.05755615234375
1751015440782119000,10.103118896484375,-0.9010162353515625,-0.2952423095703125,-0.0435028076171875
1751015440792062000,10.11306201171875,-0.917083740234375,-0.2891998291015625,-0.0310821533203125
1751015440802005000,10.1230048828125,-0.9394378662109375,-0.2843017578125,-0.023895263671875
1751015440811948000,10.132947998046875,-0.9719085693359375,-0.2802276611328125,-0.0171051025390625
1751015440821891000,10.14289111328125,-1.00701904296875,-0.278594970703125,-0.015899658203125
1751015440831835100,10.152835205078125,-1.0402984619140625,-0.2791290283203125,-0.0149383544921875
1751015440841778000,10.16277783203125,-1.0656585693359375,-0.281707763671875,-0.009918212890625
1751015440851721000,10.172720947265624,-1.085205078125,-0.2823486328125,-0.00811767578125
1751015440861664000,10.1826640625,-1.1031646728515625,-0.279327392578125,-0.0146942138671875
1751015440871607000,10.19260693359375,-1.1171112060546875,-0.2777099609375,-0.040069580078125
1751015440881550000,10.202550048828124,-1.1324005126953125,-0.274261474609375,-0.0868682861328125
1751015440891493000,10.2124931640625,-1.1435699462890625,-0.2691802978515625,-0.122833251953125
1751015440901437000,10.22243701171875,-1.1483001708984375,-0.2748260498046875,-0.14068603515625
1751015440911380000,10.2323798828125,-1.1424560546875,-0.283447265625,-0.13946533203125
1751015440921323000,10.242322998046875,-1.1377410888671875,-0.2892303466796875,-0.1056365966796875
1751015440931266000,10.25226611328125,-1.1506195068359375,-0.296844482421875,-0.07147216796875
1751015440941209000,10.262208984375,-1.15753173828125,-0.30078125,-0.05169677734375
1751015440951152000,10.272152099609375,-1.15216064453125,-0.2950286865234375,-0.0355377197265625
1751015440961095200,10.28209521484375,-1.161834716796875,-0.2884063720703125,-0.0281524658203125
1751015440971039000,10.2920390625,-1.1903228759765625,-0.26824951171875,-0.030609130859375
1751015440980982000,10.30198193359375,-1.2066650390625,-0.232635498046875,-0.0500946044921875
1751015440990925000,10.311925048828124,-1.1836700439453125,-0.204193115234375,-0.089263916015625
1751015441000868000,10.3218681640625,-1.1324920654296875,-0.204193115234375,-0.123504638671875
1751015441010811100,10.33181103515625,-1.0713348388671875,-0.2124481201171875,-0.144500732421875
1751015441020754200,10.341754150390624,-1.0159912109375,-0.2104034423828125,-0.16046142578125
1751015441030697200,10.351697265625,-0.9647064208984375,-0.2009735107421875,-0.1681976318359375
1751015441040641000,10.36164111328125,-0.921112060546875,-0.1885986328125,-0.166107177734375
1751015441050584000,10.371583984375,-0.891693115234375,-0.180572509765625,-0.149871826171875
1751015441060527000,10.381527099609375,-0.8769073486328125,-0.178955078125,-0.109039306640625
1751015441070470100,10.39147021484375,-0.8704071044921875,-0.1880950927734375,-0.0661468505859375
1751015441080413200,10.4014130859375,-0.85858154296875,-0.2058868408203125,-0.0281982421875
1751015441090356200,10.411356201171875,-0.8473968505859375,-0.2302093505859375,0.0135955810546875
1751015441100299000,10.421299072265626,-0.8395233154296875,-0.2493438720703125,0.049041748046875
1751015441110243000,10.4312431640625,-0.8383331298828125,-0.25299072265625,0.072540283203125
1751015441120186000,10.44118603515625,-0.8446044921875,-0.2471923828125,0.0826263427734375
1751015441130129200,10.451129150390624,-0.8544464111328125,-0.2442169189453125,0.0770111083984375
1751015441140072200,10.461072265625,-0.863922119140625,-0.245819091796875,0.0578155517578125
1751015441150015000,10.471014892578125,-0.86724853515625,-0.2448272705078125,0.038848876953125
1751015441159957800,10.480957763671874,-0.86212158203125,-0.2377777099609375,0.0350799560546875
1751015441169900800,10.49090087890625,-0.858062744140625,-0.2265777587890625,0.03582763671875
1751015441179845000,10.50084521484375,-0.8632965087890625,-0.2203216552734375,0.0335693359375
1751015441189788200,10.5107880859375,-0.8651123046875,-0.22174072265625,0.026123046875
1751015441199731200,10.520731201171875,-0.8613128662109375,-0.2230377197265625,0.0172882080078125
1751015441209674000,10.530674072265626,-0.8589019775390625,-0.2197113037109375,0.006927490234375
1751015441219616800,10.54061669921875,-0.8604278564453125,-0.217132568359375,-0.0062713623046875
1751015441229559800,10.550559814453125,-0.86468505859375,-0.2178955078125,-0.0198974609375
1751015441239502800,10.5605029296875,-0.87200927734375,-0.221466064453125,-0.0265045166015625
1751015441249447200,10.570447265625,-0.8791351318359375,-0.227142333984375,-0.029693603515625
1751015441259390000,10.580389892578125,-0.883819580078125,-0.235076904296875,-0.031005859375
1751015441269333000,10.5903330078125,-0.891387939453125,-0.242095947265625,-0.0247955322265625
1751015441279275800,10.60027587890625,-0.8931884765625,-0.2494964599609375,-0.0173492431640625
1751015441289218800,10.61021875,-0.89019775390625,-0.25,-0.0132904052734375
1751015441299161900,10.620161865234374,-0.890380859375,-0.253509521484375,-0.015594482421875
1751015441309105000,10.63010498046875,-0.89617919921875,-0.26312255859375,-0.0168304443359375
1751015441319049000,10.640049072265626,-0.902191162109375,-0.2767486572265625,-0.0183563232421875
1751015441328992300,10.6499921875,-0.9120635986328125,-0.287811279296875,-0.016387939453125
1751015441338935300,10.659935302734375,-0.933868408203125,-0.2972564697265625,-0.005401611328125
1751015441348878300,10.66987841796875,-0.9640045166015625,-0.31097412109375,0.00537109375
1751015441358821400,10.6798212890625,-0.992340087890625,-0.323211669921875,0.0127716064453125
1751015441368764400,10.689764404296875,-1.0225830078125,-0.32940673828125,0.01708984375
1751015441378707200,10.699707275390624,-1.045562744140625,-0.3294677734375,0.01947021484375
1751015441388651300,10.7096513671875,-1.0713958740234375,-0.322479248046875,0.025299072265625
1751015441398594300,10.71959423828125,-1.1071624755859375,-0.305450439453125,0.033050537109375
1751015441408537300,10.729537353515624,-1.142181396484375,-0.288330078125,0.03759765625
1751015441418480400,10.73948046875,-1.1692047119140625,-0.2742919921875,0.0390472412109375
1751015441428423400,10.74942333984375,-1.1845855712890625,-0.27044677734375,0.042999267578125
1751015441438366200,10.7593662109375,-1.1864471435546875,-0.282867431640625,0.0502777099609375
1751015441448309200,10.769309326171875,-1.1831207275390625,-0.2980194091796875,0.0599517822265625
1751015441458253300,10.77925341796875,-1.1867828369140625,-0.296630859375,0.0690155029296875
1751015441468196400,10.7891962890625,-1.20648193359375,-0.2865142822265625,0.0809478759765625
1751015441478139400,10.799139404296875,-1.2466583251953125,-0.2667083740234375,0.0801849365234375
1751015441488082200,10.809082275390624,-1.28057861328125,-0.2358245849609375,0.0537567138671875
1751015441498025200,10.819025146484375,-1.29022216796875,-0.1928253173828125,0.008331298828125
1751015441507968300,10.82896826171875,-1.2837982177734375,-0.146728515625,-0.031707763671875
1751015441517911300,10.838911376953124,-1.240386962890625,-0.118499755859375,-0.053314208984375
1751015441527855400,10.84885546875,-1.1505126953125,-0.1107940673828125,-0.0672149658203125
1751015441537798400,10.85879833984375,-1.06414794921875,-0.120391845703125,-0.082794189453125
1751015441547741200,10.8687412109375,-0.9951324462890625,-0.130157470703125,-0.0924224853515625
1751015441557684200,10.878684326171875,-0.9488983154296875,-0.128692626953125,-0.0883941650390625
1751015441567627300,10.888627197265626,-0.9258270263671875,-0.1172332763671875,-0.0574798583984375
1751015441577570300,10.8985703125,-0.9272003173828125,-0.1202850341796875,-0.0270538330078125
1751015441587514400,10.908514404296875,-0.932525634765625,-0.1375579833984375,-0.020233154296875
1751015441597457200,10.91845703125,-0.9444732666015625,-0.1548919677734375,-0.0054931640625
1751015441607400200,10.928400146484375,-0.973114013671875,-0.1739349365234375,0.0224609375
1751015441617343200,10.93834326171875,-0.9898223876953125,-0.1956939697265625,0.039459228515625
1751015441627286300,10.948286376953124,-0.9836273193359375,-0.205352783203125,0.043914794921875
1751015441637229300,10.958229248046875,-0.965850830078125,-0.201202392578125,0.0367431640625
1751015441647172000,10.968172119140625,-0.9524383544921875,-0.1946868896484375,0.0101165771484375
1751015441657116200,10.9781162109375,-0.9371490478515625,-0.195098876953125,-0.02362060546875
1751015441667059200,10.98805908203125,-0.9234619140625,-0.1941375732421875,-0.043212890625
1751015441677002200,10.998002197265626,-0.9049224853515625,-0.192352294921875,-0.0547637939453125
1751015441686945300,11.0079453125,-0.87322998046875,-0.1851348876953125,-0.0635986328125
1751015441696888300,11.017888427734375,-0.844482421875,-0.1846160888671875,-0.0765533447265625
1751015441706831000,11.0278310546875,-0.821258544921875,-0.190887451171875,-0.08721923828125
1751015441716774100,11.037774169921875,-0.7975921630859375,-0.195526123046875,-0.087799072265625
1751015441726718200,11.04771826171875,-0.78082275390625,-0.199432373046875,-0.073333740234375
1751015441736661200,11.0576611328125,-0.7839508056640625,-0.206207275390625,-0.0530548095703125
1751015441746604300,11.067604248046875,-0.7990570068359375,-0.2161407470703125,-0.0323944091796875
1751015441756547300,11.07754736328125,-0.81207275390625,-0.2276153564453125,-0.0218048095703125
1751015441766490000,11.087489990234374,-0.8200531005859375,-0.2459564208984375,-0.0217742919921875
1751015441776433200,11.09743310546875,-0.8156585693359375,-0.2409820556640625,0.0156402587890625
1751015441786377200,11.107377197265626,-0.8288116455078125,-0.2215728759765625,0.041534423828125
1751015441796320300,11.1173203125,-0.8601531982421875,-0.23150634765625,0.00457763671875
1751015441806263300,11.12726318359375,-0.84124755859375,-0.2475433349609375,-0.0152740478515625
1751015441816206300,11.137206298828126,-0.8151397705078125,-0.23907470703125,-0.0161285400390625
1751015441826149000,11.147149169921875,-0.821044921875,-0.2169952392578125,-0.005889892578125
1751015441836092200,11.157092041015625,-0.8448944091796875,-0.22125244140625,-0.01385498046875
1751015441846035200,11.16703515625,-0.8651580810546875,-0.231658935546875,-0.01580810546875
1751015441855979300,11.176979248046875,-0.893218994140625,-0.233917236328125,-0.01025390625
1751015441865922300,11.18692236328125,-0.9293365478515625,-0.2328948974609375,-0.004791259765625
1751015441875865300,11.196865234375,-0.9530792236328125,-0.2314453125,0.0009002685546875
1751015441885808000,11.20680810546875,-0.9852142333984375,-0.2313232421875,0.010528564453125
1751015441895751200,11.216751220703125,-1.0243988037109375,-0.235382080078125,0.02117919921875
1751015441905694200,11.226694091796874,-1.06121826171875,-0.23822021484375,0.0282440185546875
1751015441915637200,11.23663720703125,-1.0913238525390625,-0.2403106689453125,0.0348663330078125
1751015441925581300,11.246581298828126,-1.1044921875,-0.243377685546875,0.0399169921875
1751015441935524400,11.2565244140625,-1.1062469482421875,-0.2410736083984375,0.04400634765625
1751015441945467100,11.266467041015625,-1.1052398681640625,-0.23583984375,0.0482330322265625
1751015441955410200,11.27641015625,-1.107635498046875,-0.2310791015625,0.0463714599609375
1751015441965353200,11.286353271484375,-1.119720458984375,-0.2325439453125,0.0464935302734375
1751015441975296300,11.296296142578125,-1.14202880859375,-0.242218017578125,0.0517730712890625
1751015441985240300,11.306240234375,-1.1746826171875,-0.2478790283203125,0.0621185302734375
1751015441995183000,11.31618310546875,-1.20245361328125,-0.2490234375,0.079803466796875
1751015442005126100,11.326126220703125,-1.221099853515625,-0.2442626953125,0.0972747802734375
1751015442015069200,11.336069091796874,-1.236053466796875,-0.233428955078125,0.1124725341796875
1751015442025012200,11.34601220703125,-1.243743896484375,-0.2245941162109375,0.1224365234375
1751015442034955300,11.355955322265626,-1.2462005615234375,-0.20208740234375,0.119415283203125
1751015442044898300,11.365898193359374,-1.248382568359375,-0.1624603271484375,0.102447509765625
1751015442054842000,11.375842041015625,-1.2400360107421875,-0.109771728515625,0.0742950439453125
1751015442064785200,11.38578515625,-1.21417236328125,-0.0710601806640625,0.0378570556640625
1751015442074728200,11.395728271484375,-1.175201416015625,-0.0576629638671875,0.00726318359375
1751015442084671200,11.405671142578125,-1.126495361328125,-0.0539093017578125,-0.00616455078125
1751015442094614300,11.4156142578125,-1.0827484130859375,-0.0508575439453125,-0.0193023681640625
1751015442104557300,11.425557373046875,-1.05194091796875,-0.0446624755859375,-0.02490234375
1751015442114501000,11.435501220703125,-1.021514892578125,-0.044952392578125,-0.0265960693359375
1751015442124444200,11.445444091796874,-0.9973297119140625,-0.054656982421875,-0.0134735107421875
1751015442134387200,11.45538720703125,-0.974639892578125,-0.0703582763671875,0.0072021484375
1751015442144330200,11.465330322265626,-0.956573486328125,-0.0926666259765625,0.0282745361328125
1751015442154273300,11.475273193359374,-0.941619873046875,-0.11767578125,0.039154052734375
1751015442164216300,11.48521630859375,-0.9300079345703125,-0.139373779296875,0.0424652099609375
1751015442174159400,11.495159423828126,-0.926666259765625,-0.1495361328125,0.0506439208984375
1751015442184103200,11.505103271484375,-0.9220733642578125,-0.159881591796875,0.057159423828125
1751015442194046200,11.515046142578125,-0.909637451171875,-0.1684112548828125,0.059661865234375
1751015442203989200,11.5249892578125,-0.898956298828125,-0.171142578125,0.0533447265625
1751015442213932300,11.534932373046875,-0.8900909423828125,-0.171630859375,0.03973388671875
1751015442223875300,11.544875244140625,-0.8767547607421875,-0.1713409423828125,0.0248870849609375
1751015442233818400,11.554818359375,-0.856658935546875,-0.1738128662109375,0.0128936767578125
1751015442243762200,11.56476220703125,-0.8414459228515625,-0.1820526123046875,0.00286865234375
1751015442253705200,11.574705322265626,-0.8307647705078125,-0.1930084228515625,0.00048828125
1751015442263648300,11.584648193359374,-0.8240509033203125,-0.20538330078125,0.004486083984375
1751015442273591300,11.59459130859375,-0.8184814453125,-0.2199554443359375,0.0100860595703125
1751015442283534300,11.604534423828126,-0.813568115234375,-0.2285308837890625,0.014923095703125
1751015442293477400,11.614477294921874,-0.818267822265625,-0.232269287109375,0.016571044921875
1751015442303420400,11.62442041015625,-0.833160400390625,-0.2350921630859375,0.0138397216796875
1751015442313364200,11.6343642578125,-0.8464508056640625,-0.2382659912109375,0.0081634521484375
1751015442323307300,11.644307373046875,-0.850616455078125,-0.2423858642578125,0.0032196044921875
1751015442333251800,11.654251953125,-0.8534393310546875,-0.245208740234375,-0.0044403076171875
1751015442343194600,11.664194580078124,-0.8569488525390625,-0.2488555908203125,-0.0162811279296875
1751015442353137700,11.6741376953125,-0.8574371337890625,-0.25347900390625,-0.0294342041015625
1751015442363080700,11.684080810546876,-0.8587493896484375,-0.2537078857421875,-0.0428009033203125
1751015442373024800,11.694024658203125,-0.8644866943359375,-0.2516326904296875,-0.0533599853515625
1751015442382967800,11.7039677734375,-0.87152099609375,-0.2459259033203125,-0.0578460693359375
1751015442392910600,11.71391064453125,-0.8860015869140625,-0.2520751953125,-0.0513916015625
1751015442402853600,11.723853515625,-0.9073333740234375,-0.268768310546875,-0.0374603271484375
1751015442412796700,11.733796630859375,-0.9387054443359375,-0.279266357421875,-0.017852783203125
1751015442422739500,11.743739501953126,-0.980682373046875,-0.2836151123046875,0.005462646484375
1751015442432682500,11.7536826171875,-1.029510498046875,-0.28546142578125,0.025543212890625
1751015442442626800,11.763626708984376,-1.0693511962890625,-0.28326416015625,0.04290771484375
1751015442452569600,11.773569580078124,-1.098114013671875,-0.27825927734375,0.053070068359375
1751015442462512600,11.7835126953125,-1.121917724609375,-0.2771148681640625,0.0539703369140625
1751015442472455700,11.79345556640625,-1.1461181640625,-0.2765350341796875,0.05670166015625
1751015442482398500,11.8033984375,-1.1690521240234375,-0.279632568359375,0.0587615966796875
1751015442492341500,11.813341552734375,-1.1753387451171875,-0.2902069091796875,0.055633544921875
1751015442502285800,11.823285888671874,-1.1638641357421875,-0.3088531494140625,0.050811767578125
1751015442512228600,11.833228515625,-1.1511993408203125,-0.330657958984375,0.04718017578125
1751015442522171600,11.843171630859375,-1.1560821533203125,-0.3510284423828125,0.0499114990234375
1751015442532114400,11.853114501953126,-1.17572021484375,-0.3520355224609375,0.0592193603515625
1751015442542057500,11.863057373046875,-1.221435546875,-0.3308868408203125,0.0635528564453125
1751015442552000500,11.87300048828125,-1.2825164794921875,-0.2898406982421875,0.053314208984375
1751015442561944800,11.88294482421875,-1.3444976806640625,-0.238006591796875,0.043365478515625
1751015442571887600,11.8928876953125,-1.370574951171875,-0.1786041259765625,0.03192138671875
1751015442581830700,11.90283056640625,-1.3422088623046875,-0.1189117431640625,0.0160980224609375
1751015442591773400,11.9127734375,-1.250885009765625,-0.077972412109375,0.0113525390625
1751015442601716500,11.922716552734375,-1.1239471435546875,-0.0542449951171875,0.001495361328125
1751015442611659500,11.932659423828126,-1.0118560791015625,-0.049713134765625,-0.0224761962890625
1751015442621602600,11.9426025390625,-0.9265289306640625,-0.05718994140625,-0.04144287109375
1751015442631546600,11.952546630859375,-0.880706787109375,-0.059326171875,-0.0391998291015625
1751015442641489400,11.962489501953126,-0.870086669921875,-0.0562896728515625,-0.0121612548828125
1751015442651432400,11.972432373046875,-0.8754119873046875,-0.0672149658203125,0.035797119140625
1751015442661375500,11.98237548828125,-0.9033660888671875,-0.1043548583984375,0.0785369873046875
1751015442671318500,11.992318603515624,-0.9569244384765625,-0.1412200927734375,0.1101531982421875
1751015442681261600,12.002261474609375,-1.005584716796875,-0.163787841796875,0.1361846923828125
1751015442691205600,12.01220556640625,-1.0206756591796875,-0.182830810546875,0.1365966796875
1751015442701148400,12.0221484375,-1.01409912109375,-0.19091796875,0.1210784912109375
1751015442711091500,12.032091552734375,-1.00408935546875,-0.1876678466796875,0.09783935546875
1751015442721034500,12.042034423828126,-0.9966278076171875,-0.1830596923828125,0.0585784912109375
1751015442730977500,12.0519775390625,-0.9845428466796875,-0.1821136474609375,0.0202484130859375
1751015442740920600,12.061920654296875,-0.9579315185546875,-0.17755126953125,-0.0064239501953125
1751015442750864400,12.071864501953126,-0.9192962646484375,-0.1725616455078125,-0.026336669921875
1751015442760807400,12.081807373046875,-0.8802337646484375,-0.1776885986328125,-0.044525146484375
1751015442770750500,12.09175048828125,-0.8416290283203125,-0.1862335205078125,-0.061431884765625
1751015442780693500,12.101693603515624,-0.8213653564453125,-0.19207763671875,-0.0718231201171875
1751015442790636500,12.111636474609375,-0.81793212890625,-0.1966552734375,-0.0726318359375
1751015442800579600,12.12157958984375,-0.8294677734375,-0.200958251953125,-0.066131591796875
1751015442810522600,12.131522705078124,-0.847259521484375,-0.2105865478515625,-0.0538330078125
1751015442820466400,12.141466552734375,-0.855133056640625,-0.228668212890625,-0.04779052734375
1751015442830409500,12.151409423828126,-0.85516357421875,-0.2488555908203125,-0.0423126220703125
1751015442840352500,12.1613525390625,-0.8587493896484375,-0.2653961181640625,-0.03375244140625
1751015442850295600,12.171295654296875,-0.860748291015625,-0.280853271484375,-0.02996826171875
1751015442860238600,12.181238525390626,-0.8598785400390625,-0.2937469482421875,-0.0269775390625
1751015442870181600,12.191181640625,-0.8599700927734375,-0.3003997802734375,-0.02252197265625
1751015442880125400,12.20112548828125,-0.8744964599609375,-0.2981109619140625,-0.0154571533203125
1751015442890068500,12.211068359375,-0.8944549560546875,-0.29254150390625,-0.0120391845703125
1751015442900011500,12.221011474609375,-0.9015045166015625,-0.2851409912109375,-0.0145111083984375
1751015442909954600,12.23095458984375,-0.91046142578125,-0.2728729248046875,-0.0211944580078125
1751015442919897600,12.240897705078124,-0.923736572265625,-0.260162353515625,-0.02581787109375
1751015442929840600,12.250840576171875,-0.9491119384765625,-0.2528076171875,-0.0288848876953125
1751015442939784400,12.260784423828126,-0.98687744140625,-0.2514190673828125,-0.0253753662109375
1751015442949727500,12.2707275390625,-1.03076171875,-0.2475738525390625,-0.0137939453125
1751015442959670500,12.28067041015625,-1.0688323974609375,-0.243255615234375,-0.0027313232421875
1751015442969613600,12.290613525390626,-1.09222412109375,-0.24761962890625,0.00750732421875
1751015442979556600,12.300556640625,-1.11151123046875,-0.2560577392578125,0.0115966796875
1751015442989499600,12.310499755859375,-1.118438720703125,-0.25445556640625,0.011199951171875
1751015442999443500,12.320443359375,-1.1226959228515625,-0.247589111328125,0.0086822509765625
1751015443009386500,12.330386474609375,-1.129974365234375,-0.243927001953125,0.0058135986328125
1751015443019329500,12.34032958984375,-1.1415252685546875,-0.2464141845703125,0.0061492919921875
1751015443029272600,12.3502724609375,-1.1622467041015625,-0.2540283203125,0.005950927734375
1751015443039215600,12.360215576171875,-1.172119140625,-0.26251220703125,0.004913330078125
1751015443049158700,12.37015869140625,-1.17132568359375,-0.2701873779296875,0.010040283203125
1751015443059102500,12.3801025390625,-1.1873626708984375,-0.2806549072265625,0.029052734375
1751015443069045500,12.39004541015625,-1.21295166015625,-0.292388916015625,0.0533599853515625
1751015443078988500,12.399988525390626,-1.22003173828125,-0.2900543212890625,0.0628204345703125
1751015443088931600,12.409931640625,-1.2009735107421875,-0.265167236328125,0.0572509765625
1751015443098874600,12.41987451171875,-1.17694091796875,-0.22845458984375,0.0396728515625
1751015443108817700,12.429817626953126,-1.168182373046875,-0.1770172119140625,0.010528564453125
1751015443118760700,12.4397607421875,-1.167388916015625,-0.1266632080078125,-0.0286865234375
1751015443128704500,12.44970458984375,-1.15118408203125,-0.08782958984375,-0.0685882568359375
1751015443138647600,12.4596474609375,-1.1070556640625,-0.06182861328125,-0.089447021484375
1751015443148590600,12.469590576171875,-1.048065185546875,-0.053497314453125,-0.1089935302734375
1751015443158533600,12.47953369140625,-0.9923248291015625,-0.056488037109375,-0.13018798828125
1751015443168476700,12.4894765625,-0.9550323486328125,-0.0678558349609375,-0.1436004638671875
1751015443178419700,12.499419677734375,-0.93475341796875,-0.078399658203125,-0.1375732421875
1751015443188363500,12.509363525390626,-0.9297637939453125,-0.0830841064453125,-0.107421875
1751015443198306600,12.519306640625,-0.9313201904296875,-0.0977630615234375,-0.063995361328125
1751015443208249600,12.52924951171875,-0.9344329833984375,-0.12841796875,-0.0356292724609375
1751015443218192600,12.539192626953126,-0.9377288818359375,-0.1666259765625,-0.0228424072265625
1751015443228135700,12.5491357421875,-0.940887451171875,-0.19952392578125,-0.00726318359375
1751015443238078700,12.55907861328125,-0.938873291015625,-0.2199859619140625,0.0061187744140625
1751015443248022500,12.5690224609375,-0.928070068359375,-0.2200469970703125,0.0135650634765625
1751015443257965600,12.578965576171875,-0.9149932861328125,-0.2087860107421875,0.0118255615234375
1751015443267908600,12.58890869140625,-0.900421142578125,-0.2055816650390625,-0.002410888671875
1751015443277851600,12.5988515625,-0.8972015380859375,-0.208587646484375,-0.018890380859375
1751015443287794700,12.608794677734375,-0.906982421875,-0.2134552001953125,-0.037078857421875
1751015443297737500,12.618737548828125,-0.9081268310546875,-0.2174072265625,-0.0525970458984375
1751015443307681500,12.628681640625,-0.888275146484375,-0.21990966796875,-0.0608978271484375
1751015443317624600,12.63862451171875,-0.8747100830078125,-0.226104736328125,-0.0616455078125
1751015443327566800,12.64856689453125,-0.877838134765625,-0.237640380859375,-0.0612335205078125
1751015443337510000,12.658510009765624,-0.87176513671875,-0.25335693359375,-0.058349609375
1751015443347453000,12.668452880859375,-0.8568267822265625,-0.2686920166015625,-0.05596923828125
1751015443357396000,12.67839599609375,-0.8515625,-0.2794952392578125,-0.053680419921875
1751015443367339800,12.68833984375,-0.8675994873046875,-0.2847442626953125,-0.0496063232421875
1751015443377282800,12.69828271484375,-0.8954010009765625,-0.2946319580078125,-0.0421142578125
1751015443387225900,12.708225830078124,-0.920013427734375,-0.2984771728515625,-0.0305633544921875
1751015443397169000,12.7181689453125,-0.92926025390625,-0.29583740234375,-0.0244293212890625
1751015443407112000,12.72811181640625,-0.932891845703125,-0.290924072265625,-0.021209716796875
1751015443417055000,12.738054931640624,-0.935394287109375,-0.290374755859375,-0.0200958251953125
1751015443426998800,12.747998779296875,-0.9417877197265625,-0.2928619384765625,-0.0214080810546875
1751015443436941800,12.75794189453125,-0.954345703125,-0.2933502197265625,-0.0190277099609375
1751015443446884900,12.767884765625,-0.9765625,-0.29620361328125,-0.009307861328125
1751015443456828000,12.777827880859375,-1.0086212158203125,-0.30810546875,-0.0035247802734375
1751015443466771000,12.78777099609375,-1.039398193359375,-0.31243896484375,0.0003204345703125
1751015443476714000,12.7977138671875,-1.0802154541015625,-0.3089599609375,0.0118255615234375
1751015443486657800,12.80765771484375,-1.1322479248046875,-0.310394287109375,0.022796630859375
1751015443496600800,12.817600830078124,-1.1843109130859375,-0.3154144287109375,0.0364227294921875
1751015443506543900,12.8275439453125,-1.221160888671875,-0.31170654296875,0.040863037109375
1751015443516487000,12.83748681640625,-1.259918212890625,-0.3016815185546875,0.0401611328125
1751015443526430000,12.847429931640624,-1.304168701171875,-0.2974700927734375,0.0391998291015625
1751015443536373000,12.857373046875,-1.3665924072265625,-0.2840576171875,0.04815673828125
1751015443546316800,12.86731689453125,-1.4351043701171875,-0.247955322265625,0.0660858154296875
1751015443556259800,12.877259765625,-1.47442626953125,-0.2098236083984375,0.065032958984375
1751015443566203000,12.887202880859375,-1.4822845458984375,-0.165008544921875,0.0459442138671875
1751015443576146000,12.89714599609375,-1.475372314453125,-0.1269989013671875,0.0130157470703125
1751015443586089000,12.9070888671875,-1.4584808349609375,-0.1207275390625,-0.0106964111328125
1751015443596032000,12.917031982421875,-1.4523162841796875,-0.13201904296875,-0.0055084228515625
1751015443605975800,12.926975830078124,-1.479339599609375,-0.127410888671875,-0.004364013671875
1751015443615918800,12.9369189453125,-1.469390869140625,-0.1262359619140625,-0.0073394775390625
1751015443625862000,12.94686181640625,-1.4354705810546875,-0.103912353515625,0.007965087890625
1751015443635805000,12.956804931640624,-1.394805908203125,-0.0551910400390625,0.00335693359375
1751015443645748000,12.966748046875,-1.3431396484375,0.0066070556640625,-0.0424041748046875
1751015443655691000,12.97669091796875,-1.28912353515625,0.0523529052734375,-0.0941162109375
1751015443665634800,12.986634765625,-1.2349395751953125,0.06243896484375,-0.1155548095703125
1751015443675577900,12.996577880859375,-1.2091217041015625,0.03399658203125,-0.120758056640625
1751015443685521000,13.00652099609375,-1.1315155029296875,-0.0013885498046875,-0.11492919921875
1751015443695464000,13.0164638671875,-0.98651123046875,-0.03900146484375,-0.095123291015625
1751015443705407000,13.026406982421875,-0.848876953125,-0.07720947265625,-0.0928192138671875
1751015443715350000,13.03635009765625,-0.7257232666015625,-0.1230010986328125,-0.10784912109375
1751015443725293800,13.0462939453125,-0.63128662109375,-0.170684814453125,-0.116302490234375
1751015443735236900,13.05623681640625,-0.57733154296875,-0.1157684326171875,-0.1036224365234375
1751015443745180000,13.066179931640624,-0.55987548828125,-0.0604248046875,-0.133270263671875
1751015443755123000,13.076123046875,-0.542724609375,-0.0880126953125,-0.17041015625
