time,seconds_elapsed,z,y,x
1751013907645476400,0.114476318359375,-1.0050506591796875,-0.1287994384765625,-0.03076171875
1751013907655419400,0.12441943359375,-1.0055999755859375,-0.1333770751953125,-0.0247344970703125
1751013907665363200,0.13436328125,-1.0023193359375,-0.1415252685546875,-0.01824951171875
1751013907675306200,0.14430615234375,-0.996978759765625,-0.1463775634765625,-0.01373291015625
1751013907685250300,0.154250244140625,-0.998046875,-0.1479034423828125,-0.0095062255859375
1751013907695193300,0.164193359375,-1.00189208984375,-0.15338134765625,-0.0104217529296875
1751013907705137400,0.174137451171875,-1.009796142578125,-0.1524505615234375,-0.0104522705078125
1751013907715080400,0.18408056640625,-1.0131072998046875,-0.1499786376953125,-0.0052642822265625
1751013907725024500,0.1940244140625,-1.007110595703125,-0.148406982421875,-0.0007781982421875
1751013907734967600,0.203967529296875,-1.001708984375,-0.14300537109375,0.0013427734375
1751013907744911400,0.213911376953125,-1.0082244873046875,-0.1337127685546875,0.0009613037109375
1751013907754854400,0.2238544921875,-1.01556396484375,-0.1292266845703125,-0.0001068115234375
1751013907764798500,0.233798583984375,-1.016998291015625,-0.127838134765625,-0.000213623046875
1751013907774741500,0.243741455078125,-1.017913818359375,-0.1279144287109375,-0.00164794921875
1751013907784685300,0.253685302734375,-1.0162811279296875,-0.1263885498046875,-0.00640869140625
1751013907794628400,0.26362841796875,-1.0117034912109375,-0.1219940185546875,-0.008575439453125
1751013907804572700,0.27357275390625,-1.0089874267578125,-0.1217041015625,-0.00592041015625
1751013907814515700,0.283515625,-1.011474609375,-0.1280059814453125,-0.0016937255859375
1751013907824459500,0.29345947265625,-1.02398681640625,-0.1330413818359375,0.0064849853515625
1751013907834402600,0.303402587890625,-1.0323028564453125,-0.134368896484375,0.0126800537109375
1751013907844346600,0.3133466796875,-1.0261383056640625,-0.1302642822265625,0.0165557861328125
1751013907854289400,0.323289306640625,-1.01409912109375,-0.1247406005859375,0.0188446044921875
1751013907864233500,0.3332333984375,-1.0109710693359375,-0.1189422607421875,0.01702880859375
1751013907874176500,0.343176513671875,-1.009185791015625,-0.11505126953125,0.0041656494140625
1751013907884120600,0.35312060546875,-1.00531005859375,-0.1120758056640625,-0.0047454833984375
1751013907894063400,0.3630634765625,-1.0013580322265625,-0.1162261962890625,-0.00909423828125
1751013907904007400,0.37300732421875,-1.0003509521484375,-0.124176025390625,-0.006134033203125
1751013907913950500,0.382950439453125,-1.0012969970703125,-0.13104248046875,-0.007354736328125
1751013907923894500,0.39289453125,-0.9989166259765625,-0.13592529296875,-0.0113983154296875
1751013907933837300,0.40283740234375,-0.9938507080078125,-0.141082763671875,-0.0138397216796875
1751013907943781600,0.41278173828125,-0.9916229248046875,-0.1476287841796875,-0.01531982421875
1751013907953724700,0.422724609375,-0.9944305419921875,-0.1505126953125,-0.0103607177734375
1751013907963668500,0.43266845703125,-0.9932403564453125,-0.150909423828125,-0.00445556640625
1751013907973611500,0.442611572265625,-0.9921112060546875,-0.1524200439453125,0.0068206787109375
1751013907983555600,0.4525556640625,-0.995574951171875,-0.1575164794921875,0.0092315673828125
1751013907993498600,0.46249853515625,-0.998443603515625,-0.1565093994140625,-0.005950927734375
1751013908003442400,0.4724423828125,-0.9930572509765625,-0.1458587646484375,-0.011962890625
1751013908013385500,0.482385498046875,-0.9879913330078125,-0.144561767578125,-0.00634765625
1751013908023329500,0.49232958984375,-0.986572265625,-0.1515960693359375,0.0095672607421875
1751013908033272600,0.5022724609375,-0.99017333984375,-0.1620941162109375,0.0242156982421875
1751013908043216400,0.51221630859375,-0.9929351806640625,-0.1702728271484375,0.0274810791015625
1751013908053159400,0.522159423828125,-0.9879608154296875,-0.177337646484375,0.027557373046875
1751013908063103500,0.532103515625,-0.9857177734375,-0.182647705078125,0.0360565185546875
1751013908073046500,0.542046630859375,-0.987762451171875,-0.183013916015625,0.0420074462890625
1751013908082990300,0.551990234375,-0.9863128662109375,-0.172760009765625,0.046661376953125
1751013908092933400,0.561933349609375,-0.980804443359375,-0.1569671630859375,0.046112060546875
1751013908102877700,0.571877685546875,-0.9775238037109375,-0.1421661376953125,0.04193115234375
1751013908112820700,0.58182080078125,-0.9770050048828125,-0.1339263916015625,0.0404052734375
1751013908122764500,0.5917646484375,-0.980224609375,-0.131103515625,0.03643798828125
1751013908132707600,0.60170751953125,-0.9844970703125,-0.13189697265625,0.0317535400390625
1751013908142651600,0.611651611328125,-0.990509033203125,-0.1314544677734375,0.027099609375
1751013908152594700,0.6215947265625,-0.9966888427734375,-0.13348388671875,0.0189056396484375
1751013908162538500,0.63153857421875,-1.0045318603515625,-0.1369171142578125,0.0162200927734375
1751013908172481500,0.6414814453125,-1.0190277099609375,-0.1422576904296875,0.0136871337890625
1751013908182425600,0.651425537109375,-1.022552490234375,-0.1504364013671875,0.00946044921875
1751013908192368400,0.661368408203125,-1.016448974609375,-0.1536102294921875,0.00933837890625
1751013908202312400,0.6713125,-1.02032470703125,-0.1505126953125,0.0062408447265625
1751013908212255500,0.68125537109375,-1.025390625,-0.1470794677734375,0.006591796875
1751013908222199600,0.691199462890625,-1.0267181396484375,-0.1445465087890625,0.012603759765625
1751013908232142300,0.701142333984375,-1.0257110595703125,-0.1382904052734375,0.0202484130859375
1751013908242086400,0.71108642578125,-1.0321044921875,-0.1297149658203125,0.0222930908203125
1751013908252029400,0.721029541015625,-1.0386962890625,-0.120880126953125,0.0210418701171875
1751013908261973500,0.730973388671875,-1.0409393310546875,-0.1147613525390625,0.018463134765625
1751013908271916500,0.74091650390625,-1.0409393310546875,-0.113525390625,0.0157623291015625
1751013908281860600,0.750860595703125,-1.038055419921875,-0.113189697265625,0.0130615234375
1751013908291803600,0.7608037109375,-1.0398406982421875,-0.1133880615234375,0.011077880859375
1751013908301747500,0.77074755859375,-1.0392913818359375,-0.11614990234375,0.0117645263671875
1751013908311690500,0.7806904296875,-1.036590576171875,-0.1200103759765625,0.01336669921875
1751013908321634600,0.790634521484375,-1.0308380126953125,-0.122955322265625,0.0146026611328125
1751013908331577600,0.80057763671875,-1.0243988037109375,-0.1239776611328125,0.017425537109375
1751013908341521400,0.810521484375,-1.016845703125,-0.125213623046875,0.0173492431640625
1751013908351464400,0.82046435546875,-1.0124359130859375,-0.1259918212890625,0.0197601318359375
1751013908361408500,0.830408447265625,-1.0055999755859375,-0.12860107421875,0.0186920166015625
1751013908371351600,0.8403515625,-0.99969482421875,-0.1312408447265625,0.0172576904296875
1751013908381295400,0.85029541015625,-0.9964752197265625,-0.133758544921875,0.016571044921875
1751013908391238400,0.86023828125,-0.995208740234375,-0.136322021484375,0.0159454345703125
1751013908401182500,0.870182373046875,-0.993927001953125,-0.13726806640625,0.0183258056640625
1751013908411125500,0.88012548828125,-0.9910888671875,-0.1383514404296875,0.02020263671875
1751013908421069600,0.890069580078125,-0.9900970458984375,-0.1392822265625,0.024688720703125
1751013908431012600,0.9000126953125,-0.9894256591796875,-0.1395721435546875,0.0258331298828125
1751013908440956700,0.909956787109375,-0.9883575439453125,-0.1404571533203125,0.0228424072265625
1751013908450899700,0.919899658203125,-0.9897003173828125,-0.139892578125,0.01776123046875
1751013908460843500,0.929843505859375,-0.9947509765625,-0.137542724609375,0.0146484375
1751013908470786600,0.93978662109375,-1.000518798828125,-0.1371002197265625,0.0160369873046875
1751013908480730600,0.949730712890625,-0.998687744140625,-0.141754150390625,0.01702880859375
1751013908490673700,0.959673583984375,-0.999114990234375,-0.1470184326171875,0.014556884765625
1751013908500617500,0.969617431640625,-1.003143310546875,-0.14703369140625,0.0148468017578125
1751013908510560500,0.979560546875,-1.011993408203125,-0.1466522216796875,0.01861572265625
1751013908520504600,0.989504638671875,-1.019195556640625,-0.1470489501953125,0.0172882080078125
1751013908530447400,0.999447265625,-1.0188140869140625,-0.1467742919921875,0.01470947265625
1751013908540391400,1.009391357421875,-1.013641357421875,-0.145782470703125,0.0133819580078125
1751013908550334500,1.01933447265625,-1.007781982421875,-0.143280029296875,0.0154571533203125
1751013908560278500,1.029278564453125,-1.0021820068359375,-0.140167236328125,0.0171966552734375
1751013908570221300,1.03922119140625,-1.000213623046875,-0.13720703125,0.018310546875
1751013908580165600,1.04916552734375,-1.0006103515625,-0.1339111328125,0.0223388671875
1751013908590108700,1.059108642578125,-0.9997711181640625,-0.1337432861328125,0.0251312255859375
1751013908600052500,1.069052490234375,-1.0050811767578125,-0.1355438232421875,0.026458740234375
1751013908609995500,1.07899560546875,-1.006622314453125,-0.1378173828125,0.026763916015625
1751013908619939600,1.088939697265625,-1.0065765380859375,-0.1390228271484375,0.031158447265625
1751013908629882600,1.098882568359375,-1.006072998046875,-0.1410675048828125,0.0334930419921875
1751013908639826400,1.108826416015625,-1.0073699951171875,-0.1461029052734375,0.03314208984375
1751013908649769500,1.11876953125,-1.0108489990234375,-0.14715576171875,0.033599853515625
1751013908659713500,1.128713623046875,-1.0142059326171875,-0.1436004638671875,0.031494140625
1751013908669656600,1.138656494140625,-1.018341064453125,-0.14190673828125,0.0288238525390625
1751013908679600400,1.148600341796875,-1.01678466796875,-0.142822265625,0.026611328125
1751013908689544400,1.15854443359375,-1.010345458984375,-0.145477294921875,0.0249176025390625
1751013908699487500,1.168487548828125,-1.0035400390625,-0.1460723876953125,0.0251617431640625
1751013908709431300,1.178431396484375,-0.999786376953125,-0.1458587646484375,0.027862548828125
1751013908719374300,1.188374267578125,-0.99920654296875,-0.14617919921875,0.0283355712890625
1751013908729318700,1.198318603515625,-1.0009613037109375,-0.146331787109375,0.02520751953125
1751013908739261700,1.20826171875,-1.004119873046875,-0.14752197265625,0.021514892578125
1751013908749205500,1.21820556640625,-1.0070037841796875,-0.147857666015625,0.0216064453125
1751013908759148500,1.2281484375,-1.0046844482421875,-0.14801025390625,0.0216827392578125
1751013908769092600,1.238092529296875,-1.0030975341796875,-0.1473236083984375,0.0226898193359375
1751013908779035600,1.24803564453125,-1.0005950927734375,-0.1464080810546875,0.025360107421875
1751013908788979500,1.2579794921875,-0.9958038330078125,-0.1452484130859375,0.023712158203125
1751013908798922500,1.267922607421875,-0.9935760498046875,-0.1434173583984375,0.0223541259765625
1751013908808866600,1.277866455078125,-0.996185302734375,-0.14361572265625,0.020599365234375
1751013908818809600,1.2878095703125,-0.99627685546875,-0.1450347900390625,0.0184173583984375
1751013908828753400,1.29775341796875,-0.99884033203125,-0.14447021484375,0.018096923828125
1751013908838696400,1.307696533203125,-1.0030364990234375,-0.143035888671875,0.018707275390625
1751013908848640500,1.317640625,-1.0057220458984375,-0.142364501953125,0.020111083984375
1751013908858583600,1.32758349609375,-1.0037384033203125,-0.14251708984375,0.0194091796875
1751013908868527400,1.33752734375,-0.9978790283203125,-0.1453094482421875,0.0177459716796875
1751013908878470400,1.347470458984375,-0.994659423828125,-0.1451263427734375,0.0198516845703125
1751013908888414700,1.357414794921875,-0.998321533203125,-0.14581298828125,0.0193939208984375
1751013908898357500,1.367357421875,-0.9998321533203125,-0.1485137939453125,0.0187530517578125
1751013908908301600,1.377301513671875,-0.9973297119140625,-0.1497039794921875,0.0213165283203125
1751013908918244600,1.38724462890625,-0.9979705810546875,-0.1472015380859375,0.02294921875
1751013908928188700,1.397188720703125,-0.9988861083984375,-0.141571044921875,0.0280303955078125
1751013908938131500,1.40713134765625,-0.9979400634765625,-0.141082763671875,0.0295867919921875
1751013908948075500,1.417075439453125,-0.9941253662109375,-0.1424102783203125,0.0288543701171875
1751013908958018600,1.4270185546875,-0.991302490234375,-0.142669677734375,0.030242919921875
1751013908967962600,1.436962646484375,-0.9962921142578125,-0.1429595947265625,0.0311126708984375
1751013908977905400,1.446905517578125,-1.00341796875,-0.14556884765625,0.030181884765625
1751013908987849500,1.456849365234375,-1.0058746337890625,-0.147216796875,0.028778076171875
1751013908997792500,1.46679248046875,-1.0084686279296875,-0.1455230712890625,0.0272369384765625
1751013909007736300,1.476736328125,-1.01409912109375,-0.1441192626953125,0.0283203125
1751013909017679400,1.486679443359375,-1.013214111328125,-0.1444854736328125,0.031005859375
1751013909027623400,1.49662353515625,-1.0102386474609375,-0.1423187255859375,0.03564453125
1751013909037566500,1.50656640625,-1.0091552734375,-0.1405181884765625,0.0375213623046875
1751013909047510500,1.516510498046875,-1.003265380859375,-0.139617919921875,0.036773681640625
1751013909057453600,1.52645361328125,-1.00396728515625,-0.137725830078125,0.037353515625
1751013909067397600,1.536397705078125,-1.0082855224609375,-0.13726806640625,0.0380096435546875
1751013909077340700,1.546340576171875,-1.0126800537109375,-0.13739013671875,0.036224365234375
1751013909087284500,1.556284423828125,-1.013824462890625,-0.137359619140625,0.03497314453125
1751013909097227500,1.5662275390625,-1.0146942138671875,-0.138275146484375,0.03472900390625
1751013909107171600,1.576171630859375,-1.01556396484375,-0.1394195556640625,0.0306854248046875
1751013909117114600,1.586114501953125,-1.0142822265625,-0.1399078369140625,0.0309295654296875
1751013909127058400,1.596058349609375,-1.0107574462890625,-0.14031982421875,0.0333709716796875
1751013909137001500,1.60600146484375,-1.008941650390625,-0.1400909423828125,0.034637451171875
1751013909146945500,1.615945556640625,-1.005950927734375,-0.1367340087890625,0.036224365234375
1751013909156888600,1.625888671875,-1.0014801025390625,-0.1337738037109375,0.035614013671875
1751013909166832400,1.635832275390625,-1.00140380859375,-0.1305694580078125,0.03759765625
1751013909176776400,1.6457763671875,-1.0030975341796875,-0.129486083984375,0.0362396240234375
1751013909186719500,1.655719482421875,-1.0087890625,-0.1301422119140625,0.0350341796875
1751013909196663600,1.66566357421875,-1.012420654296875,-0.12652587890625,0.035858154296875
1751013909206606600,1.675606689453125,-1.016937255859375,-0.125213623046875,0.0380401611328125
1751013909216550700,1.685550537109375,-1.02227783203125,-0.1273651123046875,0.0360107421875
1751013909226493700,1.69549365234375,-1.0262908935546875,-0.12432861328125,0.0311431884765625
1751013909236437500,1.7054375,-1.0297698974609375,-0.1223602294921875,0.02679443359375
1751013909246380500,1.715380615234375,-1.029998779296875,-0.120574951171875,0.025115966796875
1751013909256324600,1.72532470703125,-1.0215606689453125,-0.120208740234375,0.022796630859375
1751013909266267600,1.735267578125,-1.007720947265625,-0.1225128173828125,0.016754150390625
1751013909276211500,1.74521142578125,-0.99725341796875,-0.1272735595703125,0.0118560791015625
1751013909286154500,1.755154541015625,-0.9952239990234375,-0.1323089599609375,0.0130157470703125
1751013909296098600,1.7650986328125,-0.99609375,-0.1339111328125,0.01922607421875
1751013909306041600,1.77504150390625,-0.996795654296875,-0.135009765625,0.0271148681640625
1751013909315985400,1.7849853515625,-0.9962921142578125,-0.135833740234375,0.0375518798828125
1751013909325928400,1.794928466796875,-0.99188232421875,-0.137420654296875,0.046875
1751013909335872500,1.80487255859375,-0.993072509765625,-0.137847900390625,0.0501708984375
1751013909345815300,1.814815185546875,-1.00274658203125,-0.135345458984375,0.048858642578125
1751013909355759600,1.824759521484375,-1.00579833984375,-0.136138916015625,0.045440673828125
1751013909365702700,1.83470263671875,-1.0002593994140625,-0.136474609375,0.0374298095703125
1751013909375646500,1.844646484375,-1.00836181640625,-0.13421630859375,0.0308685302734375
1751013909385589500,1.854589599609375,-1.0161590576171875,-0.130462646484375,0.02490234375
1751013909395533600,1.864533447265625,-1.013336181640625,-0.1283111572265625,0.016571044921875
1751013909405476600,1.8744765625,-1.0073699951171875,-0.129974365234375,0.0146484375
1751013909415420400,1.88442041015625,-1.0098114013671875,-0.1300048828125,0.018890380859375
1751013909425363500,1.894363525390625,-1.0169830322265625,-0.1285552978515625,0.036773681640625
1751013909435307500,1.9043076171875,-1.00830078125,-0.1339263916015625,0.0526885986328125
1751013909445250600,1.91425048828125,-0.988189697265625,-0.150390625,0.042694091796875
1751013909455194400,1.9241943359375,-0.982391357421875,-0.1624908447265625,0.0162200927734375
1751013909465137400,1.934137451171875,-1.001007080078125,-0.16082763671875,-0.0070953369140625
1751013909475081500,1.94408154296875,-1.0248260498046875,-0.1537017822265625,-0.016448974609375
1751013909485024500,1.9540244140625,-1.03009033203125,-0.14617919921875,-0.0171966552734375
1751013909494968300,1.96396826171875,-1.0151214599609375,-0.1370849609375,-0.0027008056640625
1751013909504912600,1.97391259765625,-0.996612548828125,-0.13226318359375,0.02197265625
1751013909514855700,1.983855712890625,-0.989227294921875,-0.1359405517578125,0.0403289794921875
1751013909524799500,1.993799560546875,-0.99102783203125,-0.13897705078125,0.0449066162109375
1751013909534742500,2.003742431640625,-0.9982147216796875,-0.1347503662109375,0.033782958984375
1751013909544686600,2.0136865234375,-1.0048980712890625,-0.130462646484375,0.0217437744140625
1751013909554629600,2.023629638671875,-1.0095367431640625,-0.128936767578125,0.0179290771484375
1751013909564573400,2.033573486328125,-1.010955810546875,-0.131103515625,0.0145263671875
1751013909574516500,2.0435166015625,-1.01165771484375,-0.1340484619140625,0.012054443359375
1751013909584460500,2.05346044921875,-1.0096588134765625,-0.137847900390625,0.0179290771484375
1751013909594403600,2.063403564453125,-1.000762939453125,-0.1404876708984375,0.023956298828125
1751013909604347400,2.073347412109375,-0.9948577880859375,-0.14276123046875,0.026275634765625
1751013909614290400,2.08329052734375,-0.996551513671875,-0.1436309814453125,0.033416748046875
1751013909624234500,2.093234375,-0.991912841796875,-0.1467437744140625,0.0348663330078125
1751013909634177500,2.103177490234375,-0.9888458251953125,-0.1478424072265625,0.0310516357421875
1751013909644121300,2.113121337890625,-0.9897308349609375,-0.1466827392578125,0.0299530029296875
1751013909654064400,2.123064453125,-0.994873046875,-0.1489105224609375,0.0265960693359375
1751013909664008700,2.1330087890625,-1.0034637451171875,-0.15313720703125,0.0247039794921875
1751013909673951700,2.14295166015625,-1.000762939453125,-0.154632568359375,0.027130126953125
1751013909683895600,2.1528955078125,-0.9921417236328125,-0.1541748046875,0.02740478515625
1751013909693838600,2.162838623046875,-0.990753173828125,-0.1513824462890625,0.026458740234375
1751013909703782700,2.17278271484375,-0.99969482421875,-0.14971923828125,0.028564453125
1751013909713725400,2.182725341796875,-1.0066986083984375,-0.1467437744140625,0.0308837890625
1751013909723669500,2.19266943359375,-1.00726318359375,-0.1416168212890625,0.0346832275390625
1751013909733612500,2.202612548828125,-1.0069427490234375,-0.1365203857421875,0.0361480712890625
1751013909743556600,2.212556640625,-1.010528564453125,-0.1313934326171875,0.0399322509765625
1751013909753499400,2.22249951171875,-1.0055389404296875,-0.1291656494140625,0.0432586669921875
1751013909763443500,2.232443359375,-0.99932861328125,-0.1320037841796875,0.0432281494140625
1751013909773386500,2.242386474609375,-1.00079345703125,-0.1343841552734375,0.0413665771484375
1751013909783330600,2.25233056640625,-0.9992523193359375,-0.139617919921875,0.0418701171875
1751013909793273300,2.2622734375,-0.9943389892578125,-0.1457366943359375,0.042816162109375
1751013909803217400,2.272217529296875,-0.9949188232421875,-0.1497650146484375,0.04266357421875
1751013909813160400,2.282160400390625,-0.9957122802734375,-0.1529388427734375,0.0388336181640625
1751013909823104300,2.292104248046875,-0.99395751953125,-0.153533935546875,0.03753662109375
1751013909833048300,2.30204833984375,-0.9957275390625,-0.1551666259765625,0.0367584228515625
1751013909842991400,2.311991455078125,-0.9933624267578125,-0.15643310546875,0.0355072021484375
1751013909852935400,2.321935302734375,-0.995758056640625,-0.155548095703125,0.0324249267578125
1751013909862878200,2.331878173828125,-0.99896240234375,-0.154937744140625,0.031280517578125
1751013909872822300,2.341822265625,-0.9949951171875,-0.1529998779296875,0.029937744140625
1751013909882765300,2.351765380859375,-0.98919677734375,-0.150421142578125,0.026763916015625
1751013909892709400,2.36170947265625,-0.9867401123046875,-0.1455078125,0.0271453857421875
1751013909902652400,2.37165234375,-0.991363525390625,-0.1406707763671875,0.0290985107421875
1751013909912596500,2.381596435546875,-0.9921722412109375,-0.140350341796875,0.02691650390625
1751013909922539500,2.39153955078125,-0.98822021484375,-0.1410980224609375,0.0263824462890625
1751013909932483300,2.4014833984375,-0.985809326171875,-0.1402740478515625,0.027252197265625
1751013909942426400,2.41142626953125,-0.9855499267578125,-0.1424713134765625,0.028228759765625
1751013909952370400,2.421370361328125,-0.9893951416015625,-0.14434814453125,0.028533935546875
1751013909962313500,2.4313134765625,-0.9947052001953125,-0.14520263671875,0.0273284912109375
1751013909972257300,2.44125732421875,-0.99822998046875,-0.14617919921875,0.022613525390625
1751013909982200300,2.451200439453125,-0.9990692138671875,-0.14752197265625,0.0189971923828125
1751013909992144400,2.461144287109375,-0.9950103759765625,-0.148895263671875,0.0169219970703125
1751013910002087400,2.47108740234375,-0.9940643310546875,-0.1474761962890625,0.01409912109375
1751013910012031200,2.48103125,-0.999298095703125,-0.14276123046875,0.0165557861328125
1751013910021974300,2.490974365234375,-1.0017547607421875,-0.137420654296875,0.02032470703125
1751013910031918300,2.50091845703125,-1.0026702880859375,-0.1348114013671875,0.025848388671875
1751013910041861400,2.510861328125,-1.0028533935546875,-0.134185791015625,0.0264739990234375
1751013910051805400,2.520805419921875,-1.0050811767578125,-0.1349639892578125,0.0260467529296875
1751013910061748500,2.53074853515625,-1.0106201171875,-0.1359405517578125,0.0242156982421875
1751013910071692500,2.540692626953125,-1.0149383544921875,-0.13873291015625,0.023101806640625
1751013910081635600,2.550635498046875,-1.0145263671875,-0.1412353515625,0.0198974609375
1751013910091579400,2.560579345703125,-1.0121307373046875,-0.1427001953125,0.018157958984375
1751013910101523500,2.5705234375,-1.01123046875,-0.14202880859375,0.0180206298828125
1751013910111466500,2.580466552734375,-1.0116424560546875,-0.140411376953125,0.01824951171875
1751013910121410300,2.590410400390625,-1.014984130859375,-0.1377716064453125,0.0208282470703125
1751013910131353300,2.600353271484375,-1.021270751953125,-0.137603759765625,0.0285491943359375
1751013910141297400,2.61029736328125,-1.031829833984375,-0.1358489990234375,0.0346221923828125
1751013910151240400,2.620240478515625,-1.0435638427734375,-0.1316375732421875,0.037017822265625
1751013910161184300,2.630184326171875,-1.0469512939453125,-0.1278839111328125,0.037689208984375
1751013910171127300,2.640127197265625,-1.0517578125,-0.12457275390625,0.039093017578125
1751013910181071400,2.6500712890625,-1.0552520751953125,-0.123046875,0.0359649658203125
1751013910191014400,2.660014404296875,-1.04998779296875,-0.12359619140625,0.0269775390625
1751013910200958500,2.66995849609375,-1.0378570556640625,-0.126922607421875,0.0147705078125
1751013910210901500,2.679901611328125,-1.0288848876953125,-0.1249542236328125,0.0126800537109375
1751013910220845600,2.689845458984375,-1.0206298828125,-0.123809814453125,0.0140228271484375
1751013910230788400,2.699788330078125,-1.00885009765625,-0.126739501953125,0.0191650390625
1751013910240732400,2.709732421875,-0.99359130859375,-0.129180908203125,0.0260467529296875
1751013910250675500,2.719675537109375,-0.9849395751953125,-0.133453369140625,0.0336151123046875
1751013910260619500,2.72961962890625,-0.9790496826171875,-0.14117431640625,0.0368804931640625
1751013910270562300,2.739562255859375,-0.9727935791015625,-0.1499481201171875,0.0348358154296875
1751013910280506400,2.74950634765625,-0.967742919921875,-0.1578369140625,0.0291595458984375
1751013910290449400,2.759449462890625,-0.9643402099609375,-0.1611480712890625,0.0255279541015625
1751013910300393200,2.769393310546875,-0.9640350341796875,-0.159332275390625,0.0199737548828125
1751013910310336300,2.779336181640625,-0.9627532958984375,-0.15350341796875,0.017425537109375
1751013910320280300,2.7892802734375,-0.9704132080078125,-0.1476593017578125,0.018157958984375
1751013910330223400,2.799223388671875,-0.979400634765625,-0.139892578125,0.01611328125
1751013910340167200,2.809167236328125,-0.983917236328125,-0.131561279296875,0.013641357421875
1751013910350110200,2.819110107421875,-0.983856201171875,-0.128173828125,0.0075531005859375
1751013910360054500,2.829054443359375,-0.986328125,-0.124542236328125,0.0032806396484375
1751013910369997600,2.83899755859375,-0.9896697998046875,-0.1223602294921875,0.0009002685546875
1751013910379941400,2.84894140625,-0.9936981201171875,-0.1275177001953125,0.0000762939453125
1751013910389885400,2.858885498046875,-0.995147705078125,-0.1359405517578125,0.0015411376953125
1751013910399828500,2.868828369140625,-0.997283935546875,-0.1398162841796875,0.0047760009765625
1751013910409772300,2.878772216796875,-1.0046539306640625,-0.1417388916015625,0.0069122314453125
1751013910419715300,2.88871533203125,-1.009735107421875,-0.145294189453125,0.0066986083984375
1751013910429659400,2.898659423828125,-1.013641357421875,-0.1471099853515625,0.008941650390625
1751013910439602400,2.9086025390625,-1.0177154541015625,-0.14202880859375,0.0154266357421875
1751013910449546200,2.918546142578125,-1.0237884521484375,-0.1351318359375,0.0222320556640625
1751013910459489300,2.9284892578125,-1.023040771484375,-0.1309814453125,0.0241546630859375
1751013910469433300,2.938433349609375,-1.0214996337890625,-0.12786865234375,0.02093505859375
1751013910479376400,2.94837646484375,-1.02093505859375,-0.1238861083984375,0.0136566162109375
1751013910489320200,2.9583203125,-1.0233154296875,-0.120941162109375,0.0130157470703125
1751013910499263200,2.96826318359375,-1.022064208984375,-0.11810302734375,0.01739501953125
1751013910509207600,2.97820751953125,-1.020599365234375,-0.1189727783203125,0.0211029052734375
1751013910519150600,2.988150634765625,-1.0168914794921875,-0.1216583251953125,0.0232391357421875
1751013910529094400,2.998094482421875,-1.011566162109375,-0.1219329833984375,0.0259246826171875
1751013910539037400,3.008037353515625,-1.010223388671875,-0.122589111328125,0.0267333984375
1751013910548981500,3.0179814453125,-1.0090789794921875,-0.1231842041015625,0.02593994140625
1751013910558924500,3.027924560546875,-1.006195068359375,-0.1221771240234375,0.0267333984375
1751013910568868400,3.037868408203125,-1.001495361328125,-0.1198883056640625,0.028167724609375
1751013910578811400,3.047811279296875,-1.0059967041015625,-0.11566162109375,0.031341552734375
1751013910588755500,3.05775537109375,-1.010467529296875,-0.114898681640625,0.02789306640625
1751013910598698500,3.067698486328125,-1.008087158203125,-0.11700439453125,0.023162841796875
1751013910608642300,3.077642333984375,-1.0048370361328125,-0.11358642578125,0.0202178955078125
1751013910618586400,3.08758642578125,-1.00799560546875,-0.110015869140625,0.019378662109375
1751013910628529400,3.097529296875,-1.00823974609375,-0.109222412109375,0.022064208984375
1751013910638473500,3.107473388671875,-1.004913330078125,-0.1131591796875,0.0216522216796875
1751013910648416300,3.117416259765625,-1.0040435791015625,-0.115386962890625,0.023193359375
1751013910658360600,3.127360595703125,-1.009063720703125,-0.1140289306640625,0.0236663818359375
1751013910668303600,3.1373037109375,-1.0181121826171875,-0.1063995361328125,0.029144287109375
1751013910678247400,3.147247314453125,-1.026519775390625,-0.099395751953125,0.03485107421875
1751013910688190500,3.1571904296875,-1.0319366455078125,-0.100616455078125,0.0344085693359375
1751013910698134500,3.167134521484375,-1.03509521484375,-0.1068572998046875,0.0285491943359375
1751013910708077300,3.177077392578125,-1.0366363525390625,-0.1175689697265625,0.0160064697265625
1751013910718021400,3.187021484375,-1.0374603271484375,-0.1276092529296875,0.0068359375
1751013910727964400,3.19696435546875,-1.0316925048828125,-0.1324462890625,0.00537109375
1751013910737908500,3.206908447265625,-1.0194549560546875,-0.1377105712890625,0.00634765625
1751013910747851300,3.216851318359375,-1.006317138671875,-0.1391143798828125,0.0092620849609375
1751013910757795300,3.22679541015625,-0.9936981201171875,-0.1372833251953125,0.0103759765625
1751013910767738400,3.23673828125,-0.98846435546875,-0.134796142578125,0.009765625
1751013910777682400,3.246682373046875,-0.9862518310546875,-0.1314849853515625,0.0081634521484375
1751013910787625200,3.256625244140625,-0.982086181640625,-0.1345062255859375,0.00323486328125
1751013910797569300,3.2665693359375,-0.979705810546875,-0.141387939453125,-0.0027313232421875
1751013910807512300,3.27651220703125,-0.9834747314453125,-0.14605712890625,-0.0059814453125
1751013910817456000,3.2864560546875,-0.98565673828125,-0.1479949951171875,-0.0075836181640625
1751013910827399200,3.296399169921875,-0.979705810546875,-0.1493377685546875,-0.0087890625
1751013910837343200,3.30634326171875,-0.973663330078125,-0.150299072265625,-0.008453369140625
1751013910847287300,3.316287353515625,-0.9722900390625,-0.1491241455078125,-0.00665283203125
1751013910857230300,3.326230224609375,-0.9795379638671875,-0.1463775634765625,-0.00421142578125
1751013910867174400,3.33617431640625,-0.986358642578125,-0.14617919921875,-0.003936767578125
1751013910877117400,3.346117431640625,-0.9887542724609375,-0.1504974365234375,-0.005859375
1751013910887061200,3.356061279296875,-0.99383544921875,-0.1531524658203125,-0.00433349609375
1751013910897004300,3.36600439453125,-1.0076904296875,-0.148406982421875,-0.0058135986328125
1751013910906948400,3.3759482421875,-1.0170745849609375,-0.13818359375,-0.0013427734375
1751013910916891400,3.385891357421875,-1.0159454345703125,-0.12957763671875,0.0037994384765625
1751013910926835200,3.395835205078125,-1.0112457275390625,-0.12060546875,-0.002044677734375
1751013910936778200,3.4057783203125,-0.9998931884765625,-0.109161376953125,-0.0077972412109375
1751013910946722300,3.415722412109375,-0.9964141845703125,-0.1014556884765625,-0.011871337890625
1751013910956665300,3.425665283203125,-1.001617431640625,-0.1019287109375,-0.010345458984375
1751013910966609200,3.435609130859375,-1.0169525146484375,-0.10662841796875,-0.0052642822265625
1751013910976552200,3.44555224609375,-1.021484375,-0.1055450439453125,0.000396728515625
1751013910986496300,3.455496337890625,-1.0124969482421875,-0.098114013671875,0.00543212890625
1751013910996439300,3.465439208984375,-1.002655029296875,-0.086456298828125,0.0031585693359375
1751013911006383400,3.47538330078125,-0.998992919921875,-0.0767364501953125,-0.003936767578125
1751013911016326400,3.485326416015625,-1.0018768310546875,-0.068939208984375,-0.0103759765625
1751013911026270500,3.4952705078125,-1.0058746337890625,-0.06292724609375,-0.013458251953125
1751013911036213500,3.505213623046875,-1.010498046875,-0.061798095703125,-0.01605224609375
1751013911046157300,3.5151572265625,-1.0179901123046875,-0.067962646484375,-0.021240234375
1751013911056100400,3.525100341796875,-1.0265655517578125,-0.07476806640625,-0.01898193359375
1751013911066044400,3.53504443359375,-1.0269622802734375,-0.0822296142578125,-0.014801025390625
1751013911075987500,3.544987548828125,-1.024932861328125,-0.086395263671875,-0.010101318359375
1751013911085931300,3.55493115234375,-1.0233917236328125,-0.0886688232421875,-0.0061187744140625
1751013911095875300,3.564875244140625,-1.024078369140625,-0.0915679931640625,-0.005584716796875
1751013911105818400,3.574818359375,-1.0199737548828125,-0.094635009765625,-0.006134033203125
1751013911115762200,3.58476220703125,-1.014617919921875,-0.09552001953125,-0.007354736328125
1751013911125705200,3.594705322265625,-1.0128936767578125,-0.095428466796875,-0.005035400390625
1751013911135649300,3.604649169921875,-1.0107421875,-0.0977783203125,-0.0044097900390625
1751013911145592300,3.61459228515625,-1.0030517578125,-0.1013031005859375,-0.0053253173828125
1751013911155536400,3.624536376953125,-0.999725341796875,-0.1001739501953125,-0.004852294921875
1751013911165479400,3.6344794921875,-1.001556396484375,-0.0967254638671875,-0.0025482177734375
1751013911175423500,3.644423583984375,-1.000762939453125,-0.09686279296875,-0.00360107421875
1751013911185366300,3.6543662109375,-0.9982452392578125,-0.0992431640625,-0.004791259765625
1751013911195310300,3.664310302734375,-1.0004425048828125,-0.100830078125,-0.00537109375
1751013911205253400,3.67425341796875,-1.004486083984375,-0.1026458740234375,-0.0043792724609375
1751013911215197400,3.684197509765625,-1.0087890625,-0.10595703125,-0.006317138671875
1751013911225140200,3.69414013671875,-1.013671875,-0.1077728271484375,-0.0127105712890625
1751013911235084300,3.704084228515625,-1.01885986328125,-0.1087799072265625,-0.0181121826171875
1751013911245027300,3.71402734375,-1.016845703125,-0.1109466552734375,-0.02166748046875
1751013911254971400,3.723971435546875,-1.0183563232421875,-0.111053466796875,-0.0184326171875
1751013911264914200,3.7339140625,-1.0219268798828125,-0.107513427734375,-0.009613037109375
1751013911274858200,3.743858154296875,-1.0240936279296875,-0.10516357421875,-0.0069427490234375
1751013911284801300,3.75380126953125,-1.016204833984375,-0.1011962890625,-0.0071563720703125
1751013911294745000,3.7637451171875,-1.0152130126953125,-0.101318359375,-0.0044097900390625
1751013911304688000,3.773688232421875,-1.0356597900390625,-0.106781005859375,-0.00518798828125
1751013911314632400,3.783632568359375,-1.0433807373046875,-0.1081390380859375,-0.009552001953125
1751013911324576300,3.793576171875,-1.036834716796875,-0.103424072265625,-0.0072174072265625
1751013911334519300,3.803519287109375,-1.027191162109375,-0.097015380859375,-0.003936767578125
1751013911344463400,3.81346337890625,-1.0185394287109375,-0.0900115966796875,-0.000762939453125
1751013911354406400,3.823406494140625,-1.013153076171875,-0.0850677490234375,-0.0006256103515625
1751013911364350200,3.83335009765625,-1.027740478515625,-0.074615478515625,0.0042572021484375
1751013911374293200,3.843293212890625,-1.0228271484375,-0.081451416015625,-0.00531005859375
1751013911384237300,3.8532373046875,-1.001220703125,-0.0932769775390625,-0.01446533203125
1751013911394180400,3.863180419921875,-0.984344482421875,-0.098236083984375,-0.01544189453125
1751013911404124200,3.873124267578125,-0.9808197021484375,-0.0965576171875,0.0001068115234375
1751013911414067200,3.883067138671875,-1.003021240234375,-0.0888519287109375,0.019622802734375
1751013911424011300,3.89301123046875,-1.020538330078125,-0.089752197265625,0.0286102294921875
1751013911433954300,3.902954345703125,-1.0262603759765625,-0.0912628173828125,0.0263214111328125
1751013911443898000,3.912898193359375,-1.025604248046875,-0.0869903564453125,0.0167083740234375
1751013911453841200,3.922841064453125,-1.0226287841796875,-0.0835418701171875,0.0092010498046875
1751013911463785500,3.932785400390625,-1.0233917236328125,-0.084320068359375,0.0054473876953125
1751013911473728500,3.942728515625,-1.02032470703125,-0.0860748291015625,0.0130462646484375
1751013911483672300,3.95267236328125,-1.013916015625,-0.08905029296875,0.015869140625
1751013911493615400,3.962615478515625,-1.00885009765625,-0.0913238525390625,0.0088043212890625
1751013911503559400,3.972559326171875,-1.0034027099609375,-0.094451904296875,-0.001251220703125
1751013911513502500,3.98250244140625,-0.9966278076171875,-0.095947265625,-0.0058135986328125
1751013911523446300,3.9924462890625,-0.99432373046875,-0.087799072265625,-0.00103759765625
1751013911533389300,4.002389404296875,-0.9905548095703125,-0.0785369873046875,0.0009613037109375
1751013911543333400,4.01233349609375,-0.986175537109375,-0.071563720703125,-0.0054779052734375
1751013911553277200,4.022277099609375,-0.988616943359375,-0.0666656494140625,-0.0185394287109375
1751013911563220200,4.03222021484375,-0.9921112060546875,-0.063934326171875,-0.019866943359375
1751013911573164300,4.042164306640625,-1.0076446533203125,-0.064788818359375,-0.032135009765625
1751013911583107300,4.052107421875,-1.022705078125,-0.0637054443359375,-0.047210693359375
1751013911593051100,4.062051025390625,-1.022918701171875,-0.0558624267578125,-0.0421142578125
1751013911602994200,4.071994140625,-1.025665283203125,-0.060821533203125,-0.0362396240234375
1751013911612938500,4.0819384765625,-1.0290374755859375,-0.0693817138671875,-0.0287322998046875
1751013911622881500,4.091881591796875,-1.0190887451171875,-0.0738983154296875,-0.0186614990234375
1751013911632825300,4.101825439453125,-1.011444091796875,-0.0742034912109375,-0.0155181884765625
1751013911642768400,4.111768310546875,-1.010955810546875,-0.071014404296875,-0.01239013671875
1751013911652712400,4.12171240234375,-1.0146484375,-0.0685577392578125,-0.0049591064453125
1751013911662655200,4.1316552734375,-1.020843505859375,-0.0689544677734375,-0.0022430419921875
1751013911672599300,4.141599365234375,-1.0281829833984375,-0.06414794921875,0.000030517578125
1751013911682542300,4.151542236328125,-1.0337982177734375,-0.0567169189453125,0.000030517578125
1751013911692486400,4.161486328125,-1.0355224609375,-0.050079345703125,0.0074310302734375
1751013911702429200,4.17142919921875,-1.037445068359375,-0.0477294921875,0.0084991455078125
1751013911712373200,4.181373291015625,-1.0377197265625,-0.04833984375,0.0047607421875
1751013911722316300,4.19131640625,-1.0316314697265625,-0.0537567138671875,-0.0021820068359375
1751013911732260400,4.20126025390625,-1.023529052734375,-0.06256103515625,-0.0116424560546875
1751013911742203100,4.211203125,-1.0186004638671875,-0.0694580078125,-0.0151214599609375
1751013911752147200,4.221147216796875,-1.0168914794921875,-0.0757293701171875,-0.01116943359375
1751013911762091500,4.231091552734375,-1.01654052734375,-0.08544921875,-0.005767822265625
1751013911772034300,4.241034423828125,-1.0111083984375,-0.0883941650390625,0.0029144287109375
1751013911781978400,4.250978271484375,-1.0042877197265625,-0.08843994140625,0.0081787109375
1751013911791921400,4.26092138671875,-1.0002593994140625,-0.089385986328125,0.0108795166015625
1751013911801865700,4.27086572265625,-0.9969482421875,-0.0879669189453125,0.008148193359375
1751013911811808800,4.280808837890625,-0.9977874755859375,-0.0833892822265625,0.006744384765625
1751013911821752800,4.2907529296875,-0.997589111328125,-0.0790252685546875,0.0071868896484375
1751013911831696000,4.30069580078125,-0.993865966796875,-0.079833984375,0.00518798828125
1751013911841639700,4.3106396484375,-0.99114990234375,-0.07989501953125,0.0003204345703125
1751013911851582700,4.320582763671875,-0.9923553466796875,-0.078399658203125,-0.0026702880859375
1751013911861526800,4.33052685546875,-0.998382568359375,-0.077606201171875,-0.005035400390625
1751013911871469800,4.3404697265625,-1.0005340576171875,-0.079864501953125,-0.0090179443359375
1751013911881413600,4.35041357421875,-1.000152587890625,-0.081298828125,-0.010284423828125
1751013911891356700,4.360356689453125,-1.00030517578125,-0.08074951171875,-0.006317138671875
1751013911901301000,4.370301025390625,-1.00152587890625,-0.0824737548828125,-0.006500244140625
1751013911911244000,4.380244140625,-1.002166748046875,-0.0846405029296875,-0.0063629150390625
1751013911921187800,4.390187744140625,-0.9940338134765625,-0.0846099853515625,-0.0012054443359375
1751013911931131000,4.400130859375,-0.986480712890625,-0.0843353271484375,0.0108795166015625
1751013911941075000,4.410074951171875,-0.986328125,-0.081024169921875,0.020660400390625
1751013911951018000,4.42001806640625,-0.9888153076171875,-0.081451416015625,0.0264739990234375
1751013911960961800,4.4299619140625,-0.99609375,-0.083038330078125,0.021026611328125
1751013911970905900,4.43990576171875,-1.003509521484375,-0.080108642578125,0.0027923583984375
1751013911980849000,4.449848876953125,-0.999755859375,-0.068328857421875,-0.0057373046875
1751013911990792700,4.459792724609375,-0.9981689453125,-0.06866455078125,-0.01055908203125
1751013912000735700,4.46973583984375,-1.0045318603515625,-0.0760498046875,-0.01416015625
1751013912010679800,4.4796796875,-1.0108642578125,-0.07733154296875,-0.0111083984375
1751013912020622800,4.489622802734375,-1.01141357421875,-0.077301025390625,-0.00732421875
1751013912030566700,4.499566650390625,-1.010162353515625,-0.077789306640625,-0.0081329345703125
1751013912040509700,4.509509765625,-1.01385498046875,-0.0780487060546875,-0.0085906982421875
1751013912050454000,4.5194541015625,-1.0208740234375,-0.078399658203125,-0.00787353515625
1751013912060396800,4.529396728515625,-1.023284912109375,-0.07916259765625,-0.0091705322265625
1751013912070340900,4.5393408203125,-1.019256591796875,-0.08099365234375,-0.0066680908203125
1751013912080284000,4.549283935546875,-1.011566162109375,-0.0821075439453125,0
1751013912090228000,4.55922802734375,-1.005950927734375,-0.085052490234375,0.0070953369140625
1751013912100170800,4.569170654296875,-1.0028076171875,-0.0865631103515625,0.0131988525390625
1751013912110114800,4.57911474609375,-1.00421142578125,-0.084320068359375,0.019195556640625
1751013912120057900,4.589057861328125,-1.008819580078125,-0.0782012939453125,0.02099609375
1751013912130001700,4.599001708984375,-1.01654052734375,-0.073577880859375,0.01434326171875
1751013912139944700,4.60894482421875,-1.0241851806640625,-0.0693511962890625,0.0012969970703125
1751013912149888800,4.618888671875,-1.023681640625,-0.0662384033203125,-0.0092010498046875
1751013912159831800,4.628831787109375,-1.0204620361328125,-0.0658721923828125,-0.0123443603515625
1751013912169775600,4.638775634765625,-1.017852783203125,-0.0681304931640625,-0.0120391845703125
1751013912179718700,4.64871875,-1.010589599609375,-0.0701904296875,-0.0062713623046875
1751013912189662700,4.658662841796875,-1.0054168701171875,-0.0758514404296875,-0.0046844482421875
1751013912199605800,4.668605712890625,-1.0041046142578125,-0.082061767578125,-0.0088043212890625
1751013912209549800,4.6785498046875,-1.00537109375,-0.083984375,-0.01397705078125
1751013912219494000,4.688493896484375,-1.004302978515625,-0.0860443115234375,-0.013427734375
1751013912229437000,4.69843701171875,-1.00018310546875,-0.089080810546875,-0.009185791015625
1751013912239380700,4.708380615234375,-0.999298095703125,-0.0926971435546875,-0.0022430419921875
1751013912249323800,4.71832373046875,-1.003997802734375,-0.0947113037109375,0.0057525634765625
1751013912259267800,4.728267822265625,-1.0052642822265625,-0.097259521484375,0.0105133056640625
1751013912269211000,4.7382109375,-1.0088043212890625,-0.09625244140625,0.0079498291015625
1751013912279154700,4.74815478515625,-1.0162353515625,-0.0931243896484375,-0.0017852783203125
1751013912289097700,4.75809765625,-1.020660400390625,-0.0917510986328125,-0.011322021484375
1751013912299041800,4.768041748046875,-1.0207366943359375,-0.0923309326171875,-0.0186767578125
1751013912308984800,4.77798486328125,-1.0158538818359375,-0.092620849609375,-0.0242767333984375
1751013912318928600,4.7879287109375,-1.0139617919921875,-0.0906219482421875,-0.0254364013671875
1751013912328871700,4.79787158203125,-1.01544189453125,-0.0912322998046875,-0.0222625732421875
1751013912338816000,4.80781591796875,-1.0117950439453125,-0.0947418212890625,-0.016357421875
1751013912348758800,4.8177587890625,-1.007080078125,-0.0997161865234375,-0.0109710693359375
1751013912358702800,4.827702880859375,-1.0069122314453125,-0.101226806640625,-0.005035400390625
1751013912368646000,4.83764599609375,-1.0092315673828125,-0.1016998291015625,0.0009918212890625
1751013912378590000,4.84758984375,-1.0076446533203125,-0.097137451171875,0.007965087890625
1751013912388533000,4.857532958984375,-1.0050506591796875,-0.091949462890625,0.0127716064453125
1751013912398476800,4.867476806640625,-1.003875732421875,-0.092987060546875,0.0175628662109375
1751013912408420900,4.8774208984375,-1.008697509765625,-0.0974884033203125,0.021392822265625
1751013912418364000,4.887364013671875,-1.00823974609375,-0.1009368896484375,0.0233001708984375
1751013912428307700,4.8973076171875,-1.006805419921875,-0.096466064453125,0.0151824951171875
1751013912438250800,4.907250732421875,-1.0029449462890625,-0.0875701904296875,0.00689697265625
1751013912448194800,4.91719482421875,-1.0026397705078125,-0.0825653076171875,0.003814697265625
1751013912458137900,4.927137939453125,-1.00189208984375,-0.0833587646484375,-0.0042572021484375
1751013912468081700,4.93708154296875,-0.995819091796875,-0.0822906494140625,-0.0109100341796875
1751013912478024700,4.947024658203125,-0.9968719482421875,-0.081634521484375,-0.0173492431640625
1751013912487969000,4.956968994140625,-1.001495361328125,-0.0839385986328125,-0.02166748046875
1751013912497911800,4.966911865234375,-1.010955810546875,-0.0875244140625,-0.0200042724609375
1751013912507856000,4.97685595703125,-1.02777099609375,-0.093841552734375,-0.01251220703125
1751013912517799000,4.986798828125,-1.0391082763671875,-0.104705810546875,-0.009002685546875
1751013912527743000,4.996742919921875,-1.039825439453125,-0.11236572265625,-0.016082763671875
1751013912537685800,5.006685791015625,-1.0356292724609375,-0.1134490966796875,-0.0240325927734375
1751013912547629800,5.0166298828125,-1.03167724609375,-0.1081390380859375,-0.0238189697265625
1751013912557572900,5.02657275390625,-1.028656005859375,-0.1029510498046875,-0.0172271728515625
1751013912567517000,5.036516845703125,-1.018768310546875,-0.1008453369140625,-0.0101165771484375
1751013912577459700,5.046459716796875,-1.0102996826171875,-0.0967864990234375,-0.0048065185546875
1751013912587403800,5.05640380859375,-1.003265380859375,-0.0924072265625,-0.0029754638671875
1751013912597346800,5.066346923828125,-1.0013275146484375,-0.0875701904296875,-0.0007171630859375
1751013912607290600,5.07629052734375,-0.9991455078125,-0.087799072265625,-0.0013427734375
1751013912617234700,5.086234619140625,-0.9982757568359375,-0.092132568359375,-0.004241943359375
1751013912627177700,5.096177734375,-0.997467041015625,-0.096099853515625,-0.0047607421875
1751013912637121800,5.106121826171875,-0.9988555908203125,-0.09881591796875,-0.0045623779296875
1751013912647064800,5.11606494140625,-0.9985809326171875,-0.1042633056640625,-0.0082244873046875
1751013912657009000,5.1260087890625,-0.9954833984375,-0.1131439208984375,-0.0127105712890625
1751013912666952000,5.135951904296875,-0.9904327392578125,-0.1172332763671875,-0.01348876953125
1751013912676895700,5.145895751953125,-0.9850311279296875,-0.1105499267578125,-0.0154266357421875
1751013912686838800,5.1558388671875,-0.9765777587890625,-0.0984954833984375,-0.0168609619140625
1751013912696782800,5.165782958984375,-0.971710205078125,-0.0915069580078125,-0.01580810546875
1751013912706726000,5.175725830078125,-0.972442626953125,-0.0897979736328125,-0.01629638671875
1751013912716669700,5.185669677734375,-0.9735565185546875,-0.0880584716796875,-0.0131072998046875
1751013912726612700,5.19561279296875,-0.982757568359375,-0.0880584716796875,-0.01739501953125
1751013912736556800,5.205556884765625,-0.9974822998046875,-0.0908050537109375,-0.0293731689453125
1751013912746499800,5.215499755859375,-1.0107574462890625,-0.0975341796875,-0.035675048828125
1751013912756443600,5.225443603515625,-1.0220184326171875,-0.1073455810546875,-0.0325775146484375
1751013912766386700,5.23538671875,-1.0232391357421875,-0.1180267333984375,-0.0250396728515625
1751013912776330800,5.245330810546875,-1.020263671875,-0.12200927734375,-0.0192108154296875
1751013912786273800,5.255273681640625,-1.019500732421875,-0.122222900390625,-0.0152435302734375
1751013912796217900,5.2652177734375,-1.025421142578125,-0.124481201171875,-0.0207061767578125
1751013912806161400,5.275161376953125,-1.025054931640625,-0.128265380859375,-0.0361328125
1751013912816104400,5.2851044921875,-1.01788330078125,-0.1259002685546875,-0.0395965576171875
1751013912826048500,5.295048583984375,-1.015960693359375,-0.1217498779296875,-0.0360565185546875
1751013912835991600,5.304991455078125,-1.0141143798828125,-0.11834716796875,-0.0258331298828125
1751013912845935600,5.314935546875,-1.0176239013671875,-0.11395263671875,-0.021514892578125
1751013912855878700,5.324878662109375,-1.0213470458984375,-0.1121063232421875,-0.018646240234375
1751013912865822500,5.334822509765625,-1.022369384765625,-0.110260009765625,-0.0206756591796875
1751013912875765500,5.344765625,-1.025970458984375,-0.1096038818359375,-0.0248565673828125
1751013912885709600,5.35470947265625,-1.0254364013671875,-0.1094512939453125,-0.03057861328125
1751013912895652600,5.364652587890625,-1.0222930908203125,-0.1113433837890625,-0.035247802734375
1751013912905596400,5.374596435546875,-1.0180816650390625,-0.1142425537109375,-0.0347442626953125
1751013912915539500,5.38453955078125,-1.012542724609375,-0.11676025390625,-0.0297088623046875
1751013912925483500,5.3944833984375,-1.0076141357421875,-0.115386962890625,-0.030487060546875
1751013912935426600,5.404426513671875,-1.0013885498046875,-0.1125030517578125,-0.029052734375
1751013912945370400,5.414370361328125,-0.9984893798828125,-0.10809326171875,-0.023468017578125
1751013912955313400,5.4243134765625,-0.99920654296875,-0.104095458984375,-0.018524169921875
1751013912965257500,5.434257568359375,-1.0028533935546875,-0.0969696044921875,-0.0146026611328125
1751013912975200500,5.444200439453125,-1.005950927734375,-0.0924530029296875,-0.0165557861328125
1751013912985144600,5.45414453125,-1.005889892578125,-0.090087890625,-0.0208892822265625
1751013912995088600,5.464088623046875,-1.0034637451171875,-0.090728759765625,-0.0221405029296875
1751013913005031700,5.47403173828125,-1.0067901611328125,-0.0950927734375,-0.019775390625
1751013913014975500,5.4839755859375,-1.0096893310546875,-0.0983734130859375,-0.0142822265625
1751013913024918500,5.49391845703125,-1.0055084228515625,-0.102386474609375,-0.0139617919921875
1751013913034862600,5.503862548828125,-1.0039215087890625,-0.1051177978515625,-0.0174102783203125
1751013913044805600,5.5138056640625,-1.00799560546875,-0.107391357421875,-0.020965576171875
1751013913054749400,5.52374951171875,-1.010009765625,-0.1107025146484375,-0.018890380859375
1751013913064692500,5.5336923828125,-1.0101165771484375,-0.1126251220703125,-0.014373779296875
1751013913074636500,5.543636474609375,-1.0133056640625,-0.1109161376953125,-0.0136260986328125
1751013913084579600,5.55357958984375,-1.0158538818359375,-0.10791015625,-0.0151824951171875
1751013913094523400,5.5635234375,-1.0142059326171875,-0.1067657470703125,-0.0159454345703125
1751013913104466400,5.573466552734375,-1.011199951171875,-0.109527587890625,-0.02020263671875
1751013913114410500,5.583410400390625,-1.0100555419921875,-0.10748291015625,-0.0226898193359375
1751013913124353500,5.593353515625,-1.0096588134765625,-0.1044158935546875,-0.024169921875
1751013913134297600,5.603297607421875,-1.01007080078125,-0.1033935546875,-0.0269775390625
1751013913144240600,5.61324072265625,-1.007568359375,-0.10516357421875,-0.0244903564453125
1751013913154184700,5.623184814453125,-1.0060272216796875,-0.1077880859375,-0.0187225341796875
1751013913164128500,5.63312841796875,-1.0087127685546875,-0.1068878173828125,-0.011016845703125
1751013913174071600,5.643071533203125,-1.01776123046875,-0.1043548583984375,-0.0072784423828125
1751013913184015600,5.653015625,-1.026275634765625,-0.101104736328125,-0.0055084228515625
1751013913193958400,5.66295849609375,-1.0310211181640625,-0.0947265625,-0.00341796875
1751013913203902500,5.67290234375,-1.0266571044921875,-0.08929443359375,-0.0079193115234375
1751013913213845500,5.682845458984375,-1.0244598388671875,-0.0829925537109375,-0.0183563232421875
1751013913223789600,5.69278955078125,-1.02508544921875,-0.080841064453125,-0.02166748046875
1751013913233732400,5.702732421875,-1.026885986328125,-0.08221435546875,-0.0148468017578125
1751013913243676400,5.712676513671875,-1.0313568115234375,-0.0893707275390625,-0.0054779052734375
1751013913253619500,5.722619384765625,-1.0288543701171875,-0.0975341796875,-0.002899169921875
1751013913263563500,5.7325634765625,-1.0232696533203125,-0.1015167236328125,-0.0121917724609375
1751013913273506300,5.74250634765625,-1.0149688720703125,-0.1042938232421875,-0.0115509033203125
1751013913283450600,5.75245068359375,-1.0048675537109375,-0.1012420654296875,-0.0089874267578125
1751013913293393700,5.7623935546875,-1.002532958984375,-0.0967254638671875,-0.01104736328125
1751013913303337500,5.77233740234375,-1.00103759765625,-0.0951080322265625,-0.011871337890625
1751013913313280500,5.782280517578125,-0.995880126953125,-0.0931243896484375,-0.0082855224609375
1751013913323224600,5.792224609375,-0.995941162109375,-0.0938873291015625,-0.0071258544921875
1751013913333168400,5.80216845703125,-1.00238037109375,-0.096282958984375,-0.0143585205078125
1751013913343111400,5.812111328125,-1.0070343017578125,-0.097076416015625,-0.0181121826171875
1751013913353055500,5.822055419921875,-1.008758544921875,-0.0966644287109375,-0.01837158203125
1751013913362998500,5.83199853515625,-1.009368896484375,-0.0966644287109375,-0.0233917236328125
1751013913372942300,5.8419423828125,-1.00567626953125,-0.09735107421875,-0.028778076171875
1751013913382885400,5.851885498046875,-1.0006256103515625,-0.096954345703125,-0.028167724609375
1751013913392829400,5.861829345703125,-0.9964752197265625,-0.0975189208984375,-0.02490234375
1751013913402772500,5.8717724609375,-0.99041748046875,-0.0985565185546875,-0.0227203369140625
1751013913412716500,5.881716552734375,-0.9916839599609375,-0.100738525390625,-0.02081298828125
1751013913422659600,5.89165966796875,-0.9927520751953125,-0.1002044677734375,-0.0199432373046875
1751013913432603600,5.901603759765625,-0.992523193359375,-0.09747314453125,-0.0179901123046875
1751013913442546700,5.911546630859375,-0.9918670654296875,-0.0939483642578125,-0.0172882080078125
1751013913452490500,5.921490478515625,-0.989105224609375,-0.090118408203125,-0.015350341796875
1751013913462433500,5.93143359375,-0.9903106689453125,-0.088104248046875,-0.007965087890625
1751013913472377600,5.941377685546875,-0.9935455322265625,-0.08892822265625,-0.0048370361328125
1751013913482320600,5.951320556640625,-1.001129150390625,-0.0922698974609375,-0.0002288818359375
1751013913492264400,5.961264404296875,-1.008270263671875,-0.095855712890625,0.002410888671875
1751013913502208500,5.97120849609375,-1.019378662109375,-0.093353271484375,0.0025177001953125
1751013913512151600,5.981151611328125,-1.0253143310546875,-0.0899810791015625,-0.0057373046875
1751013913522095400,5.991095458984375,-1.0243682861328125,-0.0864410400390625,-0.0188446044921875
1751013913532038400,6.001038330078125,-1.0221099853515625,-0.081512451171875,-0.0251922607421875
1751013913541982500,6.010982421875,-1.0232086181640625,-0.07989501953125,-0.0280914306640625
1751013913551925500,6.020925537109375,-1.0222930908203125,-0.081695556640625,-0.0289764404296875
1751013913561869600,6.03086962890625,-1.01904296875,-0.0831451416015625,-0.0272216796875
1751013913571812600,6.0408125,-1.0157470703125,-0.084991455078125,-0.02142333984375
1751013913581756700,6.050756591796875,-1.0139007568359375,-0.0889434814453125,-0.0177154541015625
1751013913591699700,6.06069970703125,-1.01318359375,-0.0933837890625,-0.0175323486328125
1751013913601643500,6.0706435546875,-1.0107269287109375,-0.0963897705078125,-0.018341064453125
1751013913611586600,6.080586669921875,-1.0087127685546875,-0.0981597900390625,-0.020111083984375
1751013913621530600,6.090530517578125,-1.0116119384765625,-0.1007232666015625,-0.02264404296875
1751013913631473700,6.1004736328125,-1.014739990234375,-0.1039276123046875,-0.02606201171875
1751013913641417500,6.11041748046875,-1.0153045654296875,-0.1059112548828125,-0.0264892578125
1751013913651361500,6.120361572265625,-1.01605224609375,-0.104339599609375,-0.0246124267578125
1751013913661304600,6.1303046875,-1.0177001953125,-0.100616455078125,-0.0204620361328125
1751013913671248400,6.140248291015625,-1.0189056396484375,-0.099578857421875,-0.01947021484375
1751013913681191400,6.15019140625,-1.0152435302734375,-0.09747314453125,-0.0233917236328125
1751013913691135500,6.160135498046875,-1.0092315673828125,-0.095367431640625,-0.0248565673828125
1751013913701078500,6.17007861328125,-1.004974365234375,-0.0979461669921875,-0.026763916015625
1751013913711022600,6.180022705078125,-0.9975128173828125,-0.10858154296875,-0.0301666259765625
1751013913720965600,6.189965576171875,-0.9920654296875,-0.1285400390625,-0.030059814453125
1751013913730909700,6.19990966796875,-1.020172119140625,-0.136566162109375,-0.02325439453125
1751013913740852500,6.2098525390625,-1.0322113037109375,-0.132293701171875,-0.0168914794921875
1751013913750796500,6.219796630859375,-1.0018768310546875,-0.113037109375,-0.011322021484375
1751013913760739600,6.229739501953125,-0.9767303466796875,-0.0881805419921875,-0.0084075927734375
1751013913770683600,6.23968359375,-0.9782867431640625,-0.0732574462890625,-0.0080413818359375
1751013913780626400,6.24962646484375,-0.9898529052734375,-0.067657470703125,-0.003814697265625
1751013913790570500,6.259570556640625,-1.00164794921875,-0.0635528564453125,-0.0023193359375
1751013913800513500,6.269513427734375,-1.0124053955078125,-0.063812255859375,-0.0026092529296875
1751013913810461400,6.27946142578125,-1.026885986328125,-0.0694732666015625,-0.00384521484375
1751013913820405500,6.289405517578125,-1.03228759765625,-0.0741729736328125,-0.0067138671875
1751013913830348500,6.2993486328125,-1.0214080810546875,-0.0756988525390625,-0.007415771484375
1751013913840292400,6.309292236328125,-1.0081329345703125,-0.073577880859375,-0.001495361328125
1751013913850235400,6.3192353515625,-1.001953125,-0.0716705322265625,0.004913330078125
1751013913860179500,6.329179443359375,-0.996917724609375,-0.0714111328125,0.007568359375
1751013913870122500,6.33912255859375,-0.9918975830078125,-0.07025146484375,0.0062255859375
1751013913880066600,6.349066650390625,-0.9893646240234375,-0.0696563720703125,0.000732421875
1751013913890009300,6.35900927734375,-0.9934844970703125,-0.0712432861328125,-0.001617431640625
1751013913899953700,6.36895361328125,-0.9985504150390625,-0.0746612548828125,-0.005615234375
1751013913909896700,6.378896728515625,-1.00482177734375,-0.078887939453125,-0.0070037841796875
1751013913919840500,6.388840576171875,-1.0071868896484375,-0.0806732177734375,-0.009429931640625
1751013913929783600,6.398783447265625,-1.00750732421875,-0.0841522216796875,-0.0120849609375
1751013913939727600,6.4087275390625,-1.0077667236328125,-0.08404541015625,-0.013702392578125
1751013913949671400,6.41867138671875,-1.0114898681640625,-0.08251953125,-0.01361083984375
1751013913959614500,6.428614501953125,-1.0153045654296875,-0.0811767578125,-0.0084686279296875
1751013913969558500,6.43855859375,-1.02020263671875,-0.081817626953125,-0.0077972412109375
1751013913979501600,6.44850146484375,-1.023101806640625,-0.0847015380859375,-0.0064544677734375
1751013913989445400,6.4584453125,-1.02301025390625,-0.0847930908203125,-0.004730224609375
1751013913999388400,6.468388427734375,-1.0238189697265625,-0.0839691162109375,-0.0027313232421875
1751013914009332500,6.47833251953125,-1.02410888671875,-0.085540771484375,-0.00482177734375
1751013914019275500,6.488275634765625,-1.018280029296875,-0.088409423828125,-0.0080718994140625
1751013914029219600,6.498219482421875,-1.012237548828125,-0.0908355712890625,-0.0069580078125
1751013914039162600,6.50816259765625,-1.012847900390625,-0.0915985107421875,-0.00823974609375
1751013914049106700,6.518106689453125,-1.01336669921875,-0.0927734375,-0.0089569091796875
1751013914059049700,6.5280498046875,-1.016082763671875,-0.0944366455078125,-0.009033203125
1751013914068993500,6.53799365234375,-1.023529052734375,-0.0945587158203125,-0.007965087890625
1751013914078936600,6.5479365234375,-1.0287933349609375,-0.0966796875,-0.008453369140625
1751013914088880600,6.557880615234375,-1.0310821533203125,-0.0961456298828125,-0.0092010498046875
1751013914098824400,6.567824462890625,-1.03204345703125,-0.0936431884765625,-0.0124359130859375
1751013914108767500,6.577767578125,-1.028961181640625,-0.0891571044921875,-0.0146942138671875
1751013914118711600,6.587711669921875,-1.0259246826171875,-0.0860748291015625,-0.0137786865234375
1751013914128654600,6.597654541015625,-1.0248870849609375,-0.0868377685546875,-0.0125274658203125
1751013914138598400,6.607598388671875,-1.0220794677734375,-0.0890655517578125,-0.0107574462890625
1751013914148541400,6.61754150390625,-1.018585205078125,-0.088836669921875,-0.010284423828125
1751013914158485500,6.627485595703125,-1.0120849609375,-0.09063720703125,-0.0096893310546875
1751013914168428500,6.637428466796875,-1.0078125,-0.0937652587890625,-0.0107269287109375
1751013914178372600,6.64737255859375,-1.0046844482421875,-0.094146728515625,-0.011810302734375
1751013914188315600,6.657315673828125,-1.00469970703125,-0.0933685302734375,-0.00701904296875
1751013914198259700,6.667259765625,-1.00567626953125,-0.0963897705078125,-0.00439453125
1751013914208202500,6.677202392578125,-1.0057830810546875,-0.0983123779296875,-0.003753662109375
1751013914218146600,6.687146484375,-1.00531005859375,-0.0979461669921875,-0.0035858154296875
1751013914228089600,6.697089599609375,-1.0023956298828125,-0.098724365234375,-0.003997802734375
1751013914238033400,6.707033447265625,-1.0015106201171875,-0.10150146484375,-0.0057373046875
1751013914247977500,6.7169775390625,-1.001068115234375,-0.103240966796875,-0.0103912353515625
1751013914257920500,6.72692041015625,-0.9976806640625,-0.1049041748046875,-0.015777587890625
1751013914267864600,6.736864501953125,-0.9999237060546875,-0.1038360595703125,-0.0173187255859375
1751013914277807400,6.746807373046875,-1.00250244140625,-0.1050567626953125,-0.017059326171875
1751013914287751400,6.75675146484375,-1.0029754638671875,-0.1043701171875,-0.0159912109375
1751013914297694500,6.766694580078125,-1.0008087158203125,-0.1021575927734375,-0.0150604248046875
1751013914307638500,6.776638427734375,-1.0003662109375,-0.098236083984375,-0.0167083740234375
1751013914317581300,6.786581298828125,-0.9972076416015625,-0.096527099609375,-0.0195159912109375
1751013914327525600,6.796525634765625,-0.9939117431640625,-0.09503173828125,-0.0212554931640625
1751013914337468700,6.80646875,-0.9948272705078125,-0.0931549072265625,-0.0222320556640625
1751013914347412500,6.81641259765625,-0.9998626708984375,-0.092864990234375,-0.0232086181640625
1751013914357355500,6.82635546875,-1.0061798095703125,-0.0946197509765625,-0.025848388671875
1751013914367299600,6.836299560546875,-1.0065460205078125,-0.1000518798828125,-0.0277557373046875
1751013914377242600,6.84624267578125,-1.0081634521484375,-0.1033172607421875,-0.02972412109375
1751013914387186400,6.8561865234375,-1.012359619140625,-0.1015472412109375,-0.031494140625
1751013914397130500,6.866130615234375,-1.011993408203125,-0.1009368896484375,-0.0322418212890625
1751013914407073500,6.876073486328125,-1.0124969482421875,-0.1009521484375,-0.029876708984375
1751013914417017300,6.886017333984375,-1.0189056396484375,-0.10125732421875,-0.02569580078125
1751013914426960400,6.89596044921875,-1.0253448486328125,-0.1010284423828125,-0.0267486572265625
1751013914436904400,6.905904541015625,-1.0235595703125,-0.101287841796875,-0.0290069580078125
1751013914446847500,6.915847412109375,-1.02020263671875,-0.1009063720703125,-0.0290374755859375
1751013914456791300,6.925791259765625,-1.0203094482421875,-0.101104736328125,-0.02679443359375
1751013914466734300,6.935734375,-1.0230865478515625,-0.1030426025390625,-0.0271148681640625
1751013914476678700,6.9456787109375,-1.0264434814453125,-0.108154296875,-0.0239105224609375
1751013914486621700,6.95562158203125,-1.02923583984375,-0.1119537353515625,-0.0230560302734375
1751013914496565500,6.9655654296875,-1.0274658203125,-0.10809326171875,-0.024139404296875
1751013914506508500,6.975508544921875,-1.0183868408203125,-0.0992431640625,-0.020843505859375
1751013914516452600,6.98545263671875,-1.0095367431640625,-0.0911102294921875,-0.0186309814453125
1751013914526396400,6.995396484375,-1.00347900390625,-0.0860137939453125,-0.011871337890625
1751013914536339500,7.00533935546875,-1.0008392333984375,-0.0848388671875,-0.0053863525390625
1751013914546283500,7.015283447265625,-1.0021514892578125,-0.0885162353515625,0
1751013914556226600,7.0252265625,-1.00775146484375,-0.09588623046875,0.00299072265625
1751013914566170400,7.03517041015625,-1.0124664306640625,-0.10418701171875,-0.0000152587890625
1751013914576113400,7.045113525390625,-1.014129638671875,-0.11138916015625,-0.001953125
1751013914586057500,7.055057373046875,-1.0152435302734375,-0.11505126953125,-0.0041656494140625
1751013914596000500,7.06500048828125,-1.01910400390625,-0.1179962158203125,-0.0024566650390625
1751013914605944600,7.074944580078125,-1.022674560546875,-0.121246337890625,0.0008087158203125
1751013914615887400,7.084887451171875,-1.0225372314453125,-0.1221923828125,0.00213623046875
1751013914625831700,7.094831787109375,-1.022552490234375,-0.1195831298828125,-0.0001983642578125
1751013914635774700,7.104774658203125,-1.01910400390625,-0.11468505859375,-0.0009613037109375
1751013914645718500,7.114718505859375,-1.0130462646484375,-0.1098480224609375,-0.0000762939453125
1751013914655662600,7.12466259765625,-1.0128173828125,-0.1072998046875,-0.00213623046875
1751013914665605600,7.134605712890625,-1.010986328125,-0.1029815673828125,-0.0029296875
1751013914675549400,7.144549560546875,-1.005645751953125,-0.0996551513671875,-0.0023040771484375
1751013914685492500,7.154492431640625,-1.006195068359375,-0.0965118408203125,-0.004058837890625
1751013914695436500,7.1644365234375,-1.012420654296875,-0.09405517578125,-0.00433349609375
1751013914705379600,7.174379638671875,-1.0095977783203125,-0.0985565185546875,-0.0050811767578125
1751013914715323400,7.184323486328125,-1.0075225830078125,-0.1053924560546875,-0.006866455078125
1751013914725266400,7.194266357421875,-1.00341796875,-0.1109161376953125,-0.0067901611328125
1751013914735210500,7.20421044921875,-0.9961090087890625,-0.1169891357421875,-0.001434326171875
1751013914745153500,7.214153564453125,-0.9968719482421875,-0.1165771484375,0.005523681640625
1751013914755097600,7.22409765625,-1.000762939453125,-0.1059417724609375,0.0111846923828125
1751013914765040600,7.23404052734375,-0.99114990234375,-0.0933074951171875,0.0055389404296875
1751013914774984700,7.243984619140625,-0.979705810546875,-0.0890960693359375,-0.0109710693359375
1751013914784927500,7.253927490234375,-0.976898193359375,-0.0881805419921875,-0.0305023193359375
1751013914794871600,7.26387158203125,-0.977935791015625,-0.0940093994140625,-0.037933349609375
1751013914804811800,7.273811767578125,-0.9798736572265625,-0.111083984375,-0.038360595703125
1751013914814754800,7.2837548828125,-0.9848480224609375,-0.12335205078125,-0.0328216552734375
1751013914824698600,7.29369873046875,-0.9947052001953125,-0.129180908203125,-0.030914306640625
1751013914834641700,7.3036416015625,-0.9993133544921875,-0.12957763671875,-0.032470703125
1751013914844585700,7.313585693359375,-0.9970703125,-0.128662109375,-0.0361175537109375
1751013914854528800,7.32352880859375,-0.99725341796875,-0.123077392578125,-0.0416259765625
1751013914864472600,7.33347265625,-1.0030059814453125,-0.1192626953125,-0.0397491455078125
1751013914874415600,7.34341552734375,-1.007476806640625,-0.1150360107421875,-0.038055419921875
1751013914884359700,7.353359619140625,-1.0040435791015625,-0.112640380859375,-0.0400390625
1751013914894302700,7.363302734375,-1.0015411376953125,-0.1144866943359375,-0.042022705078125
1751013914904246500,7.37324658203125,-1.003692626953125,-0.1186370849609375,-0.0414581298828125
1751013914914189600,7.383189453125,-1.006591796875,-0.1229095458984375,-0.0386199951171875
1751013914924134000,7.3931337890625,-1.0035247802734375,-0.1252593994140625,-0.035919189453125
1751013914934077700,7.40307763671875,-1.0006561279296875,-0.123138427734375,-0.0333709716796875
1751013914944020700,7.413020751953125,-1.0009002685546875,-0.1211090087890625,-0.0305328369140625
1751013914953964800,7.42296484375,-1.00482177734375,-0.1199188232421875,-0.0267333984375
1751013914963907800,7.432907958984375,-1.0121307373046875,-0.1154632568359375,-0.0285186767578125
1751013914973851600,7.4428515625,-1.019989013671875,-0.1099395751953125,-0.0325469970703125
1751013914983794700,7.452794677734375,-1.0213775634765625,-0.10955810546875,-0.0321197509765625
1751013914993738800,7.46273876953125,-1.02203369140625,-0.110809326171875,-0.0348663330078125
1751013915003681500,7.472681640625,-1.0201568603515625,-0.11065673828125,-0.0338592529296875
1751013915013625600,7.48262548828125,-1.015655517578125,-0.111663818359375,-0.0321502685546875
1751013915023568600,7.492568603515625,-1.012725830078125,-0.114501953125,-0.0280914306640625
1751013915033512700,7.5025126953125,-1.011932373046875,-0.1188812255859375,-0.0243682861328125
1751013915043455500,7.51245556640625,-1.0163421630859375,-0.123138427734375,-0.026458740234375
1751013915053399800,7.52239990234375,-1.0242767333984375,-0.12408447265625,-0.0312652587890625
1751013915063343900,7.53234375,-1.0323638916015625,-0.1237030029296875,-0.0340423583984375
1751013915073286700,7.54228662109375,-1.032470703125,-0.124969482421875,-0.035919189453125
1751013915083230700,7.552230712890625,-1.0333099365234375,-0.12744140625,-0.0392303466796875
1751013915093173800,7.562173828125,-1.0297393798828125,-0.1266326904296875,-0.03826904296875
1751013915103117800,7.572117919921875,-1.0240478515625,-0.1230926513671875,-0.03265380859375
1751013915113060600,7.582060546875,-1.0166015625,-0.1211700439453125,-0.030975341796875
1751013915123004700,7.592004638671875,-1.0059356689453125,-0.120758056640625,-0.0294647216796875
1751013915132947700,7.60194775390625,-1.0005340576171875,-0.119049072265625,-0.0264129638671875
1751013915142891500,7.6118916015625,-0.999664306640625,-0.1172637939453125,-0.023895263671875
1751013915152834600,7.62183447265625,-1.0011444091796875,-0.116424560546875,-0.0214385986328125
1751013915162778600,7.631778564453125,-1.0031890869140625,-0.1159515380859375,-0.023895263671875
1751013915172721700,7.6417216796875,-1.008148193359375,-0.11676025390625,-0.02862548828125
1751013915182665500,7.65166552734375,-1.013519287109375,-0.117340087890625,-0.0315399169921875
1751013915192609800,7.66160986328125,-1.0154876708984375,-0.11773681640625,-0.0331573486328125
1751013915202552800,7.671552734375,-1.0130767822265625,-0.118072509765625,-0.032470703125
1751013915212496600,7.68149658203125,-1.0095977783203125,-0.113922119140625,-0.02899169921875
1751013915222439700,7.691439697265625,-1.0081329345703125,-0.108856201171875,-0.0272674560546875
1751013915232383700,7.7013837890625,-1.0081024169921875,-0.107330322265625,-0.02740478515625
1751013915242326800,7.711326904296875,-1.00750732421875,-0.109619140625,-0.0288543701171875
1751013915252270600,7.7212705078125,-1.0064697265625,-0.1112060546875,-0.0301361083984375
1751013915262213600,7.731213623046875,-1.004730224609375,-0.1118011474609375,-0.028839111328125
1751013915272157700,7.74115771484375,-0.9985504150390625,-0.1148834228515625,-0.0269775390625
1751013915282100700,7.751100830078125,-0.992431640625,-0.1161651611328125,-0.0236968994140625
1751013915292044500,7.76104443359375,-0.98614501953125,-0.1165924072265625,-0.02008056640625
1751013915301988600,7.770988525390625,-0.985443115234375,-0.116943359375,-0.0148468017578125
1751013915311931600,7.780931640625,-0.9891815185546875,-0.1180877685546875,-0.0127410888671875
1751013915321875500,7.79087548828125,-0.9827117919921875,-0.1185302734375,-0.012542724609375
1751013915331818500,7.800818603515625,-0.9803466796875,-0.118438720703125,-0.011688232421875
1751013915341762800,7.8107626953125,-0.983551025390625,-0.1157989501953125,-0.0100250244140625
1751013915351705900,7.820705810546875,-0.98785400390625,-0.116424560546875,-0.0109405517578125
1751013915361649700,7.830649658203125,-0.989654541015625,-0.1177520751953125,-0.0149993896484375
1751013915371592700,7.8405927734375,-0.9942779541015625,-0.1171112060546875,-0.0169219970703125
1751013915381536800,7.850536865234375,-1.001220703125,-0.1149139404296875,-0.0175323486328125
1751013915391479800,7.860479736328125,-1.0121307373046875,-0.11102294921875,-0.019622802734375
1751013915401423600,7.870423583984375,-1.0222015380859375,-0.1100616455078125,-0.0225830078125
1751013915411366700,7.88036669921875,-1.0322723388671875,-0.110321044921875,-0.026214599609375
1751013915421310700,7.890310791015625,-1.0435943603515625,-0.11065673828125,-0.0296783447265625
1751013915431254500,7.900254638671875,-1.0465087890625,-0.1137237548828125,-0.0312042236328125
1751013915441197600,7.910197509765625,-1.0415802001953125,-0.1131134033203125,-0.0257720947265625
1751013915451141600,7.9201416015625,-1.036773681640625,-0.1128082275390625,-0.0233612060546875
1751013915461084700,7.930084716796875,-1.0277557373046875,-0.114013671875,-0.0223236083984375
1751013915471028500,7.940028564453125,-1.0211029052734375,-0.113922119140625,-0.0194854736328125
1751013915480971500,7.949971435546875,-1.0151519775390625,-0.1147918701171875,-0.0151214599609375
1751013915490915800,7.959915771484375,-1.009613037109375,-0.1178436279296875,-0.009246826171875
1751013915500859000,7.96985888671875,-1.0055389404296875,-0.1201629638671875,-0.0053253173828125
1751013915510802700,7.979802734375,-1.0070343017578125,-0.1209869384765625,-0.0015716552734375
1751013915520745700,7.989745849609375,-1.0061187744140625,-0.12396240234375,-0.0035400390625
1751013915530689800,7.999689697265625,-1.00299072265625,-0.1264801025390625,-0.0071868896484375
1751013915540632800,8.0096328125,-1.002532958984375,-0.128021240234375,-0.008331298828125
1751013915550576600,8.01957666015625,-1.00244140625,-0.129364013671875,-0.0078125
1751013915560520700,8.029520751953125,-1.0048980712890625,-0.127105712890625,-0.0101470947265625
1751013915570463700,8.039463623046874,-1.0037994384765625,-0.1254730224609375,-0.01300048828125
1751013915580407600,8.049407470703125,-1.0012054443359375,-0.12603759765625,-0.0145111083984375
1751013915590350600,8.0593505859375,-0.999053955078125,-0.1269683837890625,-0.0140380859375
1751013915600294700,8.069294677734375,-0.9967041015625,-0.1279449462890625,-0.011627197265625
1751013915610237700,8.07923779296875,-0.9954986572265625,-0.1261749267578125,-0.00787353515625
1751013915620181800,8.089181640625,-0.994049072265625,-0.1265106201171875,-0.0078125
1751013915630124500,8.09912451171875,-0.9932708740234375,-0.1286773681640625,-0.0095977783203125
1751013915640068900,8.10906884765625,-0.99908447265625,-0.127197265625,-0.0132598876953125
1751013915650012000,8.119011962890625,-1.006927490234375,-0.1246337890625,-0.017791748046875
1751013915659955700,8.128955810546875,-1.007781982421875,-0.125335693359375,-0.021759033203125
1751013915669898800,8.138898681640624,-1.0056915283203125,-0.126617431640625,-0.0262603759765625
1751013915679842800,8.1488427734375,-1.0075531005859375,-0.1255035400390625,-0.02789306640625
1751013915689786600,8.15878662109375,-1.0078125,-0.1240692138671875,-0.02825927734375
1751013915699729700,8.168729736328125,-1.0068511962890625,-0.12384033203125,-0.0235137939453125
1751013915709673700,8.178673828125,-1.00592041015625,-0.1234588623046875,-0.022735595703125
1751013915719616800,8.18861669921875,-1.0075225830078125,-0.1212310791015625,-0.021270751953125
1751013915729560600,8.198560546875,-1.0070037841796875,-0.1175384521484375,-0.020263671875
1751013915739503600,8.208503662109376,-1.0035552978515625,-0.115478515625,-0.018798828125
1751013915749447700,8.21844775390625,-0.999969482421875,-0.116180419921875,-0.01715087890625
1751013915759390700,8.228390625,-0.997772216796875,-0.1168670654296875,-0.01239013671875
1751013915769334800,8.238334716796874,-0.9970245361328125,-0.1187896728515625,-0.010284423828125
1751013915779277800,8.24827783203125,-0.998870849609375,-0.119232177734375,-0.00958251953125
1751013915789222000,8.258221923828126,-1.00421142578125,-0.1172027587890625,-0.0121002197265625
1751013915799165700,8.268165771484375,-1.0096893310546875,-0.1177825927734375,-0.016937255859375
1751013915809108700,8.278108642578125,-1.0094451904296875,-0.11920166015625,-0.01617431640625
1751013915819052800,8.288052734375,-1.004974365234375,-0.118560791015625,-0.0132904052734375
1751013915828995600,8.29799560546875,-1.005126953125,-0.1162109375,-0.0122222900390625
1751013915838940000,8.30793994140625,-1.006866455078125,-0.1161041259765625,-0.013275146484375
1751013915848883000,8.317883056640625,-1.00347900390625,-0.11846923828125,-0.012054443359375
1751013915858826800,8.32782666015625,-1.00140380859375,-0.11907958984375,-0.007598876953125
1751013915868769800,8.337769775390624,-1.0062408447265625,-0.11553955078125,-0.0037994384765625
1751013915878713900,8.3477138671875,-1.0098419189453125,-0.11456298828125,-0.0032806396484375
1751013915888657000,8.357656982421876,-1.0108642578125,-0.112762451171875,-0.0068511962890625
1751013915898600700,8.3676005859375,-1.013427734375,-0.109771728515625,-0.009796142578125
1751013915908543700,8.377543701171875,-1.0197601318359375,-0.1053924560546875,-0.0147705078125
1751013915918487800,8.38748779296875,-1.022796630859375,-0.101043701171875,-0.0232086181640625
1751013915928431900,8.397431884765625,-1.0171966552734375,-0.1019439697265625,-0.02862548828125
1751013915938374700,8.407374755859376,-1.0110626220703125,-0.1046600341796875,-0.0314788818359375
1751013915948318700,8.417318603515625,-1.00927734375,-0.10906982421875,-0.0308837890625
1751013915958261800,8.42726171875,-1.008453369140625,-0.1151885986328125,-0.0272369384765625
1751013915968205600,8.43720556640625,-1.0074310302734375,-0.1229095458984375,-0.0247039794921875
1751013915978148600,8.447148681640625,-1.0064544677734375,-0.1325531005859375,-0.02618408203125
1751013915988093000,8.457093017578124,-1.0009307861328125,-0.140625,-0.02734375
1751013915998036000,8.467035888671875,-0.9969329833984375,-0.1454010009765625,-0.0266265869140625
1751013916007979800,8.476979736328126,-0.9951171875,-0.146636962890625,-0.024505615234375
1751013916017922800,8.4869228515625,-0.993927001953125,-0.14678955078125,-0.0212554931640625
1751013916027867000,8.496866943359375,-0.9929046630859375,-0.142791748046875,-0.019073486328125
1751013916037810700,8.506810791015624,-0.9937896728515625,-0.1360931396484375,-0.018890380859375
1751013916047753700,8.516753662109375,-0.9977569580078125,-0.1288909912109375,-0.021484375
1751013916057697800,8.52669775390625,-1.0018463134765625,-0.12286376953125,-0.0226898193359375
1751013916067640800,8.536640869140625,-1.006927490234375,-0.121826171875,-0.0238037109375
1751013916077584600,8.546584716796875,-1.009979248046875,-0.1197967529296875,-0.022552490234375
1751013916087527700,8.556527587890624,-1.011077880859375,-0.1170501708984375,-0.020416259765625
1751013916097471700,8.5664716796875,-1.01104736328125,-0.1174468994140625,-0.0211181640625
1751013916107414800,8.576414794921876,-1.0099945068359375,-0.1161956787109375,-0.021331787109375
1751013916117358800,8.58635888671875,-1.010284423828125,-0.11651611328125,-0.0218353271484375
1751013916127301600,8.596301513671875,-1.008941650390625,-0.1177215576171875,-0.0220489501953125
1751013916137246000,8.606245849609374,-1.007598876953125,-0.1182708740234375,-0.0213165283203125
1751013916147189800,8.616189697265625,-1.0075836181640625,-0.118927001953125,-0.0218048095703125
1751013916157132800,8.6261328125,-1.0080718994140625,-0.1192779541015625,-0.0218963623046875
1751013916167076900,8.636076904296875,-1.008331298828125,-0.119964599609375,-0.0252685546875
1751013916177020000,8.64602001953125,-1.0062103271484375,-0.1180267333984375,-0.028564453125
1751013916186963700,8.655963623046874,-1.0031280517578125,-0.11370849609375,-0.0281524658203125
1751013916196906800,8.66590673828125,-1.0044708251953125,-0.110260009765625,-0.0278472900390625
1751013916206850800,8.675850830078126,-1.00347900390625,-0.110015869140625,-0.0249176025390625
1751013916216793900,8.6857939453125,-1.002655029296875,-0.1086883544921875,-0.02532958984375
1751013916226737700,8.695737548828125,-1.0042266845703125,-0.1072998046875,-0.02606201171875
1751013916236680700,8.7056806640625,-1.006103515625,-0.1078948974609375,-0.0282135009765625
1751013916246624800,8.715624755859375,-1.0046234130859375,-0.1107330322265625,-0.0310821533203125
1751013916256568800,8.72556884765625,-0.9984893798828125,-0.11395263671875,-0.0331268310546875
1751013916266512000,8.735511962890625,-0.990966796875,-0.1178131103515625,-0.0323028564453125
1751013916276456000,8.7454560546875,-0.990264892578125,-0.11956787109375,-0.0296630859375
1751013916286399000,8.75539892578125,-0.9901275634765625,-0.1229095458984375,-0.0281219482421875
1751013916296342800,8.7653427734375,-0.9930267333984375,-0.1231689453125,-0.0252838134765625
1751013916306285800,8.775285888671876,-0.9965972900390625,-0.12225341796875,-0.0229949951171875
1751013916316230000,8.78522998046875,-0.9977569580078125,-0.1220703125,-0.0246429443359375
1751013916326173000,8.7951728515625,-0.9999847412109375,-0.120330810546875,-0.0239105224609375
1751013916336116700,8.80511669921875,-1.00640869140625,-0.1187896728515625,-0.02557373046875
1751013916346059800,8.815059814453125,-1.0110931396484375,-0.118408203125,-0.029205322265625
1751013916356003800,8.82500390625,-1.0126800537109375,-0.11737060546875,-0.0338287353515625
1751013916365947000,8.83494677734375,-1.0145721435546875,-0.1155548095703125,-0.0351409912109375
1751013916375890700,8.844890625,-1.021270751953125,-0.1138153076171875,-0.034881591796875
1751013916385834800,8.854834716796875,-1.025360107421875,-0.1141357421875,-0.037750244140625
1751013916395777800,8.86477783203125,-1.0245819091796875,-0.1154327392578125,-0.040069580078125
1751013916405721900,8.874721923828124,-1.0241851806640625,-0.1172332763671875,-0.04119873046875
1751013916415665000,8.884664794921875,-1.0283660888671875,-0.11767578125,-0.042236328125
1751013916425609000,8.89460888671875,-1.0312347412109375,-0.1203155517578125,-0.038543701171875
1751013916435552000,8.904552001953125,-1.0316619873046875,-0.125579833984375,-0.0390167236328125
1751013916445495800,8.914495849609375,-1.025360107421875,-0.1287994384765625,-0.0403594970703125
1751013916455438800,8.92443896484375,-1.018798828125,-0.128509521484375,-0.035858154296875
1751013916465383000,8.9343828125,-1.01708984375,-0.125244140625,-0.0336151123046875
1751013916475325700,8.94432568359375,-1.016571044921875,-0.1212921142578125,-0.0331268310546875
1751013916485269800,8.954269775390625,-1.0129241943359375,-0.11993408203125,-0.0347442626953125
1751013916495213800,8.9642138671875,-1.0114288330078125,-0.119110107421875,-0.035491943359375
1751013916505156900,8.974156982421874,-1.0107574462890625,-0.11602783203125,-0.035430908203125
1751013916515100700,8.9841005859375,-1.005859375,-0.1156463623046875,-0.03582763671875
1751013916525043700,8.994043701171876,-1.001007080078125,-0.119659423828125,-0.03387451171875
1751013916534988000,9.003988037109375,-1.00311279296875,-0.12225341796875,-0.0318603515625
1751013916544930800,9.013930908203125,-1.0019683837890625,-0.124664306640625,-0.0277099609375
1751013916554875000,9.023875,-0.9979095458984375,-0.1258392333984375,-0.025482177734375
1751013916564818000,9.03381787109375,-0.99652099609375,-0.124114990234375,-0.02520751953125
1751013916574762000,9.043761962890626,-0.99847412109375,-0.1223907470703125,-0.02734375
1751013916584704800,9.053704833984375,-0.9994659423828125,-0.121429443359375,-0.028717041015625
1751013916594648800,9.06364892578125,-0.997711181640625,-0.122802734375,-0.0298614501953125
1751013916604593000,9.073593017578125,-0.996826171875,-0.12445068359375,-0.03057861328125
1751013916614536000,9.083535888671875,-0.992279052734375,-0.126129150390625,-0.032745361328125
1751013916624479700,9.093479736328124,-0.9912109375,-0.1264190673828125,-0.030242919921875
1751013916634422800,9.1034228515625,-0.9957275390625,-0.124053955078125,-0.027252197265625
1751013916644366800,9.113366943359376,-0.99871826171875,-0.1232452392578125,-0.027130126953125
1751013916654309600,9.1233095703125,-0.9960174560546875,-0.1210174560546875,-0.02667236328125
1751013916664253700,9.133253662109375,-0.9903564453125,-0.12579345703125,-0.0328826904296875
1751013916674196700,9.14319677734375,-0.983917236328125,-0.12786865234375,-0.03485107421875
1751013916684140800,9.153140869140625,-0.9905242919921875,-0.1266326904296875,-0.0412445068359375
1751013916694083600,9.16308349609375,-0.99432373046875,-0.1255340576171875,-0.0408477783203125
1751013916704028000,9.17302783203125,-0.993438720703125,-0.1267547607421875,-0.0397186279296875
1751013916713972000,9.182971923828125,-0.995697021484375,-0.1294708251953125,-0.0419464111328125
1751013916723914800,9.192914794921874,-0.99774169921875,-0.1286773681640625,-0.0397491455078125
1751013916733858800,9.20285888671875,-1.00177001953125,-0.1281890869140625,-0.037139892578125
1751013916743801900,9.2128017578125,-1.0074615478515625,-0.1229705810546875,-0.0388641357421875
1751013916753746000,9.222745849609375,-1.0066375732421875,-0.118194580078125,-0.0396575927734375
1751013916763688700,9.232688720703125,-1.0047607421875,-0.1226959228515625,-0.0384368896484375
1751013916773632800,9.2426328125,-1.0076751708984375,-0.12445068359375,-0.0423126220703125
1751013916783575800,9.252575927734375,-1.0100250244140625,-0.1228179931640625,-0.04290771484375
1751013916793519600,9.26251953125,-1.0089569091796875,-0.1199188232421875,-0.043609619140625
1751013916803462700,9.272462646484374,-1.010101318359375,-0.1145782470703125,-0.0497589111328125
1751013916813406500,9.282406494140625,-1.0117034912109375,-0.114837646484375,-0.0516357421875
1751013916823350500,9.2923505859375,-1.014129638671875,-0.1170196533203125,-0.0487060546875
1751013916833293300,9.302293212890625,-1.0185089111328125,-0.116180419921875,-0.0461883544921875
1751013916843237400,9.3122373046875,-1.0202789306640625,-0.11212158203125,-0.0446014404296875
1751013916853180400,9.322180419921875,-1.0211029052734375,-0.1096343994140625,-0.0419921875
1751013916863124700,9.332124755859375,-1.0195465087890625,-0.112060546875,-0.0375213623046875
1751013916873067500,9.342067626953124,-1.01605224609375,-0.115966796875,-0.035308837890625
1751013916883011600,9.352011474609375,-1.0185394287109375,-0.1139678955078125,-0.0332489013671875
1751013916892954600,9.36195458984375,-1.016937255859375,-0.1123046875,-0.031768798828125
1751013916902898400,9.3718984375,-1.017486572265625,-0.112060546875,-0.031402587890625
1751013916912841500,9.381841552734375,-1.019775390625,-0.1106719970703125,-0.0281829833984375
1751013916922785500,9.39178564453125,-1.016387939453125,-0.106353759765625,-0.0261383056640625
1751013916932729600,9.4017294921875,-1.0074615478515625,-0.1019744873046875,-0.02618408203125
1751013916942672400,9.41167236328125,-1.0023040771484375,-0.0980377197265625,-0.0283355712890625
1751013916952616400,9.421616455078125,-1.001312255859375,-0.0978240966796875,-0.0287933349609375
1751013916962559500,9.4315595703125,-0.9982147216796875,-0.10076904296875,-0.031097412109375
1751013916972503300,9.44150341796875,-0.9951019287109375,-0.1060028076171875,-0.035064697265625
1751013916982446300,9.4514462890625,-0.994476318359375,-0.109588623046875,-0.0374298095703125
1751013916992390700,9.461390625,-0.997802734375,-0.1128692626953125,-0.0382232666015625
1751013917002333400,9.47133349609375,-0.9997711181640625,-0.1165618896484375,-0.0400543212890625
1751013917012277500,9.481277587890625,-0.99676513671875,-0.1233367919921875,-0.0377655029296875
1751013917022220500,9.491220458984374,-0.992950439453125,-0.130035400390625,-0.033294677734375
1751013917032164600,9.50116455078125,-0.995819091796875,-0.1363677978515625,-0.02667236328125
1751013917042108400,9.5111083984375,-1.0045623779296875,-0.1348724365234375,-0.03009033203125
1751013917052051500,9.521051513671875,-1.00946044921875,-0.1135711669921875,-0.0398712158203125
1751013917061995500,9.53099560546875,-1.011322021484375,-0.0968017578125,-0.042694091796875
1751013917071938600,9.5409384765625,-1.0080413818359375,-0.099212646484375,-0.0466156005859375
1751013917081882400,9.55088232421875,-1.007293701171875,-0.105499267578125,-0.0514068603515625
1751013917091825400,9.560825439453126,-1.00689697265625,-0.1094207763671875,-0.0558929443359375
1751013917101769500,9.57076953125,-1.0061492919921875,-0.10919189453125,-0.0558013916015625
1751013917111712500,9.58071240234375,-1.0049285888671875,-0.1083984375,-0.05364990234375
1751013917121656300,9.59065625,-1.006439208984375,-0.1100006103515625,-0.0516510009765625
1751013917131600600,9.6006005859375,-1.0067901611328125,-0.1097412109375,-0.0469207763671875
1751013917141543700,9.610543701171874,-1.0060272216796875,-0.1046905517578125,-0.04327392578125
1751013917151487500,9.620487548828125,-1.0095672607421875,-0.0983123779296875,-0.043701171875
1751013917161430500,9.630430419921876,-1.0125274658203125,-0.10101318359375,-0.0418243408203125
1751013917171374600,9.64037451171875,-1.01568603515625,-0.11065673828125,-0.0378570556640625
1751013917181317600,9.650317626953125,-1.0155181884765625,-0.1135101318359375,-0.0360260009765625
1751013917191261400,9.660261474609374,-1.012298583984375,-0.1104278564453125,-0.033416748046875
1751013917201204500,9.67020458984375,-1.007232666015625,-0.110504150390625,-0.032073974609375
1751013917211148500,9.6801484375,-1.008056640625,-0.113189697265625,-0.0330810546875
1751013917221091600,9.690091552734375,-1.00933837890625,-0.1136932373046875,-0.0310516357421875
1751013917231035400,9.700035400390625,-1.0103759765625,-0.11126708984375,-0.0240478515625
1751013917240979500,9.7099794921875,-1.009857177734375,-0.11041259765625,-0.0194244384765625
1751013917250922500,9.719922607421875,-1.0054473876953125,-0.1104888916015625,-0.017486572265625
1751013917260866300,9.7298662109375,-1.0070037841796875,-0.11181640625,-0.0193328857421875
1751013917270809300,9.739809326171875,-1.0096435546875,-0.1112213134765625,-0.021453857421875
1751013917280753700,9.749753662109375,-1.0125885009765625,-0.111297607421875,-0.022186279296875
1751013917290696700,9.75969677734375,-1.0129547119140625,-0.112762451171875,-0.0246734619140625
1751013917300640500,9.769640625,-1.011016845703125,-0.1144561767578125,-0.0238189697265625
1751013917310583600,9.77958349609375,-1.01495361328125,-0.11297607421875,-0.018218994140625
1751013917320527600,9.789527587890625,-1.0151824951171875,-0.1142578125,-0.01434326171875
1751013917330470700,9.799470703125,-1.0143280029296875,-0.1154632568359375,-0.0113372802734375
1751013917340414500,9.80941455078125,-1.015838623046875,-0.1139678955078125,-0.01177978515625
1751013917350358500,9.819358642578125,-1.0138397216796875,-0.110565185546875,-0.01324462890625
1751013917360301600,9.829301513671876,-1.0012664794921875,-0.111114501953125,-0.0146331787109375
1751013917370245400,9.839245361328125,-0.9939422607421875,-0.1131134033203125,-0.014739990234375
1751013917380188400,9.8491884765625,-0.999786376953125,-0.115509033203125,-0.0110626220703125
1751013917390132500,9.859132568359374,-1.0087890625,-0.1199951171875,-0.00897216796875
1751013917400075500,9.869075439453125,-1.0145721435546875,-0.1253662109375,-0.0107574462890625
1751013917410019600,9.87901953125,-1.0132904052734375,-0.1240234375,-0.017333984375
1751013917419962400,9.88896240234375,-1.01202392578125,-0.11846923828125,-0.026824951171875
1751013917429906700,9.89890673828125,-1.00738525390625,-0.117401123046875,-0.03363037109375
1751013917439849700,9.908849609375,-1.0060272216796875,-0.1188201904296875,-0.041748046875
1751013917449793500,9.91879345703125,-1.0044097900390625,-0.121002197265625,-0.04705810546875
1751013917459737600,9.928737548828124,-1.0062713623046875,-0.1206512451171875,-0.0514984130859375
1751013917469680600,9.9386806640625,-1.0078277587890625,-0.119720458984375,-0.0527191162109375
1751013917479624400,9.94862451171875,-1.0073699951171875,-0.1201934814453125,-0.0466766357421875
1751013917489567500,9.9585673828125,-1.00823974609375,-0.123046875,-0.040191650390625
1751013917499511600,9.968511474609375,-1.006378173828125,-0.125091552734375,-0.0420684814453125
1751013917509454600,9.97845458984375,-1.0063934326171875,-0.1234130859375,-0.0442352294921875
1751013917519398400,9.9883984375,-1.0037689208984375,-0.12109375,-0.039276123046875
1751013917529341400,9.998341552734376,-1.003082275390625,-0.120574951171875,-0.038604736328125
1751013917539285500,10.008285400390625,-1.0028839111328125,-0.119476318359375,-0.0418701171875
1751013917549229600,10.0182294921875,-0.9979095458984375,-0.117828369140625,-0.04559326171875
1751013917559172600,10.028172607421874,-0.9963531494140625,-0.115692138671875,-0.047088623046875
1751013917569116700,10.03811669921875,-0.99957275390625,-0.113800048828125,-0.04498291015625
1751013917579059700,10.048059814453126,-1.00042724609375,-0.1180877685546875,-0.0479278564453125
1751013917589003500,10.05800341796875,-0.9992828369140625,-0.124664306640625,-0.0537872314453125
1751013917598946600,10.067946533203125,-1.005218505859375,-0.1297760009765625,-0.0587921142578125
1751013917608890600,10.077890625,-1.01055908203125,-0.1331939697265625,-0.057830810546875
1751013917618833700,10.087833740234375,-1.0060882568359375,-0.1336669921875,-0.05242919921875
1751013917628777500,10.097777587890626,-0.9977874755859375,-0.1315765380859375,-0.0467376708984375
1751013917638720500,10.107720458984375,-0.9950714111328125,-0.1283721923828125,-0.0382537841796875
1751013917648664600,10.11766455078125,-0.99847412109375,-0.123138427734375,-0.0326995849609375
1751013917658608400,10.1276083984375,-0.9974517822265625,-0.1184539794921875,-0.0327911376953125
1751013917668551400,10.137551513671875,-0.999053955078125,-0.11285400390625,-0.0364227294921875
1751013917678495500,10.14749560546875,-1.003448486328125,-0.108001708984375,-0.0379486083984375
1751013917688438500,10.1574384765625,-1.0102081298828125,-0.107879638671875,-0.0361785888671875
1751013917698382600,10.167382568359375,-1.015228271484375,-0.1138916015625,-0.0305023193359375
1751013917708325600,10.17732568359375,-1.01007080078125,-0.1169281005859375,-0.0274505615234375
1751013917718269700,10.187269775390625,-1.000518798828125,-0.1186676025390625,-0.0298919677734375
1751013917728212500,10.19721240234375,-0.994964599609375,-0.1212005615234375,-0.0277252197265625
1751013917738156500,10.207156494140625,-0.992218017578125,-0.1230621337890625,-0.0196533203125
1751013917748100600,10.2171005859375,-0.994415283203125,-0.1209716796875,-0.009674072265625
1751013917758043600,10.227043701171874,-0.9918365478515625,-0.1190338134765625,-0.0052490234375
1751013917767987500,10.236987548828125,-0.9881744384765625,-0.1196136474609375,-0.00775146484375
1751013917777930500,10.246930419921876,-0.9895782470703125,-0.119232177734375,-0.0078277587890625
1751013917787874600,10.25687451171875,-0.994384765625,-0.1192779541015625,-0.0075531005859375
1751013917797817300,10.2668173828125,-0.9974365234375,-0.1222381591796875,-0.0087890625
1751013917807761700,10.27676171875,-1.0016021728515625,-0.1210479736328125,-0.008758544921875
1751013917817704700,10.28670458984375,-1.0050048828125,-0.1201171875,-0.0103607177734375
1751013917827648800,10.296648681640624,-1.0063934326171875,-0.1179656982421875,-0.01043701171875
1751013917837591800,10.306591796875,-1.0070343017578125,-0.1190032958984375,-0.0139923095703125
1751013917847535900,10.316535888671876,-1.005950927734375,-0.1209259033203125,-0.0229034423828125
1751013917857480000,10.32647998046875,-1.0053863525390625,-0.1215057373046875,-0.0257110595703125
1751013917867422700,10.336422607421875,-1.008270263671875,-0.12359619140625,-0.023101806640625
1751013917877366800,10.34636669921875,-1.009735107421875,-0.1247711181640625,-0.0174713134765625
1751013917887309800,10.356309814453125,-1.009002685546875,-0.1232147216796875,-0.013702392578125
1751013917897253600,10.366253662109376,-1.007415771484375,-0.1209259033203125,-0.0117034912109375
1751013917907196700,10.37619677734375,-1.009185791015625,-0.11846923828125,-0.008056640625
1751013917917140700,10.386140625,-1.0086212158203125,-0.1181640625,-0.010772705078125
1751013917927083800,10.396083740234374,-1.0139312744140625,-0.1164398193359375,-0.0134735107421875
1751013917937027600,10.406027587890625,-1.020538330078125,-0.1158294677734375,-0.01666259765625
1751013917946971600,10.4159716796875,-1.02349853515625,-0.118804931640625,-0.0239410400390625
1751013917956914700,10.425914794921875,-1.027618408203125,-0.121612548828125,-0.02752685546875
1751013917966858800,10.435858642578125,-1.0287322998046875,-0.122344970703125,-0.0333251953125
1751013917976801800,10.4458017578125,-1.0290985107421875,-0.122344970703125,-0.035491943359375
1751013917986745900,10.455745849609375,-1.027496337890625,-0.1239166259765625,-0.03985595703125
1751013917996689000,10.46568896484375,-1.0223388671875,-0.1244964599609375,-0.0453643798828125
1751013918006632700,10.4756328125,-1.02069091796875,-0.1222991943359375,-0.0473175048828125
1751013918016575700,10.48557568359375,-1.01776123046875,-0.1199798583984375,-0.0475311279296875
1751013918026519800,10.495519775390624,-1.0145263671875,-0.12274169921875,-0.0464935302734375
1751013918036463600,10.505463623046875,-1.0143890380859375,-0.129913330078125,-0.04522705078125
1751013918046406700,10.51540673828125,-1.0172271728515625,-0.126312255859375,-0.038604736328125
1751013918056350700,10.525350830078125,-1.0157012939453125,-0.12347412109375,-0.03143310546875
1751013918066293800,10.535293701171875,-1.006683349609375,-0.12860107421875,-0.0311126708984375
1751013918076237600,10.545237548828124,-0.99560546875,-0.131866455078125,-0.029632568359375
1751013918086180600,10.5551806640625,-0.992340087890625,-0.132415771484375,-0.02874755859375
1751013918096124700,10.565124755859374,-0.996337890625,-0.1311798095703125,-0.02862548828125
1751013918106067700,10.575067626953125,-0.999114990234375,-0.132415771484375,-0.031768798828125
1751013918116011800,10.58501171875,-0.9950408935546875,-0.1356048583984375,-0.035491943359375
1751013918125954800,10.594954833984374,-0.995025634765625,-0.1395416259765625,-0.03656005859375
1751013918135899000,10.60489892578125,-1.0032501220703125,-0.1404876708984375,-0.036468505859375
1751013918145842700,10.6148427734375,-1.007476806640625,-0.1347198486328125,-0.032470703125
1751013918155785700,10.62478564453125,-0.9975738525390625,-0.1330718994140625,-0.0311737060546875
1751013918165729800,10.634729736328126,-0.986572265625,-0.13433837890625,-0.0334320068359375
1751013918175672800,10.6446728515625,-0.9936676025390625,-0.1304779052734375,-0.0325927734375
1751013918185616600,10.65461669921875,-1.000885009765625,-0.1260528564453125,-0.0316619873046875
1751013918195559700,10.6645595703125,-1.004638671875,-0.1238250732421875,-0.030517578125
1751013918205503700,10.674503662109375,-1.00433349609375,-0.120941162109375,-0.03070068359375
1751013918215446800,10.68444677734375,-1.0017547607421875,-0.1231689453125,-0.0364990234375
1751013918225390600,10.694390625,-1.0006103515625,-0.1293182373046875,-0.04412841796875
1751013918235335000,10.7043349609375,-1.006439208984375,-0.1320037841796875,-0.0471649169921875
1751013918245278000,10.71427783203125,-1.0084381103515625,-0.13592529296875,-0.0428466796875
1751013918255221800,10.7242216796875,-1.0060577392578125,-0.1404571533203125,-0.0394287109375
1751013918265164800,10.734164794921876,-0.999176025390625,-0.1419525146484375,-0.0385894775390625
1751013918275108900,10.74410888671875,-0.9913787841796875,-0.14208984375,-0.0388641357421875
1751013918285052000,10.754052001953125,-0.9903106689453125,-0.141510009765625,-0.0349273681640625
1751013918294995700,10.76399560546875,-0.987579345703125,-0.1454010009765625,-0.03460693359375
1751013918304938800,10.773938720703125,-0.9836578369140625,-0.1456146240234375,-0.0330963134765625
1751013918314882800,10.7838828125,-0.982635498046875,-0.1425018310546875,-0.0310211181640625
1751013918324826600,10.79382666015625,-0.9831390380859375,-0.1398773193359375,-0.031463623046875
1751013918334769700,10.803769775390625,-0.9873199462890625,-0.13665771484375,-0.0319671630859375
1751013918344713700,10.813713623046874,-0.990753173828125,-0.1331939697265625,-0.0357208251953125
1751013918354656800,10.82365673828125,-0.994049072265625,-0.12945556640625,-0.040252685546875
1751013918364600600,10.8336005859375,-0.9958953857421875,-0.1262664794921875,-0.0436553955078125
1751013918374543600,10.843543701171875,-0.99725341796875,-0.1253814697265625,-0.0459747314453125
1751013918384488000,10.853488037109376,-0.9948883056640625,-0.1279754638671875,-0.0499114990234375
1751013918394431000,10.863430908203124,-0.9961395263671875,-0.1293792724609375,-0.0440216064453125
1751013918404374800,10.873374755859375,-1.002288818359375,-0.125244140625,-0.0308837890625
1751013918414317800,10.88331787109375,-0.99462890625,-0.117889404296875,-0.0259857177734375
1751013918424262000,10.893261962890625,-1.0201416015625,-0.11871337890625,-0.0367889404296875
1751013918434205700,10.903205810546876,-1.0337677001953125,-0.1247100830078125,-0.0540618896484375
1751013918444148700,10.913148681640624,-1.01788330078125,-0.1215667724609375,-0.061065673828125
1751013918454092800,10.9230927734375,-1.0127105712890625,-0.1262969970703125,-0.0533294677734375
