time,seconds_elapsed,z,y,x
1751014002369431800,0.121431884765625,-394.86663818359375,-156.62509155273438,-49.871337890625
1751014002379474700,0.131474609375,-395.1161193847656,-157.04534912109375,-50.30329895019531
1751014002389516500,0.1415166015625,-394.791015625,-156.87802124023438,-50.14558410644531
1751014002399559700,0.1515595703125,-394.5024719238281,-156.75868225097656,-50.209869384765625
1751014002409601800,0.161601806640625,-395.0604248046875,-157.2976531982422,-50.32609558105469
1751014002419643600,0.1716435546875,-394.70428466796875,-157.2361602783203,-49.9710693359375
1751014002429685500,0.181685546875,-395.2414245605469,-156.8017578125,-50.434967041015625
1751014002439727900,0.191727783203125,-395.3003845214844,-157.32740783691406,-50.6632080078125
1751014002449769700,0.201769775390625,-395.34881591796875,-157.05078125,-50.35560607910156
1751014002459811600,0.2118115234375,-395.2980041503906,-157.0183868408203,-50.31388854980469
1751014002469852700,0.221852783203125,-395.3907470703125,-157.31275939941406,-50.454254150390625
1751014002479894500,0.23189453125,-395.1968078613281,-157.35537719726562,-50.65179443359375
1751014002489936600,0.2419365234375,-395.31964111328125,-157.4383087158203,-50.44004821777344
1751014002499978800,0.251978759765625,-395.41357421875,-157.57110595703125,-50.33479309082031
1751014002510019800,0.262019775390625,-395.4853210449219,-157.4052734375,-50.970245361328125
1751014002520061700,0.272061767578125,-395.272705078125,-157.3463592529297,-50.69319152832031
1751014002530103800,0.282103759765625,-394.8076477050781,-157.307373046875,-50.54740905761719
1751014002540145700,0.292145751953125,-395.227783203125,-157.3783721923828,-50.464691162109375
1751014002550187500,0.3021875,-395.1470947265625,-157.48175048828125,-50.84333801269531
1751014002560230000,0.31222998046875,-395.3717956542969,-157.33277893066406,-50.52467346191406
1751014002570272800,0.322272705078125,-395.14349365234375,-157.7492218017578,-50.647247314453125
1751014002580315600,0.332315673828125,-395.290771484375,-157.41136169433594,-51.00984191894531
1751014002590356500,0.3423564453125,-395.494384765625,-157.52671813964844,-50.82798767089844
1751014002600398800,0.35239892578125,-395.7041015625,-158.0751495361328,-50.71458435058594
1751014002610439700,0.362439697265625,-395.73602294921875,-157.95602416992188,-51.08781433105469
1751014002620480800,0.372480712890625,-395.09619140625,-158.08985900878906,-50.89862060546875
1751014002630523600,0.382523681640625,-395.58319091796875,-158.24166870117188,-51.22019958496094
1751014002640565800,0.392565673828125,-395.34271240234375,-158.30018615722656,-50.82200622558594
1751014002650609000,0.40260888671875,-395.0987548828125,-158.07164001464844,-50.80229187011719
1751014002660651800,0.41265185546875,-395.1004333496094,-158.19908142089844,-50.87213134765625
1751014002670695700,0.42269580078125,-395.2330627441406,-158.2344207763672,-51.00914001464844
1751014002680738600,0.432738525390625,-395.07232666015625,-158.03248596191406,-51.037628173828125
1751014002690781700,0.44278173828125,-394.82647705078125,-157.69625854492188,-50.806915283203125
1751014002700824800,0.452824951171875,-395.4804382324219,-158.3297576904297,-50.740753173828125
1751014002710867700,0.46286767578125,-395.46148681640625,-158.1212921142578,-50.95368957519531
1751014002720910800,0.472910888671875,-395.6006164550781,-157.8128204345703,-51.02439880371094
1751014002730952700,0.48295263671875,-395.37066650390625,-157.85491943359375,-51.21659851074219
1751014002740994800,0.492994873046875,-394.9302978515625,-157.9774627685547,-50.684295654296875
1751014002751036700,0.50303662109375,-395.04266357421875,-157.93466186523438,-50.702392578125
1751014002761078500,0.51307861328125,-395.34991455078125,-158.16648864746094,-51.165069580078125
1751014002771121000,0.523120849609375,-394.57257080078125,-157.52040100097656,-50.99945068359375
1751014002781161700,0.53316162109375,-394.62603759765625,-157.79977416992188,-50.72166442871094
1751014002791201500,0.543201416015625,-394.90606689453125,-157.81744384765625,-51.12300109863281
1751014002801242600,0.55324267578125,-394.69683837890625,-157.80532836914062,-51.044342041015625
1751014002811283700,0.56328369140625,-395.1194152832031,-157.55966186523438,-51.02067565917969
1751014002821326800,0.573326904296875,-394.9150390625,-157.6244659423828,-50.83808898925781
1751014002831368700,0.58336865234375,-394.8963623046875,-157.45071411132812,-50.95184326171875
1751014002841409800,0.593409912109375,-394.83758544921875,-157.5878143310547,-50.69328308105469
1751014002851451600,0.60345166015625,-394.83367919921875,-157.1539764404297,-51.14439392089844
1751014002861491700,0.61349169921875,-394.7122497558594,-157.34356689453125,-50.909881591796875
1751014002871532800,0.62353271484375,-394.67303466796875,-157.25950622558594,-51.17274475097656
1751014002881573600,0.63357373046875,-394.9338073730469,-157.3143310546875,-50.861358642578125
1751014002891614700,0.64361474609375,-394.8913269042969,-157.2733612060547,-50.92924499511719
1751014002901651200,0.653651123046875,-394.7972412109375,-157.50657653808594,-51.019683837890625
1751014002911692000,0.663692138671875,-395.01971435546875,-157.80621337890625,-51.15452575683594
1751014002921732000,0.673732177734375,-394.5908203125,-157.7644500732422,-51.110382080078125
1751014002931773200,0.683773193359375,-394.74664306640625,-157.50534057617188,-50.763214111328125
1751014002941814300,0.693814208984375,-394.8116455078125,-157.5915069580078,-51.188323974609375
1751014002951855000,0.703855224609375,-394.150634765625,-157.5199737548828,-51.08372497558594
1751014002961896200,0.713896240234375,-394.4054260253906,-157.26046752929688,-51.579620361328125
1751014002971937300,0.723937255859375,-394.695068359375,-157.80653381347656,-51.34321594238281
1751014002981978000,0.73397802734375,-394.8790283203125,-157.7643585205078,-50.96412658691406
1751014002992020200,0.744020263671875,-394.67547607421875,-157.53076171875,-51.34803771972656
1751014003002060300,0.754060302734375,-394.85205078125,-157.96424865722656,-51.44258117675781
1751014003012102100,0.76410205078125,-394.250244140625,-157.58262634277344,-51.31892395019531
1751014003022143200,0.774143310546875,-394.30517578125,-157.88983154296875,-51.2364501953125
1751014003032185000,0.78418505859375,-395.00341796875,-157.61410522460938,-51.61143493652344
1751014003042227200,0.794227294921875,-394.77850341796875,-157.92897033691406,-51.29267883300781
1751014003052269300,0.804269287109375,-394.79815673828125,-157.86276245117188,-51.27418518066406
1751014003062311200,0.814311279296875,-394.9010009765625,-157.6686553955078,-51.326446533203125
1751014003072353000,0.82435302734375,-394.6681823730469,-157.91819763183594,-51.27635192871094
1751014003082395100,0.83439501953125,-394.9906311035156,-157.58856201171875,-51.24351501464844
1751014003092437200,0.844437255859375,-394.69659423828125,-157.3998260498047,-51.45329284667969
1751014003102478300,0.854478271484375,-394.7041015625,-157.77603149414062,-51.58470153808594
1751014003112521200,0.864521240234375,-394.16680908203125,-157.61825561523438,-51.57066345214844
1751014003122562000,0.87456201171875,-394.7076416015625,-157.77781677246094,-51.20526123046875
1751014003132605200,0.884605224609375,-394.6165771484375,-157.5847625732422,-51.631591796875
1751014003142648300,0.8946484375,-395.0140075683594,-158.02670288085938,-51.664093017578125
1751014003152690200,0.904690185546875,-394.738037109375,-157.8435516357422,-51.73402404785156
1751014003162733000,0.914733154296875,-394.83709716796875,-157.8833770751953,-50.97502136230469
1751014003172774100,0.924774169921875,-394.543701171875,-157.53485107421875,-51.080902099609375
1751014003182816300,0.934816162109375,-394.62945556640625,-157.994384765625,-51.334014892578125
1751014003192858000,0.944858154296875,-394.25775146484375,-157.8046875,-51.38177490234375
1751014003202899200,0.954899169921875,-394.88629150390625,-157.86810302734375,-51.19233703613281
1751014003212941000,0.964941162109375,-395.1096496582031,-157.30657958984375,-51.47581481933594
1751014003222982100,0.974982177734375,-394.8412780761719,-157.70448303222656,-51.12037658691406
1751014003233024000,0.98502392578125,-394.8420104980469,-157.50027465820312,-51.171661376953125
1751014003243065000,0.995065185546875,-394.7294921875,-157.82427978515625,-51.5340576171875
1751014003253107000,1.00510693359375,-395.017822265625,-157.93092346191406,-51.26902770996094
1751014003263149300,1.0151494140625,-394.61328125,-157.68150329589844,-51.14253234863281
1751014003273191200,1.025191162109375,-394.28082275390625,-157.5228729248047,-51.5601806640625
1751014003283234000,1.035234130859375,-394.9279479980469,-157.6251983642578,-50.92236328125
1751014003293277200,1.045277099609375,-394.8840637207031,-157.7215576171875,-51.01390075683594
1751014003303321000,1.055321044921875,-394.8946228027344,-157.6220245361328,-50.958953857421875
1751014003313364200,1.0653642578125,-394.596923828125,-157.48574829101562,-50.948333740234375
1751014003323408100,1.075408203125,-394.843017578125,-157.5678253173828,-51.24162292480469
1751014003333450000,1.085449951171875,-395.1748046875,-157.4415283203125,-51.068572998046875
1751014003343493000,1.0954931640625,-395.0860290527344,-157.2824249267578,-51.334503173828125
1751014003353536300,1.105536376953125,-394.81365966796875,-157.63262939453125,-51.0721435546875
1751014003363579400,1.115579345703125,-394.99200439453125,-157.15797424316406,-51.181671142578125
1751014003373622300,1.125622314453125,-394.84857177734375,-157.5258026123047,-51.26055908203125
1751014003383664000,1.1356640625,-394.9232177734375,-157.78582763671875,-51.3330078125
1751014003393707300,1.145707275390625,-394.902587890625,-157.2882537841797,-51.1820068359375
1751014003403751200,1.155751220703125,-394.8450622558594,-157.4130096435547,-51.36320495605469
1751014003413794300,1.165794189453125,-394.8095397949219,-157.7849884033203,-51.052520751953125
1751014003423838200,1.175838134765625,-394.95172119140625,-157.9398193359375,-51.32868957519531
1751014003433881300,1.18588134765625,-394.83819580078125,-157.3277130126953,-51.286834716796875
1751014003443924200,1.19592431640625,-394.793212890625,-157.33721923828125,-50.94459533691406
1751014003453967000,1.205967041015625,-394.8724365234375,-157.35604858398438,-51.072906494140625
1751014003464009200,1.21600927734375,-394.8924560546875,-157.411376953125,-51.36378479003906
1751014003474053000,1.22605322265625,-394.5545654296875,-157.4649658203125,-51.28521728515625
1751014003484096000,1.236095947265625,-394.7803955078125,-157.5924835205078,-51.07356262207031
1751014003494139100,1.24613916015625,-394.95574951171875,-157.4884033203125,-50.88835144042969
1751014003504180200,1.25618017578125,-394.43695068359375,-157.4282684326172,-51.15814208984375
1751014003514221300,1.26622119140625,-394.43048095703125,-157.65057373046875,-50.81950378417969
1751014003524261000,1.27626123046875,-394.43585205078125,-157.66688537597656,-50.909698486328125
1751014003534300200,1.286300048828125,-394.64349365234375,-157.98582458496094,-50.90411376953125
1751014003544340200,1.29634033203125,-394.91412353515625,-157.95545959472656,-50.612945556640625
1751014003554380300,1.30638037109375,-395.34552001953125,-158.0776824951172,-50.61186218261719
1751014003564419300,1.31641943359375,-394.87945556640625,-157.5454559326172,-50.693511962890625
1751014003574461200,1.326461181640625,-394.957763671875,-157.83091735839844,-50.6148681640625
1751014003584503300,1.33650341796875,-394.48370361328125,-158.1027374267578,-50.96061706542969
1751014003594546200,1.346546142578125,-394.8959045410156,-157.90638732910156,-51.302093505859375
1751014003604587000,1.3565869140625,-395.08428955078125,-157.80410766601562,-50.882568359375
1751014003614628000,1.366628173828125,-394.7237548828125,-157.93026733398438,-50.92216491699219
1751014003624670200,1.376670166015625,-394.62652587890625,-157.9383087158203,-51.21864318847656
1751014003634713000,1.386713134765625,-394.60479736328125,-157.87698364257812,-50.49458312988281
1751014003644752400,1.39675244140625,-394.7047119140625,-157.67893981933594,-50.637908935546875
1751014003654801200,1.40680126953125,-395.20867919921875,-158.0367431640625,-50.76805114746094
1751014003664844300,1.41684423828125,-394.5640869140625,-158.16087341308594,-50.994659423828125
1751014003674886100,1.42688623046875,-394.85479736328125,-157.89735412597656,-50.88825988769531
1751014003684929000,1.436928955078125,-394.89984130859375,-158.18264770507812,-50.814697265625
1751014003694970000,1.44697021484375,-395.0799865722656,-158.30593872070312,-51.34111022949219
1751014003705012000,1.457011962890625,-395.10479736328125,-158.34092712402344,-50.94807434082031
1751014003715054300,1.467054443359375,-395.22650146484375,-158.28016662597656,-50.821624755859375
1751014003725097200,1.47709716796875,-394.90252685546875,-158.09095764160156,-50.91294860839844
1751014003735139000,1.48713916015625,-395.3709716796875,-158.19822692871094,-50.99794006347656
1751014003745181200,1.49718115234375,-395.119873046875,-158.03829956054688,-50.97755432128906
1751014003755224300,1.507224365234375,-394.77032470703125,-158.33444213867188,-51.14410400390625
1751014003765266200,1.51726611328125,-395.16925048828125,-158.1725616455078,-51.16963195800781
1751014003775308000,1.52730810546875,-394.51171875,-158.48550415039062,-51.21046447753906
1751014003785349000,1.53734912109375,-395.21429443359375,-158.30226135253906,-51.12745666503906
1751014003795391000,1.547390869140625,-394.97113037109375,-158.8844757080078,-51.071533203125
1751014003805432000,1.55743212890625,-394.9743347167969,-158.32208251953125,-50.773406982421875
1751014003815474200,1.56747412109375,-395.606689453125,-158.6057891845703,-51.02122497558594
1751014003825516300,1.577516357421875,-394.76214599609375,-158.79763793945312,-51.3302001953125
1751014003835558100,1.58755810546875,-394.33099365234375,-158.39984130859375,-51.07402038574219
1751014003845600300,1.597600341796875,-395.08428955078125,-158.11424255371094,-51.34271240234375
1751014003855641000,1.60764111328125,-394.77752685546875,-158.51260375976562,-51.444976806640625
1751014003865682200,1.61768212890625,-395.03985595703125,-158.5238800048828,-51.09138488769531
1751014003875723000,1.627722900390625,-395.16375732421875,-158.33609008789062,-51.21589660644531
1751014003885764000,1.63776416015625,-395.3348693847656,-158.2493896484375,-51.09678649902344
1751014003895809500,1.6478095703125,-394.85400390625,-158.37669372558594,-50.98033142089844
1751014003905850600,1.6578505859375,-395.1688232421875,-158.3902130126953,-51.27873229980469
1751014003915892500,1.667892578125,-395.1867980957031,-158.5251922607422,-51.147125244140625
1751014003925933600,1.67793359375,-395.080078125,-158.80508422851562,-51.05824279785156
1751014003935975400,1.687975341796875,-395.705322265625,-158.7515106201172,-50.85368347167969
1751014003946016500,1.6980166015625,-396.13458251953125,-158.50660705566406,-51.41194152832031
1751014003956059600,1.7080595703125,-395.68963623046875,-158.96200561523438,-51.37702941894531
1751014003966102500,1.7181025390625,-395.2216796875,-158.71202087402344,-51.08795166015625
1751014003976145400,1.7281455078125,-396.0072021484375,-158.41116333007812,-51.08027648925781
1751014003986187800,1.738187744140625,-395.575927734375,-158.45091247558594,-51.04286193847656
1751014003996229600,1.748229736328125,-395.5523376464844,-158.72157287597656,-50.95256042480469
1751014004006272500,1.7582724609375,-395.81524658203125,-158.64300537109375,-50.74482727050781
1751014004016315600,1.768315673828125,-395.83868408203125,-158.5558319091797,-50.63401794433594
1751014004026358500,1.778358642578125,-395.9695129394531,-158.4722442626953,-50.49713134765625
1751014004036400600,1.788400634765625,-396.6395568847656,-158.52513122558594,-50.40049743652344
1751014004046441500,1.79844140625,-396.2894287109375,-158.71145629882812,-50.702789306640625
1751014004056483600,1.808483642578125,-395.98565673828125,-158.72604370117188,-50.268951416015625
1751014004066525700,1.818525634765625,-396.28851318359375,-158.5496826171875,-50.44325256347656
1751014004076567600,1.828567626953125,-396.3966064453125,-158.5719757080078,-50.64442443847656
1751014004086609700,1.838609619140625,-396.0638427734375,-158.552001953125,-50.51600646972656
1751014004096653800,1.84865380859375,-395.4844970703125,-158.5142364501953,-50.440826416015625
1751014004106695700,1.85869580078125,-396.3273010253906,-158.94674682617188,-50.66314697265625
1751014004116738600,1.868738525390625,-396.0273742675781,-158.75442504882812,-50.526275634765625
1751014004126781700,1.87878173828125,-395.865478515625,-158.70899963378906,-50.61854553222656
1751014004136823600,1.888823486328125,-396.09625244140625,-158.60540771484375,-50.57086181640625
1751014004146866400,1.898866455078125,-395.7918395996094,-158.39871215820312,-50.52192687988281
1751014004156908500,1.908908447265625,-395.333984375,-158.15203857421875,-50.460052490234375
1751014004166951700,1.91895166015625,-395.99749755859375,-158.14566040039062,-50.82084655761719
1751014004176994600,1.92899462890625,-396.1319580078125,-158.47146606445312,-50.676177978515625
1751014004187037400,1.939037353515625,-395.9097900390625,-158.69895935058594,-50.68585205078125
1751014004197079600,1.94907958984375,-396.2914123535156,-158.75064086914062,-50.65740966796875
1751014004207122700,1.959122802734375,-395.9166259765625,-158.6141815185547,-50.53852844238281
1751014004217165600,1.96916552734375,-395.7230224609375,-158.71957397460938,-50.51481628417969
1751014004227207700,1.979207763671875,-395.798095703125,-158.39976501464844,-50.32237243652344
1751014004237250600,1.98925048828125,-396.105224609375,-158.55709838867188,-50.63169860839844
1751014004247292400,1.99929248046875,-395.31524658203125,-158.6507110595703,-50.40672302246094
1751014004257335600,2.00933544921875,-395.70111083984375,-158.62161254882812,-50.529052734375
1751014004267377700,2.019377685546875,-395.72625732421875,-158.8460693359375,-50.54034423828125
1751014004277419500,2.02941943359375,-396.242919921875,-158.9346923828125,-50.58842468261719
1751014004287461600,2.039461669921875,-395.9231262207031,-158.55874633789062,-50.80921936035156
1751014004297503500,2.04950341796875,-395.92120361328125,-159.03038024902344,-50.834991455078125
1751014004307545600,2.059545654296875,-396.579345703125,-158.9696502685547,-50.57012939453125
1751014004317587700,2.069587646484375,-395.9934997558594,-158.72703552246094,-50.70841979980469
1751014004327630600,2.079630615234375,-396.13104248046875,-158.88487243652344,-50.623260498046875
1751014004337672400,2.08967236328125,-395.8930358886719,-158.73370361328125,-50.63493347167969
1751014004347714600,2.099714599609375,-396.14215087890625,-159.08505249023438,-50.46846008300781
1751014004357756700,2.109756591796875,-396.2542724609375,-158.39503479003906,-50.55293273925781
1751014004367799600,2.119799560546875,-396.1484375,-158.67376708984375,-50.19093322753906
1751014004377841400,2.12984130859375,-395.6914367675781,-158.5320281982422,-50.40754699707031
1751014004387883800,2.1398837890625,-396.0023498535156,-158.68663024902344,-50.86102294921875
1751014004397926700,2.1499267578125,-395.49310302734375,-158.4948272705078,-50.13383483886719
1751014004407968500,2.159968505859375,-396.24395751953125,-158.53756713867188,-50.63560485839844
1751014004418010400,2.17001025390625,-396.10003662109375,-159.04354858398438,-50.9669189453125
1751014004428053500,2.180053466796875,-396.2266845703125,-158.85829162597656,-50.77079772949219
1751014004438094600,2.190094482421875,-396.1770324707031,-158.78372192382812,-50.65362548828125
1751014004448136400,2.200136474609375,-396.33416748046875,-158.90106201171875,-51.0465087890625
1751014004458177500,2.210177490234375,-396.162841796875,-159.04148864746094,-51.04280090332031
1751014004468218600,2.220218505859375,-395.9547119140625,-159.12631225585938,-51.02850341796875
1751014004478259500,2.230259521484375,-395.47821044921875,-159.04776000976562,-50.90753173828125
1751014004488301600,2.240301513671875,-395.75811767578125,-158.89529418945312,-51.04725646972656
1751014004498343400,2.250343505859375,-396.0567626953125,-159.064697265625,-50.58551025390625
1751014004508385500,2.260385498046875,-395.729248046875,-158.77474975585938,-50.941741943359375
1751014004518426600,2.270426513671875,-395.8873291015625,-158.74484252929688,-51.04893493652344
1751014004528468700,2.28046875,-396.1993408203125,-158.9672393798828,-51.00856018066406
1751014004538510600,2.290510498046875,-395.6903991699219,-158.68472290039062,-50.4775390625
1751014004548551700,2.3005517578125,-395.95001220703125,-158.65704345703125,-51.114349365234375
1751014004558592500,2.310592529296875,-395.7492370605469,-158.60943603515625,-51.03662109375
1751014004568634600,2.320634521484375,-395.9599914550781,-158.9430694580078,-51.26051330566406
1751014004578678500,2.330678466796875,-396.25848388671875,-158.62001037597656,-51.08949279785156
1751014004588721400,2.340721435546875,-395.3998107910156,-158.51329040527344,-51.04664611816406
1751014004598763800,2.350763671875,-395.40753173828125,-158.71670532226562,-51.33192443847656
1751014004608801500,2.360801513671875,-395.1351318359375,-158.50320434570312,-51.04978942871094
1751014004618849500,2.370849609375,-395.1590576171875,-158.52767944335938,-51.39964294433594
1751014004628892700,2.380892578125,-395.75518798828125,-158.6194610595703,-51.350189208984375
1751014004638931500,2.390931396484375,-395.416015625,-158.5401153564453,-51.36616516113281
1751014004648980700,2.400980712890625,-395.891357421875,-158.38819885253906,-51.56626892089844
1751014004659024400,2.4110244140625,-395.6485595703125,-158.56790161132812,-51.7742919921875
1751014004669067500,2.421067626953125,-395.82666015625,-158.343017578125,-51.8272705078125
1751014004679111400,2.431111328125,-395.44879150390625,-158.60545349121094,-51.96345520019531
1751014004689154600,2.441154541015625,-395.59454345703125,-158.78289794921875,-51.685760498046875
1751014004699192600,2.451192626953125,-395.5090026855469,-158.83078002929688,-51.818084716796875
1751014004709239600,2.461239501953125,-395.80023193359375,-158.61911010742188,-52.1968994140625
1751014004719281700,2.47128173828125,-395.61004638671875,-158.31654357910156,-51.721893310546875
1751014004729323500,2.481323486328125,-395.773681640625,-158.57424926757812,-51.85321044921875
1751014004739365600,2.49136572265625,-395.0972900390625,-158.27978515625,-51.83241271972656
1751014004749408500,2.501408447265625,-395.39312744140625,-158.9990692138672,-52.12396240234375
1751014004759450600,2.51145068359375,-395.3170471191406,-158.792724609375,-51.91499328613281
1751014004769492700,2.52149267578125,-395.12347412109375,-158.9362030029297,-51.83894348144531
1751014004779535600,2.53153564453125,-394.93280029296875,-158.79722595214844,-51.986328125
1751014004789579500,2.54157958984375,-394.823486328125,-158.91900634765625,-51.78691101074219
1751014004799623400,2.55162353515625,-395.33538818359375,-158.77359008789062,-51.93519592285156
1751014004809667600,2.56166748046875,-395.47283935546875,-158.76564025878906,-51.99696350097656
1751014004819710500,2.57171044921875,-395.5574951171875,-158.72109985351562,-52.04248046875
1751014004829752600,2.581752685546875,-395.63616943359375,-158.628173828125,-52.0321044921875
1751014004839795700,2.591795654296875,-395.10321044921875,-158.66522216796875,-51.71061706542969
1751014004849839600,2.601839599609375,-394.7037658691406,-158.98626708984375,-51.743377685546875
1751014004859881700,2.6118818359375,-395.05908203125,-158.80953979492188,-51.812103271484375
1751014004869923600,2.621923583984375,-395.01348876953125,-158.67245483398438,-51.44453430175781
1751014004879966500,2.631966552734375,-395.06341552734375,-158.793212890625,-51.64483642578125
1751014004890010600,2.6420107421875,-395.2685852050781,-158.89486694335938,-51.71348571777344
1751014004900052700,2.652052734375,-395.353271484375,-159.09060668945312,-51.503173828125
1751014004910094800,2.6620947265625,-395.5431823730469,-159.01502990722656,-51.740234375
1751014004920137000,2.672136962890625,-395.31243896484375,-159.00074768066406,-51.93122863769531
1751014004930175700,2.68217578125,-395.27301025390625,-158.89895629882812,-51.925079345703125
1751014004940222700,2.69222265625,-395.1870422363281,-158.73577880859375,-51.90971374511719
1751014004950261800,2.70226171875,-395.36651611328125,-158.6480255126953,-51.99928283691406
1751014004960304600,2.7123046875,-395.06243896484375,-158.67330932617188,-51.7796630859375
1751014004970347800,2.72234765625,-394.8423767089844,-158.57791137695312,-51.89176940917969
1751014004980396800,2.732396728515625,-394.76654052734375,-158.63449096679688,-51.69468688964844
1751014004990441000,2.74244091796875,-394.47991943359375,-158.8264923095703,-51.93595886230469
1751014005000484900,2.75248486328125,-395.07562255859375,-158.93637084960938,-51.99473571777344
1751014005010527700,2.76252783203125,-394.8747253417969,-158.6561279296875,-51.959869384765625
1751014005020571000,2.77257080078125,-394.9248046875,-158.59425354003906,-51.95640563964844
1751014005030614000,2.782614013671875,-395.2181396484375,-158.49436950683594,-52.197479248046875
1751014005040657700,2.79265771484375,-394.80694580078125,-158.490478515625,-51.666534423828125
1751014005050700800,2.80270068359375,-395.1134033203125,-158.31297302246094,-52.1331787109375
1751014005060744000,2.812743896484375,-395.0472412109375,-158.83346557617188,-52.04716491699219
1751014005070787000,2.822787109375,-394.89373779296875,-158.2832794189453,-52.16886901855469
1751014005080824800,2.832824951171875,-394.9364318847656,-158.6808624267578,-52.14106750488281
1751014005090873600,2.84287353515625,-394.76922607421875,-158.68344116210938,-52.12294006347656
1751014005100917800,2.852917724609375,-395.0418701171875,-158.67822265625,-52.07014465332031
1751014005110960600,2.862960693359375,-394.8295593261719,-158.37051391601562,-52.1126708984375
1751014005121003800,2.873003662109375,-394.97967529296875,-158.57855224609375,-52.05796813964844
1751014005131049000,2.883049072265625,-394.7327880859375,-157.8568878173828,-52.132232666015625
1751014005141092900,2.8930927734375,-395.24591064453125,-158.69943237304688,-52.132781982421875
1751014005151136000,2.903135986328125,-395.2489318847656,-158.3137969970703,-51.98915100097656
1751014005161179000,2.913178955078125,-395.2411193847656,-158.40817260742188,-51.97438049316406
1751014005171221800,2.9232216796875,-394.8525390625,-158.59396362304688,-52.16557312011719
1751014005181260800,2.9332607421875,-394.7668151855469,-158.28868103027344,-51.83116149902344
1751014005191305000,2.943304931640625,-395.1874694824219,-158.13925170898438,-52.19989013671875
1751014005201353000,2.95335302734375,-395.14013671875,-158.6439666748047,-52.46211242675781
1751014005211396900,2.96339697265625,-395.1977233886719,-158.62478637695312,-52.18138122558594
1751014005221440800,2.973440673828125,-394.84954833984375,-158.55453491210938,-52.03944396972656
1751014005231485000,2.98348486328125,-395.02081298828125,-158.29922485351562,-52.11199951171875
1751014005241527800,2.99352783203125,-394.6218566894531,-158.68966674804688,-52.28269958496094
1751014005251572000,3.003572021484375,-395.056884765625,-158.54507446289062,-52.10986328125
1751014005261614800,3.01361474609375,-395.1148986816406,-158.7537841796875,-52.07191467285156
1751014005271652900,3.02365283203125,-395.08270263671875,-158.9277801513672,-51.784393310546875
1751014005281699800,3.033699951171875,-395.3515625,-158.52334594726562,-51.87213134765625
1751014005291742700,3.04374267578125,-395.0335998535156,-158.53684997558594,-52.05677795410156
1751014005301785900,3.053785888671875,-395.3050537109375,-158.8154296875,-51.98188781738281
1751014005311828000,3.063827880859375,-395.18011474609375,-158.79905700683594,-52.02171325683594
1751014005321869800,3.073869873046875,-395.1846008300781,-158.96514892578125,-51.987518310546875
1751014005331914000,3.0839140625,-394.79107666015625,-158.68385314941406,-51.81597900390625
1751014005341956900,3.093956787109375,-394.8093566894531,-158.61868286132812,-52.18553161621094
1751014005351995000,3.103994873046875,-394.50836181640625,-158.78004455566406,-52.119049072265625
1751014005362043000,3.11404296875,-395.1502990722656,-158.79827880859375,-52.31663513183594
1751014005372084700,3.124084716796875,-395.27642822265625,-159.02247619628906,-52.35151672363281
1751014005382127900,3.1341279296875,-395.2554931640625,-158.89283752441406,-52.38861083984375
1751014005392171000,3.1441708984375,-394.697509765625,-158.35520935058594,-52.29527282714844
1751014005402211800,3.1542119140625,-395.1334228515625,-158.85020446777344,-52.16511535644531
1751014005412254000,3.16425390625,-394.3984375,-158.4514923095703,-52.260009765625
1751014005422293000,3.17429296875,-395.0636901855469,-159.00279235839844,-52.063751220703125
1751014005432342800,3.1843427734375,-394.6240234375,-158.552978515625,-51.950958251953125
1751014005442386000,3.194385986328125,-395.0577087402344,-159.33087158203125,-52.39239501953125
1751014005452429800,3.204429931640625,-395.14239501953125,-158.8462371826172,-52.57212829589844
1751014005462473000,3.214472900390625,-394.49310302734375,-158.8009490966797,-52.096221923828125
1751014005472515800,3.224515869140625,-394.61907958984375,-158.72726440429688,-52.33363342285156
1751014005482558700,3.234558837890625,-395.0059509277344,-158.8717041015625,-52.038238525390625
1751014005492601900,3.244601806640625,-395.15093994140625,-158.60169982910156,-52.09580993652344
1751014005502643700,3.254643798828125,-395.5868835449219,-158.73377990722656,-52.2542724609375
1751014005512684800,3.264684814453125,-394.827392578125,-159.12271118164062,-52.07197570800781
1751014005522726000,3.274725830078125,-395.0576477050781,-158.81527709960938,-52.08998107910156
1751014005532766700,3.2847666015625,-395.14501953125,-158.59288024902344,-52.16801452636719
1751014005542808800,3.294808837890625,-395.08795166015625,-159.15965270996094,-52.11614990234375
1751014005552850700,3.3048505859375,-394.9853210449219,-159.2483367919922,-52.42082214355469
1751014005562893800,3.314893798828125,-395.166015625,-158.92056274414062,-52.23432922363281
1751014005572936700,3.324936767578125,-395.32989501953125,-159.0541534423828,-52.09211730957031
1751014005582978800,3.334978759765625,-395.1055908203125,-158.82093811035156,-51.81767272949219
1751014005593019600,3.34501953125,-395.1758117675781,-158.77085876464844,-52.107086181640625
1751014005603062000,3.35506201171875,-395.2171630859375,-159.16278076171875,-52.04949951171875
1751014005613103900,3.365103759765625,-395.1677551269531,-158.99241638183594,-51.866485595703125
1751014005623145700,3.375145751953125,-395.6290283203125,-158.99928283691406,-52.349090576171875
1751014005633187800,3.385187744140625,-395.20391845703125,-159.08273315429688,-52.03221130371094
1751014005643231000,3.39523095703125,-395.34930419921875,-158.69439697265625,-51.78007507324219
1751014005653272800,3.40527294921875,-395.12176513671875,-158.8218231201172,-52.06867980957031
1751014005663315000,3.41531494140625,-394.934814453125,-158.6744842529297,-52.170379638671875
1751014005673357800,3.42535791015625,-395.1600341796875,-158.83689880371094,-52.32063293457031
1751014005683400000,3.43539990234375,-395.184326171875,-159.09605407714844,-52.122650146484375
1751014005693441000,3.44544091796875,-395.1435546875,-158.86495971679688,-52.16038513183594
1751014005703483000,3.45548291015625,-395.08404541015625,-158.70736694335938,-52.1324462890625
1751014005713525800,3.46552587890625,-395.59674072265625,-158.98641967773438,-52.04747009277344
1751014005723567600,3.475567626953125,-395.5244445800781,-159.18666076660156,-52.31886291503906
1751014005733610800,3.48561083984375,-395.3359375,-159.04637145996094,-51.81378173828125
1751014005743652900,3.49565283203125,-394.77935791015625,-158.8866729736328,-52.13743591308594
1751014005753694700,3.50569482421875,-394.60845947265625,-158.6534423828125,-51.85859680175781
1751014005763736800,3.51573681640625,-395.300048828125,-158.9756622314453,-52.23872375488281
1751014005773777700,3.525777587890625,-395.42401123046875,-159.0111541748047,-52.29713439941406
1751014005783820000,3.535820068359375,-395.1905517578125,-159.04270935058594,-52.19923400878906
1751014005793862000,3.54586181640625,-395.1840515136719,-159.09255981445312,-52.06260681152344
1751014005803903700,3.55590380859375,-395.2403564453125,-159.02687072753906,-52.47523498535156
1751014005813944800,3.56594482421875,-394.85693359375,-158.5736846923828,-52.47087097167969
1751014005823985000,3.57598486328125,-394.92138671875,-159.06658935546875,-52.21040344238281
1751014005834026000,3.58602587890625,-395.13275146484375,-158.70362854003906,-52.329010009765625
1751014005844066800,3.59606689453125,-395.1913757324219,-159.05067443847656,-52.26177978515625
1751014005854109000,3.60610888671875,-395.25201416015625,-159.01730346679688,-52.05671691894531
1751014005864149800,3.616149658203125,-395.6596984863281,-158.7181854248047,-52.412994384765625
1751014005874192000,3.62619189453125,-395.5750427246094,-159.10275268554688,-52.39555358886719
1751014005884234000,3.63623388671875,-395.59912109375,-159.18356323242188,-52.24200439453125
1751014005894275800,3.64627587890625,-395.28582763671875,-159.1177215576172,-52.891448974609375
1751014005904312300,3.656312255859375,-395.42022705078125,-159.27125549316406,-52.61375427246094
1751014005914354700,3.666354736328125,-395.06072998046875,-159.11302185058594,-52.09321594238281
1751014005924395500,3.6763955078125,-394.973876953125,-159.06161499023438,-52.41261291503906
1751014005934437600,3.686437744140625,-396.0765380859375,-159.45565795898438,-52.28303527832031
1751014005944478500,3.696478515625,-395.32208251953125,-159.06655883789062,-52.271484375
1751014005954521300,3.706521240234375,-395.31671142578125,-159.13864135742188,-52.122039794921875
1751014005964563500,3.7165634765625,-395.4505920410156,-159.2045440673828,-52.403717041015625
1751014005974605600,3.72660546875,-395.73541259765625,-159.12127685546875,-52.068359375
1751014005984648400,3.7366484375,-395.6015625,-159.15492248535156,-52.083587646484375
1751014005994690300,3.746690185546875,-395.55718994140625,-159.3739013671875,-52.20452880859375
1751014006004731400,3.7567314453125,-395.7720947265625,-159.1194305419922,-51.9791259765625
1751014006014772500,3.7667724609375,-395.52618408203125,-158.92369079589844,-52.1259765625
1751014006024813300,3.776813232421875,-394.95855712890625,-158.93426513671875,-52.02729797363281
1751014006034855400,3.78685546875,-395.3509521484375,-158.9256591796875,-52.3079833984375
1751014006044895500,3.7968955078125,-395.2635803222656,-159.1513214111328,-52.29658508300781
1751014006054937300,3.806937255859375,-395.559326171875,-159.4813690185547,-52.10078430175781
1751014006064977400,3.816977294921875,-395.6314697265625,-159.0498809814453,-52.34098815917969
1751014006075018500,3.8270185546875,-395.15679931640625,-159.22120666503906,-52.087646484375
1751014006085059300,3.837059326171875,-395.3382263183594,-159.1546173095703,-52.39805603027344
1751014006095100400,3.847100341796875,-395.22509765625,-159.04833984375,-51.90269470214844
1751014006105140500,3.857140380859375,-395.1485595703125,-159.1177215576172,-52.02838134765625
1751014006115182300,3.867182373046875,-395.2325439453125,-159.0653076171875,-51.784698486328125
1751014006125221400,3.877221435546875,-395.251708984375,-159.4796905517578,-52.163909912109375
1751014006135262500,3.887262451171875,-394.8519287109375,-159.37351989746094,-52.35441589355469
1751014006145302500,3.897302490234375,-395.1339416503906,-159.46446228027344,-52.40626525878906
1751014006155341300,3.90734130859375,-395.60235595703125,-159.3174285888672,-52.64158630371094
1751014006165380400,3.91738037109375,-395.6700744628906,-159.20140075683594,-52.39326477050781
1751014006175421400,3.92742138671875,-395.256103515625,-159.2912139892578,-52.47517395019531
1751014006185462500,3.937462646484375,-395.14959716796875,-159.54458618164062,-52.303009033203125
1751014006195503400,3.94750341796875,-394.9280700683594,-159.62307739257812,-52.29017639160156
1751014006205543400,3.95754345703125,-395.1240539550781,-159.55918884277344,-52.440338134765625
1751014006215584500,3.96758447265625,-394.4551086425781,-159.42564392089844,-52.62950134277344
1751014006225624600,3.97762451171875,-394.24932861328125,-159.4862823486328,-52.66786193847656
1751014006235665700,3.987665771484375,-394.64434814453125,-159.48651123046875,-52.71514892578125
1751014006245705500,3.99770556640625,-394.645263671875,-159.8829803466797,-52.75346374511719
1751014006255744500,4.00774462890625,-394.7304382324219,-159.5386505126953,-52.68951416015625
1751014006265784600,4.01778466796875,-394.6541748046875,-159.56356811523438,-52.80694580078125
1751014006275824600,4.02782470703125,-395.12017822265625,-159.9874267578125,-52.742584228515625
1751014006285863400,4.037863525390625,-395.32763671875,-159.47247314453125,-52.651397705078125
1751014006295902500,4.04790234375,-394.9598693847656,-159.504638671875,-52.844207763671875
1751014006305941200,4.057941162109375,-395.13116455078125,-159.6339111328125,-52.61358642578125
1751014006315980500,4.06798046875,-395.2143249511719,-159.18881225585938,-52.421875
1751014006326019600,4.07801953125,-395.1593017578125,-159.48678588867188,-52.53471374511719
1751014006336059600,4.0880595703125,-394.8765869140625,-159.18280029296875,-52.5323486328125
1751014006346099500,4.098099365234375,-395.08709716796875,-159.2496795654297,-52.60481262207031
1751014006356139500,4.108139404296875,-395.42919921875,-159.40731811523438,-52.373046875
1751014006366178600,4.118178466796875,-395.0859069824219,-159.52932739257812,-52.30015563964844
1751014006376217300,4.12821728515625,-394.8445129394531,-159.66555786132812,-52.18403625488281
1751014006386257400,4.13825732421875,-395.58184814453125,-159.1522674560547,-52.20526123046875
1751014006396296400,4.14829638671875,-396.1169128417969,-159.2227783203125,-52.31646728515625
1751014006406337500,4.158337646484375,-395.2589111328125,-159.1707763671875,-51.94438171386719
1751014006416378600,4.168378662109375,-395.4483642578125,-159.649658203125,-52.0718994140625
1751014006426419500,4.17841943359375,-395.0746765136719,-159.1971435546875,-52.18559265136719
1751014006436460500,4.18846044921875,-395.1468505859375,-159.2604217529297,-52.317901611328125
1751014006446501400,4.19850146484375,-395.094482421875,-159.1041259765625,-52.28411865234375
1751014006456541400,4.20854150390625,-395.306640625,-159.22657775878906,-52.5296630859375
1751014006466582500,4.21858251953125,-394.904052734375,-159.22943115234375,-52.44659423828125
1751014006476621300,4.228621337890625,-395.3372802734375,-159.14048767089844,-52.060882568359375
1751014006486663700,4.23866357421875,-395.1246337890625,-159.17625427246094,-52.733367919921875
1751014006496703500,4.248703369140625,-394.8235778808594,-159.5753936767578,-52.20347595214844
1751014006506744300,4.258744384765625,-394.7994079589844,-159.2400360107422,-52.30531311035156
1751014006516784400,4.268784423828125,-394.84271240234375,-159.24871826171875,-52.67088317871094
1751014006526825500,4.278825439453125,-394.7288818359375,-159.14181518554688,-52.41412353515625
1751014006536866300,4.2888662109375,-394.6856384277344,-159.21310424804688,-52.279449462890625
1751014006546907400,4.298907470703125,-395.1192321777344,-159.30186462402344,-52.681396484375
1751014006556948500,4.308948486328125,-395.0780029296875,-159.4621124267578,-52.52531433105469
1751014006566989300,4.3189892578125,-394.9242248535156,-159.29171752929688,-52.20463562011719
1751014006577031400,4.329031494140625,-395.21868896484375,-159.38059997558594,-51.89744567871094
1751014006587072300,4.339072265625,-395.186767578125,-159.63929748535156,-52.38047790527344
1751014006597114600,4.349114501953125,-395.16143798828125,-159.494140625,-52.25773620605469
1751014006607155500,4.359155517578125,-395.33551025390625,-159.30490112304688,-52.15089416503906
1751014006617197600,4.369197509765625,-394.4341735839844,-159.32615661621094,-52.19013977050781
1751014006627239400,4.379239501953125,-394.9097900390625,-159.61607360839844,-52.14753723144531
1751014006637280500,4.389280517578125,-395.15447998046875,-159.3470916748047,-51.84710693359375
1751014006647322400,4.399322265625,-395.4283752441406,-159.75831604003906,-52.0948486328125
1751014006657362400,4.409362548828125,-395.1720275878906,-159.6659393310547,-52.107818603515625
1751014006667402500,4.419402587890625,-394.8040771484375,-159.82659912109375,-51.89903259277344
1751014006677443600,4.429443603515625,-395.35113525390625,-159.5854949951172,-52.03956604003906
1751014006687483600,4.439483642578125,-395.37591552734375,-159.8870086669922,-52.09077453613281
1751014006697524500,4.4495244140625,-394.8745422363281,-159.7372589111328,-51.92308044433594
1751014006707563500,4.4595634765625,-395.8100891113281,-159.8928985595703,-52.10638427734375
1751014006717604400,4.469604248046875,-394.8995056152344,-159.67236328125,-51.964569091796875
1751014006727644400,4.47964453125,-395.5918884277344,-159.59307861328125,-52.184539794921875
1751014006737684500,4.4896845703125,-395.66741943359375,-159.41912841796875,-52.33203125
1751014006747723500,4.4997236328125,-395.27392578125,-159.4629669189453,-52.20579528808594
1751014006757764600,4.5097646484375,-395.0926513671875,-159.97743225097656,-52.292327880859375
1751014006767804400,4.519804443359375,-395.42950439453125,-159.73565673828125,-52.14833068847656
1751014006777844500,4.529844482421875,-395.5838623046875,-159.69915771484375,-52.277587890625
1751014006787884500,4.539884521484375,-395.39202880859375,-159.8869171142578,-52.211090087890625
1751014006797926400,4.549926513671875,-395.3472595214844,-159.54714965820312,-52.47966003417969
1751014006807968300,4.55996826171875,-395.57257080078125,-159.6900177001953,-52.76725769042969
1751014006818010600,4.5700107421875,-395.2925109863281,-159.6529083251953,-52.54560852050781
1751014006828052500,4.580052490234375,-395.5497741699219,-159.8273468017578,-52.85932922363281
1751014006838094600,4.590094482421875,-395.1541748046875,-159.6729736328125,-52.53773498535156
1751014006848136400,4.600136474609375,-395.3272399902344,-159.919677734375,-52.8516845703125
1751014006858178300,4.61017822265625,-394.9046630859375,-159.63320922851562,-52.66673278808594
1751014006868219400,4.620219482421875,-395.49005126953125,-159.6768035888672,-53.024627685546875
1751014006878261500,4.630261474609375,-395.4786071777344,-159.92466735839844,-53.002899169921875
1751014006888303600,4.6403037109375,-395.0410461425781,-159.846435546875,-52.931854248046875
1751014006898345700,4.650345703125,-395.2939453125,-159.4263458251953,-52.62825012207031
1751014006908387600,4.6603876953125,-395.06744384765625,-159.795654296875,-52.94964599609375
1751014006918429700,4.6704296875,-394.8707275390625,-159.55157470703125,-52.537017822265625
1751014006928471800,4.680471923828125,-395.2745361328125,-159.9493865966797,-52.74397277832031
1751014006938514700,4.6905146484375,-394.8394470214844,-159.6301727294922,-52.87379455566406
1751014006948556500,4.700556640625,-395.3289794921875,-159.66969299316406,-53.040557861328125
1751014006958599700,4.710599609375,-395.1171569824219,-159.59930419921875,-52.754302978515625
1751014006968640800,4.720640869140625,-395.04302978515625,-159.63580322265625,-52.94822692871094
1751014006978683600,4.73068359375,-394.5111389160156,-159.9771270751953,-53.017974853515625
1751014006988725800,4.740725830078125,-394.74603271484375,-159.57046508789062,-53.00726318359375
1751014006998769000,4.750768798828125,-394.91607666015625,-160.07254028320312,-52.63948059082031
1751014007008811800,4.760811767578125,-394.9594421386719,-159.9737548828125,-52.7442626953125
1751014007018854700,4.770854736328125,-395.19622802734375,-159.7821044921875,-52.763519287109375
1751014007028897800,4.780897705078125,-395.0437927246094,-159.7687530517578,-52.60978698730469
1751014007038940700,4.790940673828125,-395.2823486328125,-159.9893035888672,-52.739654541015625
1751014007048982500,4.800982421875,-395.3821716308594,-160.1505584716797,-52.77174377441406
1751014007059025700,4.811025634765625,-394.7439880371094,-159.8677215576172,-52.59112548828125
1751014007069067800,4.82106787109375,-395.0562744140625,-159.709716796875,-52.82551574707031
1751014007079109600,4.831109619140625,-394.5793151855469,-159.84596252441406,-52.811614990234375
1751014007089151700,4.84115185546875,-395.0841064453125,-159.71902465820312,-52.63841247558594
1751014007099193900,4.85119384765625,-394.66644287109375,-159.87249755859375,-52.63307189941406
1751014007109235700,4.861235595703125,-394.8490905761719,-159.6219024658203,-52.94743347167969
1751014007119277800,4.87127783203125,-394.81768798828125,-159.62701416015625,-53.02772521972656
1751014007129318700,4.881318603515625,-394.8310241699219,-159.86822509765625,-53.21690368652344
1751014007139359700,4.89135986328125,-394.5675048828125,-159.8144989013672,-52.87335205078125
1751014007149400800,4.90140087890625,-395.212158203125,-159.3067626953125,-52.97975158691406
1751014007159440600,4.911440673828125,-394.61798095703125,-159.78244018554688,-52.8272705078125
1751014007169479700,4.921479736328125,-395.13177490234375,-159.61764526367188,-53.123931884765625
1751014007179519700,4.931519775390625,-394.9990234375,-159.90208435058594,-53.08172607421875
1751014007189558800,4.941558837890625,-394.825439453125,-159.55740356445312,-52.990814208984375
1751014007199598800,4.951598876953125,-394.65673828125,-159.42591857910156,-52.64033508300781
1751014007209637600,4.9616376953125,-395.0282287597656,-159.91326904296875,-52.519775390625
1751014007219677700,4.971677734375,-394.9893798828125,-159.92176818847656,-53.01934814453125
1751014007229717800,4.9817177734375,-394.77276611328125,-160.21755981445312,-52.73602294921875
1751014007239757800,4.9917578125,-394.73095703125,-159.59388732910156,-53.070587158203125
1751014007249800700,5.00180078125,-394.53900146484375,-159.9669952392578,-53.07255554199219
1751014007259842600,5.011842529296875,-394.6170349121094,-159.98670959472656,-53.1260986328125
1751014007269885700,5.0218857421875,-394.84429931640625,-159.84202575683594,-53.314178466796875
1751014007279927800,5.031927734375,-395.4183654785156,-160.00537109375,-53.008331298828125
1751014007289968600,5.04196875,-395.30389404296875,-159.85951232910156,-52.90771484375
1751014007300009700,5.052009765625,-394.8394775390625,-160.0362548828125,-52.963287353515625
1751014007310051600,5.062051513671875,-395.28826904296875,-159.52381896972656,-52.89154052734375
1751014007320092700,5.0720927734375,-394.5235595703125,-159.8447265625,-52.912322998046875
1751014007330133800,5.0821337890625,-394.81353759765625,-159.91217041015625,-53.10139465332031
1751014007340175600,5.092175537109375,-394.7222595214844,-159.6479034423828,-53.02305603027344
1751014007350214000,5.1022138671875,-394.4244689941406,-159.45498657226562,-53.052825927734375
1751014007360261600,5.11226171875,-394.81134033203125,-159.71847534179688,-53.10472106933594
1751014007370304800,5.1223046875,-394.5960693359375,-159.74154663085938,-52.90460205078125
1751014007380347000,5.132346923828125,-394.7416687011719,-159.90023803710938,-52.79466247558594
1751014007390388700,5.142388671875,-394.91876220703125,-159.7167510986328,-53.090972900390625
1751014007400430600,5.1524306640625,-395.119140625,-160.12088012695312,-53.06243896484375
1751014007410472700,5.16247265625,-394.18145751953125,-159.84458923339844,-52.994598388671875
1751014007420514800,5.172514892578125,-394.2375183105469,-159.7794189453125,-52.83332824707031
1751014007430556000,5.182555908203125,-394.9342041015625,-159.57090759277344,-52.91267395019531
1751014007440597800,5.19259765625,-394.7903747558594,-160.03375244140625,-53.04638671875
1751014007450639600,5.2026396484375,-394.871826171875,-159.79034423828125,-52.876312255859375
1751014007460681700,5.212681640625,-394.8551025390625,-160.00364685058594,-53.18916320800781
1751014007470723600,5.2227236328125,-394.75347900390625,-159.9848175048828,-52.87510681152344
1751014007480766700,5.2327666015625,-394.6527404785156,-159.77969360351562,-52.77619934082031
1751014007490808800,5.242808837890625,-394.215576171875,-159.79925537109375,-52.84373474121094
1751014007500850700,5.2528505859375,-394.829833984375,-159.5491180419922,-53.12638854980469
1751014007510892500,5.262892578125,-395.29754638671875,-159.50009155273438,-52.964935302734375
1751014007520933600,5.27293359375,-394.4881591796875,-159.68809509277344,-53.24427795410156
1751014007530975700,5.282975830078125,-394.7903747558594,-159.66485595703125,-53.03147888183594
1751014007541017900,5.293017822265625,-394.73895263671875,-159.6438751220703,-52.82020568847656
1751014007551058700,5.30305859375,-394.72039794921875,-159.52682495117188,-53.42417907714844
1751014007561100800,5.313100830078125,-394.6007080078125,-159.4685516357422,-53.369171142578125
1751014007571142700,5.323142578125,-394.8607177734375,-159.95022583007812,-53.064971923828125
1751014007581183700,5.333183837890625,-394.46588134765625,-160.0340576171875,-52.873779296875
1751014007591224600,5.343224609375,-394.90228271484375,-159.7380828857422,-53.299072265625
1751014007601265700,5.353265625,-395.19476318359375,-159.65408325195312,-53.4625244140625
1751014007611306800,5.363306640625,-394.64605712890625,-159.52149963378906,-53.1661376953125
1751014007621346800,5.373346923828125,-395.0382080078125,-159.77432250976562,-53.441619873046875
1751014007631387600,5.3833876953125,-394.38580322265625,-159.5699920654297,-53.38130187988281
1751014007641428700,5.3934287109375,-395.13134765625,-159.78689575195312,-53.375244140625
1751014007651467800,5.4034677734375,-394.41021728515625,-159.37562561035156,-53.14006042480469
1751014007661507600,5.413507568359375,-394.99212646484375,-159.62742614746094,-53.316192626953125
1751014007671547600,5.423547607421875,-394.75018310546875,-159.2193145751953,-53.01921081542969
1751014007681588700,5.433588623046875,-394.55474853515625,-159.53456115722656,-53.067840576171875
1751014007691628800,5.44362890625,-394.9222412109375,-159.45835876464844,-53.3680419921875
1751014007701666600,5.45366650390625,-394.8016357421875,-159.620361328125,-53.200286865234375
1751014007711707600,5.463707763671875,-394.48773193359375,-159.50714111328125,-53.40220642089844
1751014007721746700,5.47374658203125,-393.9891662597656,-159.32054138183594,-53.33070373535156
1751014007731786800,5.483786865234375,-394.7608947753906,-159.54058837890625,-53.83744812011719
1751014007741826800,5.493826904296875,-394.8221435546875,-159.45787048339844,-53.49754333496094
1751014007751867600,5.50386767578125,-394.49017333984375,-159.61672973632812,-53.63999938964844
1751014007761907700,5.51390771484375,-394.6960754394531,-159.91656494140625,-53.6185302734375
1751014007771947500,5.523947509765625,-395.0615234375,-159.51795959472656,-53.85076904296875
1751014007781988600,5.533988525390625,-394.6502685546875,-159.95838928222656,-53.59907531738281
1751014007792029700,5.54402978515625,-394.9302062988281,-159.4847412109375,-53.341552734375
1751014007802069800,5.55406982421875,-394.52142333984375,-159.8518524169922,-53.35368347167969
1751014007812108800,5.56410888671875,-394.8270263671875,-159.65476989746094,-53.74687194824219
1751014007822149600,5.574149658203125,-394.6218566894531,-159.76051330566406,-53.41389465332031
1751014007832191700,5.584191650390625,-394.723876953125,-159.47238159179688,-53.77415466308594
1751014007842233600,5.594233642578125,-394.73162841796875,-159.987548828125,-53.25215148925781
1751014007852274700,5.604274658203125,-394.47601318359375,-159.9141845703125,-53.107147216796875
1751014007862315800,5.614315673828125,-394.76239013671875,-159.82545471191406,-53.51310729980469
1751014007872355600,5.62435546875,-394.3421936035156,-159.9501953125,-53.31617736816406
1751014007882395600,5.634395751953125,-394.7409362792969,-159.9365692138672,-52.82891845703125
1751014007892435700,5.644435791015625,-394.3245849609375,-159.570068359375,-53.05731201171875
1751014007902477800,5.654477783203125,-394.6065368652344,-159.98236083984375,-53.40687561035156
1751014007912516600,5.6645166015625,-394.72442626953125,-159.5686492919922,-53.02313232421875
1751014007922556700,5.674556640625,-394.74407958984375,-159.61407470703125,-53.147430419921875
1751014007932597800,5.68459765625,-394.34075927734375,-159.84738159179688,-53.16145324707031
1751014007942637600,5.694637451171875,-394.36669921875,-159.630126953125,-52.98060607910156
1751014007952677600,5.704677734375,-394.6007995605469,-159.79925537109375,-53.52581787109375
1751014007962718700,5.71471875,-394.2983703613281,-159.50047302246094,-53.19206237792969
1751014007972759800,5.724759765625,-394.1300048828125,-159.59959411621094,-53.20573425292969
1751014007982800000,5.7347998046875,-394.68389892578125,-159.5238800048828,-53.44444274902344
1751014007992841700,5.744841796875,-393.81805419921875,-159.2992401123047,-53.265777587890625
1751014008002881800,5.7548818359375,-394.58953857421875,-159.39112854003906,-53.171600341796875
1751014008012923000,5.7649228515625,-394.42022705078125,-159.15000915527344,-53.25579833984375
1751014008022963700,5.774963623046875,-394.64453125,-158.91818237304688,-53.08673095703125
1751014008033002500,5.78500244140625,-394.3025207519531,-159.02877807617188,-53.12458801269531
1751014008043042600,5.79504248046875,-394.5929260253906,-159.0105743408203,-53.41035461425781
1751014008053083600,5.805083740234375,-394.1275634765625,-158.84115600585938,-53.52223205566406
1751014008063124700,5.815124755859375,-394.82586669921875,-158.89523315429688,-53.00123596191406
1751014008073164800,5.825164794921875,-394.20343017578125,-158.91363525390625,-52.76008605957031
1751014008083204900,5.835204833984375,-394.69189453125,-159.16192626953125,-53.13475036621094
1751014008093244700,5.84524462890625,-394.340576171875,-159.0615692138672,-53.030426025390625
1751014008103284500,5.855284423828125,-394.5036926269531,-159.2186737060547,-53.25917053222656
1751014008113325600,5.86532568359375,-394.7127685546875,-159.1428985595703,-52.94505310058594
1751014008123364600,5.875364501953125,-394.8134460449219,-159.32699584960938,-52.87416076660156
1751014008133404700,5.88540478515625,-394.6903991699219,-159.0968017578125,-53.044158935546875
1751014008143443700,5.895443603515625,-394.60968017578125,-159.23255920410156,-53.05668640136719
1751014008153483500,5.9054833984375,-394.42181396484375,-159.24697875976562,-53.29608154296875
1751014008163523600,5.915523681640625,-394.56463623046875,-159.03245544433594,-52.853912353515625
1751014008173563600,5.925563720703125,-394.7349548339844,-159.21595764160156,-52.97381591796875
1751014008183603700,5.935603759765625,-394.6395263671875,-159.59109497070312,-53.0009765625
1751014008193644800,5.945644775390625,-394.97796630859375,-159.36927795410156,-52.66558837890625
1751014008203684600,5.9556845703125,-394.6255187988281,-159.29759216308594,-52.96954345703125
1751014008213725400,5.965725341796875,-395.41790771484375,-159.1584014892578,-52.85472106933594
1751014008223766500,5.9757666015625,-395.08978271484375,-159.24514770507812,-52.926788330078125
1751014008233806600,5.985806640625,-394.769287109375,-159.03961181640625,-53.12709045410156
1751014008243847700,5.99584765625,-394.38250732421875,-159.41079711914062,-53.068572998046875
1751014008253887700,6.0058876953125,-394.79791259765625,-159.238525390625,-52.66999816894531
1751014008263927800,6.015927734375,-394.8081359863281,-159.154541015625,-53.089324951171875
1751014008273967600,6.025967529296875,-394.88214111328125,-159.3992156982422,-52.85514831542969
1751014008284006700,6.036006591796875,-394.9805908203125,-159.0366668701172,-53.05177307128906
1751014008294046700,6.046046630859375,-395.2213439941406,-159.03729248046875,-52.61924743652344
1751014008304086800,6.056086669921875,-394.75982666015625,-159.12632751464844,-52.56465148925781
1751014008314126800,6.066126953125,-394.2928466796875,-159.0296173095703,-52.594146728515625
1751014008324165600,6.07616552734375,-394.5250244140625,-159.4199676513672,-52.90110778808594
1751014008334206500,6.08620654296875,-395.09326171875,-159.27935791015625,-52.751922607421875
1751014008344248800,6.096248779296875,-394.585205078125,-159.3497314453125,-53.054473876953125
1751014008354290700,6.106290771484375,-394.3781433105469,-159.17727661132812,-52.924774169921875
1751014008364332800,6.116332763671875,-394.00701904296875,-158.77532958984375,-53.08491516113281
1751014008374373600,6.12637353515625,-394.2340087890625,-159.03074645996094,-52.929718017578125
1751014008384414700,6.136414794921875,-394.786376953125,-159.14108276367188,-52.914886474609375
1751014008394454800,6.146454833984375,-394.64111328125,-159.4984588623047,-52.93104553222656
1751014008404494800,6.156494873046875,-394.37152099609375,-159.2488250732422,-52.916412353515625
1751014008414534700,6.16653466796875,-394.72052001953125,-159.41067504882812,-52.705810546875
1751014008424574700,6.17657470703125,-394.59661865234375,-159.26492309570312,-52.78450012207031
1751014008434615600,6.186615478515625,-394.28961181640625,-159.23065185546875,-52.72206115722656
1751014008444657700,6.19665771484375,-394.48248291015625,-159.30377197265625,-52.77656555175781
1751014008454699800,6.20669970703125,-394.35394287109375,-159.14144897460938,-53.118377685546875
1751014008464740900,6.216740966796875,-394.39202880859375,-159.43113708496094,-52.97270202636719
1751014008474782700,6.22678271484375,-394.4939270019531,-159.11138916015625,-53.081756591796875
1751014008484823800,6.23682373046875,-394.63641357421875,-158.92562866210938,-52.94010925292969
1751014008494864600,6.24686474609375,-394.36944580078125,-159.0062255859375,-52.9686279296875
1751014008504905700,6.25690576171875,-394.59906005859375,-159.3292999267578,-52.75947570800781
1751014008514947600,6.266947509765625,-394.5970458984375,-159.4508056640625,-53.053070068359375
1751014008524988700,6.27698876953125,-394.9971618652344,-159.44525146484375,-52.7186279296875
1751014008535029800,6.28702978515625,-394.149658203125,-159.4122314453125,-52.61097717285156
1751014008545071600,6.297071533203125,-394.4766845703125,-159.26153564453125,-53.40946960449219
1751014008555107600,6.307107666015625,-394.31317138671875,-159.3206329345703,-52.72547912597656
1751014008565153500,6.317153564453125,-394.4034729003906,-159.5592498779297,-52.686248779296875
1751014008575190800,6.327190673828125,-394.375244140625,-159.4958953857422,-52.72276306152344
1751014008585237800,6.33723779296875,-394.4787292480469,-159.51202392578125,-52.85005187988281
1751014008595279600,6.347279541015625,-394.6666564941406,-159.2845458984375,-52.96690368652344
1751014008605316600,6.357316650390625,-394.8719482421875,-159.5728302001953,-52.97923278808594
1751014008615359700,6.36735986328125,-395.1673889160156,-159.65382385253906,-52.88984680175781
1751014008625407700,6.37740771484375,-394.64166259765625,-159.608642578125,-52.9901123046875
1751014008635449600,6.38744970703125,-395.08599853515625,-159.01266479492188,-52.68290710449219
1751014008645491700,6.39749169921875,-394.58746337890625,-159.130859375,-52.854522705078125
1751014008655533600,6.407533447265625,-394.6964111328125,-159.22848510742188,-52.85472106933594
1751014008665573600,6.41757373046875,-394.83123779296875,-159.28271484375,-52.949676513671875
1751014008675615700,6.42761572265625,-394.1395263671875,-159.02255249023438,-52.8306884765625
1751014008685656800,6.43765673828125,-394.6448974609375,-159.158203125,-52.74053955078125
1751014008695697700,6.44769775390625,-395.1575927734375,-159.17648315429688,-52.91943359375
1751014008705738800,6.45773876953125,-394.2635498046875,-159.42002868652344,-53.222137451171875
1751014008715779800,6.46777978515625,-394.65155029296875,-159.26551818847656,-52.87098693847656
1751014008725818600,6.477818603515625,-394.9625244140625,-159.3959503173828,-53.19911193847656
1751014008735858700,6.487858642578125,-395.21728515625,-159.4137420654297,-53.1007080078125
1751014008745898800,6.497898681640625,-394.7334289550781,-159.34930419921875,-53.13844299316406
1751014008755938800,6.507938720703125,-395.0926208496094,-159.61363220214844,-52.982757568359375
1751014008765979600,6.517979736328125,-394.9798889160156,-159.70193481445312,-53.11509704589844
1751014008776020700,6.528020751953125,-394.6307067871094,-159.66949462890625,-53.14006042480469
1751014008786061800,6.538061767578125,-394.58502197265625,-159.15968322753906,-53.060333251953125
1751014008796102700,6.5481025390625,-394.5667724609375,-159.2466583251953,-52.636322021484375
1751014008806143700,6.558143798828125,-394.29010009765625,-159.13800048828125,-52.79603576660156
1751014008816184800,6.568184814453125,-394.7469177246094,-159.1922149658203,-52.797607421875
1751014008826225700,6.5782255859375,-395.0958251953125,-159.22262573242188,-52.60948181152344
1751014008836268500,6.5882685546875,-395.41552734375,-159.386962890625,-52.768402099609375
1751014008846310700,6.598310546875,-395.620361328125,-159.19483947753906,-53.108245849609375
1751014008856352500,6.6083525390625,-394.3134765625,-159.08197021484375,-53.06321716308594
1751014008866395000,6.618394775390625,-394.9305419921875,-159.49459838867188,-52.59429931640625
1751014008876436700,6.628436767578125,-395.18792724609375,-159.55738830566406,-52.39848327636719
1751014008886477800,6.638477783203125,-395.0218811035156,-159.36045837402344,-52.79457092285156
1751014008896519700,6.648519775390625,-394.94940185546875,-159.2872314453125,-52.998992919921875
1751014008906556700,6.658556640625,-395.07269287109375,-159.40585327148438,-52.808746337890625
1751014008916596700,6.6685966796875,-394.5164794921875,-159.27471923828125,-52.98606872558594
1751014008926632700,6.6786328125,-395.1279296875,-159.10157775878906,-52.84504699707031
1751014008936677600,6.688677734375,-395.01177978515625,-159.35610961914062,-52.600738525390625
1751014008946716700,6.698716552734375,-394.9759521484375,-159.12034606933594,-52.68778991699219
1751014008956755700,6.708755615234375,-394.614501953125,-159.19154357910156,-52.794403076171875
1751014008966794800,6.718794677734375,-394.7724304199219,-159.51654052734375,-52.937744140625
1751014008976834800,6.728834716796875,-394.6936950683594,-159.3612823486328,-52.50653076171875
1751014008986874600,6.73887451171875,-394.34967041015625,-159.15733337402344,-52.6268310546875
1751014008996914700,6.748914794921875,-394.69091796875,-158.99844360351562,-52.46868896484375
1751014009006955500,6.75895556640625,-394.96502685546875,-159.17849731445312,-52.60911560058594
1751014009016996600,6.76899658203125,-394.5869140625,-159.02330017089844,-52.475433349609375
1751014009027038500,6.77903857421875,-394.5771484375,-158.89352416992188,-52.74763488769531
1751014009037079600,6.78907958984375,-394.5921325683594,-158.99412536621094,-52.28631591796875
1751014009047119600,6.79911962890625,-394.5946350097656,-159.2705078125,-52.455169677734375
1751014009057160700,6.80916064453125,-394.3746032714844,-159.2991485595703,-52.35523986816406
1751014009067200800,6.81920068359375,-395.00616455078125,-159.194580078125,-52.57191467285156
1751014009077241600,6.82924169921875,-395.1231384277344,-159.1890411376953,-52.824249267578125
1751014009087283700,6.83928369140625,-394.6838073730469,-159.22540283203125,-52.54779052734375
1751014009097323800,6.84932373046875,-394.8548889160156,-159.16590881347656,-52.97398376464844
1751014009107365600,6.85936572265625,-395.143310546875,-159.01873779296875,-52.82635498046875
1751014009117405700,6.86940576171875,-394.9603271484375,-158.9326171875,-52.642425537109375
1751014009127447600,6.879447509765625,-395.4493713378906,-159.15061950683594,-53.007720947265625
1751014009137488600,6.889488525390625,-395.3265380859375,-159.0548553466797,-52.824066162109375
1751014009147528700,6.89952880859375,-394.90765380859375,-159.14976501464844,-52.88346862792969
1751014009157568800,6.90956884765625,-395.19927978515625,-159.2974090576172,-53.16766357421875
1751014009167608800,6.91960888671875,-395.3333740234375,-158.9311065673828,-52.94148254394531
1751014009177649000,6.92964892578125,-394.7585754394531,-159.0357666015625,-52.703704833984375
1751014009187689700,6.939689697265625,-394.6244201660156,-159.05397033691406,-52.70906066894531
1751014009197729500,6.9497294921875,-394.8070068359375,-159.07662963867188,-52.9688720703125
1751014009207770600,6.9597705078125,-395.15435791015625,-159.3184814453125,-53.04478454589844
1751014009217810700,6.969810791015625,-394.71087646484375,-159.0543212890625,-52.994293212890625
1751014009227850800,6.979850830078125,-395.0562744140625,-159.03846740722656,-52.65156555175781
1751014009237890800,6.989890869140625,-394.6529846191406,-159.12428283691406,-52.59150695800781
1751014009247931000,6.999930908203125,-394.59246826171875,-159.07620239257812,-52.71649169921875
1751014009257970700,7.009970703125,-394.16754150390625,-159.06231689453125,-52.766571044921875
1751014009268009700,7.020009765625,-394.7640380859375,-159.0533905029297,-52.45777893066406
1751014009278049800,7.0300498046875,-394.3895263671875,-158.78184509277344,-52.48655700683594
1751014009288088600,7.040088623046875,-394.9322509765625,-158.95700073242188,-52.87225341796875
1751014009298128600,7.050128662109375,-394.6153564453125,-158.82733154296875,-52.97715759277344
1751014009308167700,7.060167724609375,-394.81390380859375,-158.70896911621094,-52.90373229980469
1751014009318208800,7.070208740234375,-394.5990295410156,-158.70858764648438,-52.90055847167969
1751014009328249600,7.08024951171875,-394.49212646484375,-158.72567749023438,-52.86041259765625
1751014009338289000,7.090288818359375,-394.72430419921875,-158.5703887939453,-52.6380615234375
1751014009348328700,7.10032861328125,-394.1243591308594,-158.74586486816406,-52.94511413574219
1751014009358367700,7.11036767578125,-394.3559265136719,-158.6106719970703,-53.03169250488281
1751014009368406800,7.12040673828125,-394.2970886230469,-158.84585571289062,-52.585205078125
1751014009378444500,7.130444580078125,-394.00518798828125,-158.67564392089844,-52.97270202636719
1751014009388484600,7.140484619140625,-394.526611328125,-158.4520263671875,-52.869415283203125
1751014009398525700,7.150525634765625,-394.5675354003906,-158.58905029296875,-52.698394775390625
1751014009408564500,7.160564453125,-394.804443359375,-158.94004821777344,-52.78861999511719
1751014009418604500,7.1706044921875,-394.3800964355469,-158.82696533203125,-52.87788391113281
1751014009428644600,7.18064453125,-394.7215576171875,-158.58126831054688,-52.76567077636719
1751014009438684700,7.1906845703125,-394.8343505859375,-158.7817840576172,-52.54730224609375
1751014009448724700,7.200724853515625,-394.52020263671875,-159.12158203125,-52.742828369140625
1751014009458764500,7.2107646484375,-394.8297119140625,-158.94650268554688,-52.606170654296875
1751014009468805600,7.2208056640625,-394.6163024902344,-158.51068115234375,-52.56390380859375
1751014009478844700,7.2308447265625,-394.6003112792969,-158.61082458496094,-52.595855712890625
1751014009488884700,7.240884765625,-394.30670166015625,-158.63417053222656,-52.72987365722656
1751014009498923800,7.250923828125,-394.4947509765625,-158.6372528076172,-52.45530700683594
1751014009508962600,7.260962646484375,-394.2319030761719,-158.70944213867188,-52.58087158203125
1751014009519002600,7.271002685546875,-394.2075500488281,-158.61956787109375,-52.459503173828125
1751014009529042700,7.281042724609375,-394.2041015625,-158.37730407714844,-52.54957580566406
1751014009539082800,7.291082763671875,-394.337646484375,-158.49803161621094,-52.713226318359375
1751014009549123800,7.301123779296875,-394.6119689941406,-158.31776428222656,-52.74534606933594
1751014009559163600,7.31116357421875,-394.8674011230469,-158.79576110839844,-52.81951904296875
1751014009569203700,7.32120361328125,-394.04986572265625,-158.5976104736328,-52.43565368652344
1751014009579243800,7.331243896484375,-394.63983154296875,-158.687255859375,-52.432525634765625
1751014009589284600,7.34128466796875,-394.65087890625,-158.38735961914062,-52.70977783203125
1751014009599325700,7.35132568359375,-394.7506103515625,-158.598876953125,-52.6820068359375
1751014009609364700,7.36136474609375,-394.667724609375,-158.6057586669922,-52.35795593261719
1751014009619405800,7.37140576171875,-394.65966796875,-158.6456756591797,-52.44427490234375
1751014009629445600,7.381445556640625,-394.8329772949219,-158.44544982910156,-52.70582580566406
1751014009639485700,7.391485595703125,-394.78765869140625,-159.0652313232422,-52.625579833984375
1751014009649526500,7.401526611328125,-394.86883544921875,-158.64967346191406,-53.117401123046875
1751014009659563800,7.411563720703125,-394.8243408203125,-158.6985321044922,-52.967132568359375
1751014009669610800,7.42161083984375,-394.7139892578125,-158.33349609375,-52.55902099609375
1751014009679651800,7.43165185546875,-394.7149963378906,-158.707275390625,-52.98747253417969
1751014009689693700,7.441693603515625,-395.1353759765625,-158.47865295410156,-52.72053527832031
1751014009699734800,7.45173486328125,-394.90008544921875,-158.8168487548828,-52.59443664550781
1751014009709775600,7.461775634765625,-394.510986328125,-158.66322326660156,-52.71293640136719
1751014009719817700,7.471817626953125,-394.505126953125,-158.7980194091797,-52.67866516113281
1751014009729860900,7.48186083984375,-394.6272888183594,-158.68234252929688,-52.59724426269531
1751014009739903700,7.49190380859375,-394.3218688964844,-158.72903442382812,-52.68843078613281
1751014009749944600,7.501944580078125,-394.85504150390625,-158.67002868652344,-52.69691467285156
1751014009759986700,7.511986572265625,-394.7375183105469,-158.59979248046875,-52.47552490234375
1751014009770027500,7.522027587890625,-395.15350341796875,-158.7378387451172,-52.645111083984375
1751014009780069600,7.532069580078125,-395.080078125,-158.80125427246094,-52.90242004394531
1751014009790110500,7.5421103515625,-395.269775390625,-158.4236297607422,-52.56269836425781
1751014009800152800,7.55215283203125,-394.600830078125,-158.80377197265625,-52.95252990722656
1751014009810195700,7.56219580078125,-394.9909973144531,-158.60958862304688,-52.55039978027344
1751014009820232700,7.572232666015625,-394.88226318359375,-159.1217803955078,-52.56561279296875
1751014009830280700,7.58228076171875,-394.3590087890625,-158.68067932128906,-52.833038330078125
1751014009840322800,7.59232275390625,-394.8551940917969,-158.77903747558594,-52.723602294921875
1751014009850366700,7.60236669921875,-394.3883972167969,-158.76641845703125,-52.49542236328125
1751014009860409900,7.612409912109375,-394.1246337890625,-158.9044647216797,-52.54914855957031
1751014009870453500,7.62245361328125,-394.41522216796875,-158.57789611816406,-52.550262451171875
1751014009880491800,7.63249169921875,-394.53131103515625,-158.7154541015625,-52.57684326171875
1751014009890535700,7.64253564453125,-394.6148376464844,-158.89527893066406,-52.4453125
1751014009900579600,7.65257958984375,-395.0256042480469,-158.91766357421875,-52.507659912109375
1751014009910628600,7.662628662109375,-394.238037109375,-158.56040954589844,-52.69203186035156
1751014009920670700,7.672670654296875,-394.6361083984375,-158.7632293701172,-52.71458435058594
1751014009930713600,7.682713623046875,-394.2857360839844,-158.56646728515625,-52.667877197265625
1751014009940755700,7.692755615234375,-394.74493408203125,-158.96669006347656,-52.72138977050781
1751014009950797600,7.702797607421875,-394.43878173828125,-158.96165466308594,-52.6116943359375
1751014009960839700,7.712839599609375,-394.1356201171875,-158.89718627929688,-52.73252868652344
1751014009970881800,7.7228818359375,-394.789306640625,-159.0512237548828,-52.84782409667969
1751014009980922600,7.732922607421875,-394.20965576171875,-158.8379364013672,-52.53810119628906
1751014009990964700,7.74296484375,-394.6122741699219,-158.6785888671875,-52.20243835449219
1751014010001006600,7.753006591796875,-394.6235046386719,-158.6689453125,-52.29530334472656
1751014010011049700,7.7630498046875,-395.27423095703125,-158.99667358398438,-52.61366271972656
1751014010021091600,7.773091552734375,-394.767333984375,-159.02735900878906,-52.65476989746094
1751014010031133700,7.7831337890625,-394.604736328125,-159.2755584716797,-52.63633728027344
1751014010041173800,7.793173828125,-394.75927734375,-159.04017639160156,-52.50819396972656
1751014010051214600,7.803214599609375,-394.3923645019531,-158.85508728027344,-52.55499267578125
1751014010061257700,7.8132578125,-394.76092529296875,-159.132568359375,-52.449951171875
1751014010071298600,7.823298583984375,-394.83782958984375,-158.8271942138672,-52.86811828613281
1751014010081339600,7.833339599609375,-394.8504638671875,-158.80850219726562,-52.65003967285156
1751014010091380500,7.84338037109375,-394.7977600097656,-158.5493621826172,-52.20799255371094
1751014010101421600,7.853421630859375,-395.14971923828125,-158.55075073242188,-52.413665771484375
1751014010111461600,7.863461669921875,-394.47637939453125,-158.64671325683594,-52.155120849609375
1751014010121502700,7.873502685546875,-394.57958984375,-158.82220458984375,-52.66078186035156
1751014010131543600,7.88354345703125,-394.3069763183594,-158.78443908691406,-52.44541931152344
1751014010141583600,7.89358349609375,-394.46124267578125,-158.85287475585938,-52.639923095703125
1751014010151624700,7.903624755859375,-394.9951171875,-158.7225799560547,-52.67462158203125
1751014010161665800,7.913665771484375,-394.65008544921875,-158.81678771972656,-52.596710205078125
1751014010171707600,7.923707763671875,-394.3230285644531,-158.65237426757812,-52.634033203125
1751014010181748700,7.933748779296875,-394.6080322265625,-158.6424102783203,-52.88249206542969
1751014010191789600,7.94378955078125,-394.4422912597656,-158.37123107910156,-52.40850830078125
1751014010201829600,7.95382958984375,-394.4854736328125,-158.34579467773438,-52.45704650878906
1751014010211869700,7.96386962890625,-394.8731689453125,-158.68968200683594,-52.4876708984375
1751014010221909800,7.97390966796875,-394.83343505859375,-158.80419921875,-52.71955871582031
1751014010231948500,7.983948486328125,-394.82421875,-158.6725311279297,-52.716827392578125
1751014010241987600,7.993987548828125,-394.9687805175781,-158.7101287841797,-52.70164489746094
1751014010252026600,8.004026611328126,-395.0209655761719,-158.23202514648438,-52.31898498535156
1751014010262064600,8.014064697265624,-395.2520751953125,-158.52232360839844,-52.514251708984375
1751014010272103700,8.024103759765625,-394.76324462890625,-158.4376983642578,-52.4942626953125
1751014010282143500,8.0341435546875,-394.56634521484375,-158.1648712158203,-52.42201232910156
1751014010292183600,8.04418359375,-394.68206787109375,-158.4320831298828,-52.5054931640625
1751014010302222800,8.054222900390625,-394.816162109375,-158.61148071289062,-52.79296875
1751014010312262700,8.0642626953125,-394.6335754394531,-158.6584014892578,-52.538787841796875
1751014010322302500,8.074302490234375,-394.5222473144531,-158.63584899902344,-52.514495849609375
1751014010332341800,8.084341796875,-394.37689208984375,-158.66357421875,-52.55403137207031
1751014010342381800,8.0943818359375,-394.8172607421875,-158.5906982421875,-52.721710205078125
1751014010352422700,8.104422607421874,-395.0220031738281,-158.5988311767578,-52.57496643066406
1751014010362461400,8.11446142578125,-395.2841796875,-158.30465698242188,-52.54527282714844
1751014010372499700,8.124499755859375,-394.6249694824219,-158.41749572753906,-52.708221435546875
1751014010382538500,8.13453857421875,-394.81488037109375,-158.50502014160156,-52.545654296875
1751014010392577500,8.14457763671875,-394.30029296875,-157.9302215576172,-52.59600830078125
1751014010402616800,8.154616943359375,-394.9466552734375,-158.2901611328125,-52.511993408203125
1751014010412657700,8.16465771484375,-394.6803283691406,-158.4221954345703,-52.42103576660156
1751014010422697700,8.17469775390625,-394.65380859375,-158.38925170898438,-52.14256286621094
1751014010432738800,8.18473876953125,-394.756591796875,-158.51104736328125,-52.73193359375
1751014010442778600,8.194778564453125,-394.66558837890625,-158.19229125976562,-52.171234130859375
1751014010452818700,8.204818603515625,-394.79241943359375,-158.4949493408203,-52.47013854980469
1751014010462859500,8.214859619140626,-395.0302734375,-158.64682006835938,-52.40574645996094
1751014010472900600,8.224900634765625,-394.6534729003906,-158.24998474121094,-52.68023681640625
1751014010482941700,8.234941650390626,-394.7998046875,-158.6243133544922,-52.60533142089844
1751014010492981800,8.244981689453125,-394.87188720703125,-158.6417236328125,-52.69451904296875
1751014010503023600,8.255023681640624,-394.89068603515625,-158.8690643310547,-52.581573486328125
1751014010513064700,8.265064697265625,-394.8822937011719,-158.35885620117188,-52.21075439453125
1751014010523104800,8.275104736328124,-394.7851867675781,-158.82533264160156,-52.21075439453125
1751014010533144800,8.285144775390625,-394.8898010253906,-158.5373077392578,-52.23869323730469
1751014010543185700,8.295185546875,-394.46636962890625,-158.4253387451172,-52.42503356933594
1751014010553224400,8.305224365234375,-394.83941650390625,-158.6160888671875,-52.4715576171875
1751014010563264500,8.315264404296874,-394.75860595703125,-158.6949005126953,-52.53056335449219
1751014010573303800,8.3253037109375,-395.16064453125,-158.59278869628906,-52.59443664550781
1751014010583343900,8.33534375,-394.322265625,-158.5039825439453,-52.89982604980469
1751014010593383400,8.345383544921875,-394.34039306640625,-158.66046142578125,-52.594146728515625
1751014010603422700,8.355422607421875,-394.54132080078125,-158.6932830810547,-52.94807434082031
1751014010613461800,8.365461669921874,-394.8641052246094,-158.29751586914062,-52.73219299316406
1751014010623500500,8.37550048828125,-394.07373046875,-158.51344299316406,-52.971649169921875
1751014010633539600,8.38553955078125,-394.4782409667969,-158.22854614257812,-52.96977233886719
1751014010643579000,8.395578857421874,-394.89727783203125,-158.5959930419922,-52.69108581542969
1751014010653618700,8.40561865234375,-394.382080078125,-158.7589111328125,-52.59515380859375
1751014010663658500,8.415658447265624,-394.29937744140625,-158.52064514160156,-52.47438049316406
1751014010673697800,8.42569775390625,-394.4334716796875,-158.27554321289062,-52.69537353515625
1751014010683738600,8.435738525390626,-394.8114013671875,-158.6320343017578,-53.00022888183594
1751014010693777700,8.445777587890625,-394.1507263183594,-158.49766540527344,-52.95826721191406
1751014010703818500,8.455818603515626,-394.537109375,-158.4947052001953,-52.87788391113281
1751014010713858600,8.465858642578125,-394.2890625,-158.3797607421875,-52.488555908203125
1751014010723898600,8.475898681640626,-394.36895751953125,-158.42788696289062,-52.65705871582031
1751014010733938700,8.485938720703125,-394.9097595214844,-158.67271423339844,-52.8076171875
1751014010743979800,8.495979736328126,-394.7315368652344,-158.7022247314453,-52.73387145996094
1751014010754019800,8.506019775390625,-395.0694580078125,-158.6982879638672,-52.670562744140625
1751014010764060700,8.516060791015626,-394.8332214355469,-158.28656005859375,-52.82060241699219
1751014010774100700,8.526100830078125,-394.6656494140625,-158.48345947265625,-52.90858459472656
1751014010784140500,8.536140625,-394.53564453125,-158.6489715576172,-52.95198059082031
1751014010794180600,8.5461806640625,-394.7804260253906,-158.62879943847656,-52.94258117675781
1751014010804221700,8.5562216796875,-394.66192626953125,-158.96563720703125,-52.8687744140625
1751014010814260700,8.5662607421875,-394.5950927734375,-158.60108947753906,-52.66539001464844
1751014010824301800,8.5763017578125,-394.50213623046875,-158.71437072753906,-52.850433349609375
1751014010834342000,8.586341796875,-394.9992370605469,-158.64341735839844,-52.88822937011719
1751014010844381700,8.596381591796876,-394.8033447265625,-158.7040557861328,-53.01612854003906
1751014010854420700,8.606420654296874,-394.34332275390625,-158.81591796875,-52.59199523925781
1751014010864461600,8.616461669921875,-394.473876953125,-158.86517333984375,-53.01325988769531
1751014010874499600,8.62649951171875,-394.8375549316406,-158.32534790039062,-53.120880126953125
1751014010884539600,8.63653955078125,-395.07379150390625,-159.11900329589844,-53.02931213378906
1751014010894579700,8.646579833984376,-395.23504638671875,-159.0630340576172,-52.61656188964844
1751014010904620800,8.656620849609375,-395.1539306640625,-159.00511169433594,-53.0101318359375
1751014010914660900,8.666660888671874,-394.5557861328125,-158.9314727783203,-52.45442199707031
1751014010924700700,8.67670068359375,-394.3216857910156,-158.99554443359375,-52.72662353515625
1751014010934740700,8.68674072265625,-395.3166809082031,-158.8218994140625,-52.753387451171875
1751014010944779000,8.696779052734374,-394.602783203125,-158.8162841796875,-52.79547119140625
1751014010954817800,8.70681787109375,-394.59271240234375,-158.788818359375,-52.88734436035156
1751014010964857900,8.71685791015625,-395.33453369140625,-158.88037109375,-52.90472412109375
1751014010974898700,8.726898681640625,-395.04901123046875,-158.85134887695312,-52.58538818359375
1751014010984940800,8.73694091796875,-395.031494140625,-158.74305725097656,-52.68255615234375
1751014010994982000,8.74698193359375,-395.32745361328125,-158.74595642089844,-52.74871826171875
1751014011005023700,8.757023681640625,-394.7369079589844,-159.1209259033203,-52.58567810058594
1751014011015064800,8.76706494140625,-394.709716796875,-159.3208465576172,-52.59373474121094
1751014011025106000,8.77710595703125,-395.2571105957031,-159.07733154296875,-52.65773010253906
1751014011035145700,8.787145751953124,-394.4263610839844,-159.06321716308594,-52.58821105957031
1751014011045186800,8.797186767578125,-394.7105712890625,-158.8587646484375,-52.57893371582031
1751014011055225900,8.807225830078124,-395.0057678222656,-159.06353759765625,-52.6490478515625
1751014011065267000,8.817266845703125,-395.045166015625,-159.3772430419922,-52.52836608886719
1751014011075307000,8.82730712890625,-394.87908935546875,-158.80633544921875,-52.458892822265625
1751014011085347800,8.837347900390625,-394.3729248046875,-159.1703643798828,-52.846923828125
1751014011095389000,8.847388916015625,-394.851318359375,-158.9774627685547,-52.845306396484375
1751014011105427700,8.857427734375,-395.02667236328125,-158.65084838867188,-52.85667419433594
1751014011115467800,8.8674677734375,-394.85321044921875,-158.60650634765625,-52.71217346191406
1751014011125508900,8.8775087890625,-394.95684814453125,-158.42660522460938,-52.78929138183594
1751014011135549700,8.8875498046875,-394.8446044921875,-158.83982849121094,-52.719451904296875
1751014011145589800,8.89758984375,-394.77508544921875,-158.7710723876953,-52.57106018066406
1751014011155629800,8.9076298828125,-394.91943359375,-158.67001342773438,-52.73802185058594
1751014011165672000,8.917671875,-394.6440734863281,-158.6528778076172,-52.718017578125
1751014011175711000,8.9277109375,-394.83917236328125,-158.73355102539062,-52.68669128417969
1751014011185751800,8.937751708984376,-394.76904296875,-158.99884033203125,-52.8060302734375
1751014011195791600,8.94779150390625,-394.5400390625,-158.5947265625,-52.82075500488281
1751014011205831700,8.957831787109376,-395.14990234375,-158.8313751220703,-52.78546142578125
1751014011215871700,8.967871826171875,-394.8255615234375,-158.69699096679688,-52.8984375
1751014011225911800,8.977911865234375,-394.8968200683594,-158.47300720214844,-53.13777160644531
1751014011235954000,8.987953857421875,-394.7073974609375,-158.98397827148438,-52.64793395996094
1751014011245993700,8.99799365234375,-395.2460632324219,-158.58935546875,-53.523345947265625
1751014011256033800,9.00803369140625,-394.41973876953125,-158.5481414794922,-52.866363525390625
1751014011266075000,9.018074951171876,-394.7539978027344,-158.58595275878906,-53.361602783203125
1751014011276115000,9.028114990234375,-394.62164306640625,-158.53176879882812,-53.25718688964844
1751014011286151000,9.03815087890625,-394.84381103515625,-159.04576110839844,-53.279754638671875
1751014011296196900,9.04819677734375,-395.1309814453125,-158.394775390625,-53.17521667480469
1751014011306239000,9.058239013671875,-394.7313232421875,-158.5974884033203,-53.504638671875
1751014011316279800,9.06827978515625,-394.8614807128906,-158.61740112304688,-53.03538513183594
1751014011326321000,9.07832080078125,-394.797607421875,-158.6304168701172,-53.238250732421875
1751014011336361000,9.08836083984375,-394.8471374511719,-159.0270233154297,-53.04078674316406
1751014011346399700,9.098399658203125,-395.06549072265625,-158.34170532226562,-53.29638671875
1751014011356438800,9.108438720703125,-394.66510009765625,-158.5271453857422,-52.63890075683594
1751014011366478800,9.118478759765624,-394.50469970703125,-158.529052734375,-52.483978271484375
1751014011376518000,9.128517822265625,-394.61749267578125,-158.59829711914062,-52.65370178222656
1751014011386558700,9.138558837890624,-394.9305725097656,-158.59027099609375,-52.814422607421875
1751014011396597800,9.14859765625,-395.15643310546875,-158.82469177246094,-52.912261962890625
1751014011406638800,9.158638916015626,-394.999267578125,-158.7837677001953,-52.93833923339844
1751014011416679000,9.168678955078125,-394.68389892578125,-158.71986389160156,-52.855438232421875
1751014011426717700,9.1787177734375,-395.1797790527344,-158.75222778320312,-53.228973388671875
1751014011436756700,9.1887568359375,-395.18353271484375,-158.46539306640625,-53.07075500488281
1751014011446797800,9.1987978515625,-395.47991943359375,-158.6659698486328,-53.1719970703125
1751014011456839000,9.2088388671875,-395.476318359375,-158.4256134033203,-52.91584777832031
1751014011466880800,9.218880859375,-395.0734558105469,-158.56640625,-52.89007568359375
1751014011476921900,9.228921875,-395.4854431152344,-158.69451904296875,-52.982940673828125
1751014011486962700,9.238962646484374,-395.4334716796875,-158.75643920898438,-52.92674255371094
1751014011497002800,9.249002685546875,-394.99566650390625,-158.5797882080078,-53.12603759765625
1751014011507043800,9.2590439453125,-395.3109130859375,-158.68113708496094,-52.74674987792969
1751014011517085000,9.2690849609375,-394.82611083984375,-158.59140014648438,-52.956085205078125
1751014011527125800,9.279125732421875,-394.83990478515625,-158.84432983398438,-52.63111877441406
1751014011537166800,9.289166748046876,-394.61224365234375,-158.51394653320312,-52.64820861816406
1751014011547207000,9.29920703125,-394.34613037109375,-158.6112518310547,-52.83576965332031
1751014011557248000,9.309248046875,-394.48681640625,-158.5986785888672,-52.678314208984375
1751014011567288800,9.319288818359375,-394.6394348144531,-158.61544799804688,-52.70442199707031
1751014011577329000,9.329328857421874,-394.78204345703125,-158.28732299804688,-52.32110595703125
1751014011587368700,9.33936865234375,-395.0844421386719,-158.5802459716797,-52.60255432128906
1751014011597409800,9.349409912109374,-394.6534423828125,-158.35235595703125,-53.0511474609375
1751014011607449900,9.359449951171875,-395.17315673828125,-158.30519104003906,-52.720245361328125
1751014011617490700,9.36949072265625,-394.937744140625,-158.44386291503906,-52.41937255859375
1751014011627532800,9.37953271484375,-394.32244873046875,-158.27821350097656,-52.465057373046875
1751014011637573600,9.38957373046875,-394.0701904296875,-158.23199462890625,-52.67918395996094
1751014011647614700,9.39961474609375,-394.2423095703125,-158.6580352783203,-52.971771240234375
1751014011657656000,9.409656005859375,-393.7446594238281,-158.1295623779297,-52.38462829589844
1751014011667698000,9.419697998046875,-394.38824462890625,-158.42515563964844,-52.44171142578125
1751014011677739000,9.429739013671876,-394.3712463378906,-158.07228088378906,-52.31709289550781
1751014011687779800,9.43977978515625,-394.56988525390625,-158.34683227539062,-52.52587890625
1751014011697822000,9.449822021484374,-394.8004455566406,-158.27880859375,-52.516876220703125
1751014011707862800,9.45986279296875,-394.3685302734375,-158.1786651611328,-52.649017333984375
1751014011717905000,9.46990478515625,-394.82366943359375,-158.3690948486328,-52.5794677734375
1751014011727945000,9.479945068359376,-394.46466064453125,-158.79286193847656,-52.604400634765625
1751014011737986800,9.48998681640625,-394.2454833984375,-158.47401428222656,-52.28184509277344
1751014011748028700,9.500028564453125,-394.3442077636719,-158.14193725585938,-52.232818603515625
1751014011758071000,9.510071044921874,-394.273681640625,-158.42466735839844,-52.61558532714844
1751014011768113000,9.52011279296875,-394.2366027832031,-158.27490234375,-52.46757507324219
1751014011778153000,9.530153076171874,-394.5818176269531,-158.1354217529297,-52.57586669921875
1751014011788194000,9.540194091796875,-394.5838623046875,-158.3806610107422,-52.48936462402344
1751014011798235000,9.55023486328125,-394.568115234375,-158.29843139648438,-52.458740234375
1751014011808276000,9.56027587890625,-394.60772705078125,-158.02870178222656,-52.54795837402344
1751014011818317000,9.570317138671875,-394.47320556640625,-158.21299743652344,-52.608612060546875
1751014011828358000,9.58035791015625,-394.63690185546875,-158.33209228515625,-52.64122009277344
1751014011838399000,9.59039892578125,-394.8671875,-158.4907989501953,-52.50018310546875
1751014011848440800,9.60044091796875,-394.628173828125,-158.18011474609375,-52.66947937011719
1751014011858481000,9.61048095703125,-394.1588134765625,-158.0404815673828,-52.30946350097656
1751014011868522000,9.62052197265625,-394.4199523925781,-158.1381378173828,-52.45298767089844
1751014011878562800,9.630562744140626,-395.005615234375,-158.39566040039062,-52.463653564453125
1751014011888605000,9.64060498046875,-394.9464111328125,-158.40899658203125,-52.48011779785156
1751014011898646800,9.650646728515625,-395.41796875,-158.62466430664062,-52.638427734375
1751014011908689000,9.66068896484375,-395.1669006347656,-158.1536865234375,-52.49224853515625
1751014011918730800,9.670730712890625,-395.000244140625,-158.37205505371094,-52.58988952636719
1751014011928772600,9.680772705078125,-394.6968994140625,-158.1782684326172,-52.59471130371094
1751014011938815000,9.69081494140625,-394.97344970703125,-158.32640075683594,-52.71917724609375
1751014011948856800,9.70085693359375,-394.7706298828125,-158.27671813964844,-52.60209655761719
1751014011958898000,9.71089794921875,-394.8943786621094,-158.30039978027344,-52.70304870605469
1751014011968938800,9.720938720703124,-394.64019775390625,-157.86575317382812,-52.43711853027344
1751014011978979800,9.730979736328125,-395.1379699707031,-158.7147674560547,-52.87394714355469
1751014011989021700,9.741021728515625,-394.7950439453125,-158.33724975585938,-52.64418029785156
1751014011999061800,9.751061767578125,-395.34552001953125,-158.79574584960938,-52.66810607910156
1751014012009102800,9.761102783203125,-395.12286376953125,-158.3410186767578,-52.745574951171875
1751014012019143000,9.771142822265626,-394.9688415527344,-158.40220642089844,-52.74726867675781
1751014012029183000,9.781182861328125,-394.9677429199219,-158.35157775878906,-52.7178955078125
1751014012039223800,9.791223876953126,-394.9564208984375,-158.30311584472656,-52.7078857421875
1751014012049263600,9.801263671875,-394.7841796875,-158.41746520996094,-52.93290710449219
1751014012059303700,9.8113037109375,-394.8585205078125,-158.14321899414062,-52.8741455078125
1751014012069344800,9.8213447265625,-395.114990234375,-157.88221740722656,-52.723297119140625
1751014012079385900,9.8313857421875,-395.0205078125,-158.43382263183594,-52.93211364746094
1751014012089426700,9.8414267578125,-394.64739990234375,-158.42593383789062,-52.92216491699219
1751014012099468800,9.85146875,-394.2847900390625,-158.3959503173828,-53.01161193847656
1751014012109512000,9.861511962890624,-394.891357421875,-158.20448303222656,-52.92652893066406
1751014012119553800,9.8715537109375,-394.78106689453125,-158.3800048828125,-53.322601318359375
1751014012129595000,9.881594970703125,-395.0248107910156,-158.4060821533203,-52.74249267578125
1751014012139635700,9.8916357421875,-394.67578125,-158.29090881347656,-52.84013366699219
1751014012149676800,9.9016767578125,-394.6396484375,-158.28941345214844,-52.86456298828125
1751014012159718000,9.9117177734375,-394.5804443359375,-158.38734436035156,-53.06678771972656
1751014012169758700,9.9217587890625,-394.3677062988281,-158.19606018066406,-52.794403076171875
1751014012179800800,9.93180078125,-395.26239013671875,-158.43685913085938,-52.75157165527344
1751014012189842700,9.9418427734375,-394.6738586425781,-158.12832641601562,-52.71131896972656
1751014012199885800,9.9518857421875,-395.28662109375,-158.1140899658203,-53.15412902832031
1751014012209922800,9.9619228515625,-394.7667541503906,-158.4794158935547,-53.281341552734375
1751014012219970800,9.971970703125,-394.21502685546875,-158.26063537597656,-52.963836669921875
1751014012230014000,9.982013916015624,-394.3539733886719,-157.9544219970703,-53.3323974609375
1751014012240054800,9.9920546875,-394.6611022949219,-157.97454833984375,-53.03509521484375
1751014012250097700,10.00209765625,-394.7662353515625,-157.90548706054688,-53.416473388671875
1751014012260140800,10.012140869140625,-394.2418212890625,-158.29234313964844,-53.16688537597656
1751014012270183000,10.022182861328124,-394.56365966796875,-158.38406372070312,-53.48179626464844
1751014012280224800,10.032224853515626,-394.43353271484375,-158.28041076660156,-53.51423645019531
1751014012290267600,10.042267578125,-394.28424072265625,-158.27828979492188,-53.12998962402344
1751014012300310800,10.052310791015625,-394.28594970703125,-158.0991973876953,-53.182037353515625
1751014012310353700,10.062353759765625,-394.48406982421875,-157.7473907470703,-53.10752868652344
1751014012320396800,10.072396728515624,-395.03271484375,-158.19900512695312,-53.30841064453125
1751014012330439700,10.082439697265626,-394.5534973144531,-157.75961303710938,-53.343505859375
1751014012340482800,10.09248291015625,-394.6763916015625,-158.05064392089844,-53.309783935546875
1751014012350526000,10.10252587890625,-394.8248596191406,-158.0327911376953,-53.373779296875
1751014012360568800,10.11256884765625,-394.1346435546875,-158.1815185546875,-53.38087463378906
1751014012370610700,10.122610595703126,-394.65338134765625,-157.81549072265625,-53.33526611328125
1751014012380653800,10.13265380859375,-394.3565673828125,-158.07728576660156,-53.52490234375
1751014012390696700,10.14269677734375,-394.47772216796875,-157.9818572998047,-53.15095520019531
1751014012400739800,10.15273974609375,-395.00592041015625,-158.37603759765625,-53.38511657714844
1751014012410782000,10.162781982421874,-394.75030517578125,-158.00758361816406,-53.41099548339844
1751014012420824800,10.172824951171876,-394.6772155761719,-158.1664276123047,-53.30885314941406
1751014012430866700,10.18286669921875,-394.14447021484375,-158.11953735351562,-53.025726318359375
1751014012440909800,10.192909912109375,-394.08917236328125,-158.1531982421875,-53.43940734863281
1751014012450952000,10.202951904296874,-394.1282653808594,-157.99462890625,-52.83001708984375
1751014012460993800,10.212993896484376,-394.8424072265625,-158.5059051513672,-53.37889099121094
1751014012471035600,10.22303564453125,-394.35760498046875,-158.20361328125,-52.98399353027344
1751014012481078800,10.233078857421875,-394.3222351074219,-158.0874481201172,-53.10334777832031
1751014012491119900,10.243119873046876,-394.588134765625,-158.70062255859375,-52.731536865234375
1751014012501161000,10.253160888671875,-394.1344909667969,-158.7191619873047,-52.96852111816406
1751014012511202800,10.263202880859374,-394.005615234375,-158.33615112304688,-53.08293151855469
1751014012521244000,10.273243896484376,-394.7424011230469,-158.70724487304688,-53.011688232421875
1751014012531284700,10.28328466796875,-394.8321228027344,-158.42684936523438,-53.048858642578125
1751014012541323800,10.29332373046875,-394.6055908203125,-158.3727264404297,-52.93113708496094
1751014012551363600,10.303363525390624,-394.129150390625,-158.4728546142578,-52.75384521484375
1751014012561403600,10.313403564453125,-394.60552978515625,-158.66473388671875,-52.9862060546875
1751014012571445800,10.32344580078125,-394.16021728515625,-158.3848419189453,-52.65263366699219
1751014012581487900,10.33348779296875,-394.81842041015625,-158.36361694335938,-52.17247009277344
1751014012591529700,10.34352978515625,-394.4892883300781,-158.40000915527344,-52.45246887207031
1751014012601572900,10.35357275390625,-394.98004150390625,-158.23077392578125,-52.139556884765625
1751014012611614700,10.36361474609375,-394.589599609375,-158.31610107421875,-52.16880798339844
1751014012621655800,10.37365576171875,-395.1387634277344,-158.49227905273438,-52.0631103515625
1751014012631699000,10.383698974609375,-394.94378662109375,-158.56553649902344,-52.073699951171875
1751014012641739800,10.39373974609375,-395.1338195800781,-158.6722412109375,-52.26319885253906
1751014012651780900,10.40378076171875,-395.28338623046875,-158.50564575195312,-52.19569396972656
1751014012661822700,10.41382275390625,-395.46380615234375,-158.71893310546875,-52.351959228515625
1751014012671864800,10.42386474609375,-395.4782409667969,-158.7257080078125,-52.61341857910156
1751014012681905700,10.43390576171875,-394.9721984863281,-158.73992919921875,-52.2685546875
1751014012691947800,10.44394775390625,-395.5611572265625,-159.13771057128906,-52.32647705078125
1751014012701990000,10.453989990234374,-395.61785888671875,-158.62332153320312,-52.24314880371094
1751014012712027000,10.46402685546875,-395.27874755859375,-158.74461364746094,-52.302093505859375
1751014012722074600,10.47407470703125,-395.6981201171875,-158.8836669921875,-52.47785949707031
1751014012732110800,10.48411083984375,-395.64459228515625,-158.63209533691406,-52.352691650390625
1751014012742157800,10.49415771484375,-395.5453796386719,-159.39418029785156,-52.658203125
1751014012752200000,10.504199951171875,-395.53515625,-158.72354125976562,-52.42555236816406
1751014012762240800,10.51424072265625,-395.5748291015625,-158.83731079101562,-52.74092102050781
1751014012772281900,10.52428173828125,-395.758056640625,-159.02462768554688,-52.60337829589844
1751014012782323000,10.534322998046875,-395.8086853027344,-159.3182373046875,-52.55670166015625
1751014012792363800,10.54436376953125,-395.1676940917969,-159.507568359375,-52.76316833496094
1751014012802403600,10.554403564453125,-395.14166259765625,-159.5898895263672,-52.14924621582031
1751014012812444700,10.564444580078124,-395.1160888671875,-159.3760223388672,-52.05279541015625
1751014012822484700,10.574484619140625,-395.39007568359375,-159.62840270996094,-52.481048583984375
1751014012832526600,10.584526611328124,-395.63629150390625,-159.4495849609375,-52.204925537109375
1751014012842567700,10.594567626953125,-395.4627990722656,-159.1654510498047,-51.921417236328125
1751014012852607700,10.604607666015625,-395.121337890625,-159.4108123779297,-52.32684326171875
1751014012862649600,10.614649658203126,-395.10186767578125,-159.49801635742188,-52.073699951171875
1751014012872690700,10.624690673828125,-396.12042236328125,-159.26516723632812,-52.373779296875
1751014012882731800,10.634731689453124,-395.64398193359375,-159.27882385253906,-52.1263427734375
1751014012892771800,10.644771728515625,-395.7330322265625,-159.0174560546875,-52.46807861328125
1751014012902811600,10.654811767578124,-395.5520935058594,-159.3551025390625,-52.4835205078125
1751014012912851500,10.6648515625,-395.1551513671875,-159.1958465576172,-51.946044921875
1751014012922891300,10.674891357421876,-395.23321533203125,-159.1312713623047,-52.188934326171875
1751014012932932400,10.684932373046875,-395.62408447265625,-159.16680908203125,-52.53025817871094
1751014012942971400,10.694971435546876,-395.3163757324219,-159.31813049316406,-52.221466064453125
1751014012953011500,10.705011474609375,-395.08087158203125,-159.11520385742188,-52.571258544921875
1751014012963053600,10.715053466796874,-395.00909423828125,-159.08468627929688,-52.03507995605469
1751014012973093600,10.72509375,-395.3405456542969,-159.21507263183594,-52.06721496582031
1751014012983133400,10.735133544921876,-395.6187744140625,-158.99819946289062,-52.506988525390625
1751014012993173200,10.74517333984375,-395.31402587890625,-158.7975616455078,-52.197540283203125
1751014013003213300,10.75521337890625,-395.2969970703125,-159.07571411132812,-52.7313232421875
1751014013013253400,10.76525341796875,-395.8123779296875,-158.8974151611328,-52.608673095703125
1751014013023294500,10.77529443359375,-395.59368896484375,-159.10330200195312,-52.651092529296875
1751014013033334500,10.78533447265625,-395.0065612792969,-159.01846313476562,-52.49870300292969
1751014013043375600,10.795375732421874,-395.20526123046875,-159.14137268066406,-52.3638916015625
1751014013053415400,10.80541552734375,-395.0101623535156,-158.751953125,-52.40602111816406
1751014013063455200,10.815455322265626,-395.20269775390625,-158.92796325683594,-52.3917236328125
1751014013073495300,10.825495361328125,-395.33551025390625,-159.11502075195312,-52.3785400390625
1751014013083535400,10.835535400390626,-395.47625732421875,-158.95555114746094,-52.46034240722656
1751014013093574400,10.845574462890625,-395.2606201171875,-158.6370391845703,-52.19660949707031
1751014013103615500,10.855615478515626,-395.1834411621094,-159.18544006347656,-52.60813903808594
1751014013113655600,10.865655517578125,-395.7422180175781,-159.27859497070312,-52.72578430175781
1751014013123695400,10.8756953125,-395.30419921875,-159.42617797851562,-52.54911804199219
1751014013133735400,10.8857353515625,-395.2125244140625,-159.2381134033203,-52.730560302734375
1751014013143774500,10.8957744140625,-395.4729919433594,-159.14710998535156,-52.50724792480469
1751014013153814500,10.905814453125,-394.9391174316406,-159.1351318359375,-52.45428466796875
1751014013163855600,10.915855712890625,-395.12933349609375,-159.27313232421875,-52.45674133300781
1751014013173895400,10.9258955078125,-394.825927734375,-159.11050415039062,-52.31736755371094
1751014013183936300,10.935936279296875,-395.16204833984375,-159.10467529296875,-52.38145446777344
1751014013193977300,10.945977294921875,-395.1124572753906,-159.13365173339844,-52.47015380859375
1751014013204018400,10.956018310546876,-394.98046875,-159.15966796875,-52.720947265625
1751014013214059300,10.966059326171875,-395.2574462890625,-159.13499450683594,-52.30682373046875
1751014013224100400,10.976100341796876,-395.547119140625,-159.01121520996094,-52.18756103515625
1751014013234141400,10.986141357421875,-395.0704345703125,-159.28416442871094,-51.8411865234375
1751014013244181500,10.996181396484374,-395.1617431640625,-159.2497100830078,-52.214996337890625
1751014013254222300,11.006222412109375,-395.1668701171875,-159.03329467773438,-52.33381652832031
1751014013264262400,11.016262451171874,-395.41094970703125,-159.1230926513672,-52.13188171386719
1751014013274302500,11.026302490234375,-394.93890380859375,-159.2939910888672,-51.933807373046875
1751014013284341500,11.036341552734376,-395.2470703125,-159.12063598632812,-51.91375732421875
1751014013294381300,11.04638134765625,-395.57391357421875,-159.1758575439453,-51.85801696777344
1751014013304421400,11.05642138671875,-395.6652526855469,-159.22259521484375,-51.75215148925781
1751014013314462500,11.06646240234375,-395.3256530761719,-158.8578338623047,-51.84931945800781
1751014013324502500,11.07650244140625,-395.79132080078125,-159.1378631591797,-51.9349365234375
1751014013334542600,11.08654248046875,-395.41436767578125,-159.3351287841797,-51.97721862792969
1751014013344583400,11.09658349609375,-395.3397216796875,-159.3098907470703,-51.64695739746094
1751014013354623500,11.10662353515625,-395.1274719238281,-159.11288452148438,-51.375640869140625
1751014013364662500,11.11666259765625,-395.2955017089844,-159.34054565429688,-51.6171875
1751014013374702300,11.126702392578125,-395.57171630859375,-159.564208984375,-51.765167236328125
1751014013384742400,11.136742431640625,-395.548828125,-159.4694366455078,-52.06575012207031
1751014013394781400,11.146781494140624,-395.410400390625,-159.23487854003906,-51.649932861328125
1751014013404821500,11.156821533203125,-395.21173095703125,-159.19461059570312,-51.79559326171875
1751014013414861600,11.166861572265624,-395.290283203125,-159.32073974609375,-51.78480529785156
1751014013424901400,11.1769013671875,-395.80908203125,-159.16575622558594,-51.966522216796875
1751014013434942500,11.1869423828125,-395.6146240234375,-159.18338012695312,-52.11846923828125
1751014013444980500,11.19698046875,-395.091064453125,-159.1519317626953,-51.80804443359375
