time,seconds_elapsed,z,y,x
1751013735231646500,0.116646484375,-0.08445043861865997,-0.10046295821666718,-0.05196785926818848
1751013735241589500,0.126589599609375,-0.07906312495470047,-0.08915144950151443,-0.05969022959470749
1751013735251532500,0.136532470703125,-0.06843924522399902,-0.08218594640493393,-0.048826396465301514
1751013735261476600,0.1464765625,-0.04578133672475815,-0.06780354678630829,-0.02557593397796154
1751013735271419600,0.156419677734375,-0.018261561170220375,-0.055505603551864624,0.011020160280168056
1751013735281363500,0.166363525390625,0.014799452386796474,-0.058147724717855453,0.0515766404569149
1751013735291306500,0.176306396484375,0.0340152233839035,-0.07139881700277328,0.08831148594617844
1751013735301249500,0.18624951171875,0.04459037259221077,-0.07906179875135422,0.11999085545539856
1751013735311193300,0.196193359375,0.04002624377608299,-0.07124888151884079,0.13485102355480194
1751013735321136400,0.206136474609375,0.01575526036322117,-0.06420561671257019,0.11805979162454605
1751013735331080400,0.21608056640625,-0.011002050712704659,-0.055684302002191544,0.07859707623720169
1751013735341023500,0.2260234375,-0.024082433432340622,-0.038350850343704224,0.03187191113829613
1751013735350967300,0.23596728515625,-0.014672951772809029,-0.020546553656458855,-0.0026101642288267612
1751013735360910300,0.245910400390625,-0.0013664679136127234,0.0012748552253469825,-0.03218909353017807
1751013735370853400,0.255853271484375,0.01745622232556343,0.02455035038292408,-0.039993755519390106
1751013735380797400,0.26579736328125,0.04806819185614586,0.037879470735788345,-0.030656978487968445
1751013735390740500,0.275740478515625,0.07326595485210419,0.03869839385151863,-0.011110175400972366
1751013735400684300,0.285684326171875,0.07772062718868256,0.03690209239721298,0.008665925823152065
1751013735410627300,0.29562744140625,0.07544202357530594,0.03398113697767258,0.04277009889483452
1751013735420570400,0.3055703125,0.0853218212723732,0.03466476872563362,0.08805129677057266
1751013735430514400,0.315514404296875,0.10553095489740372,0.02949078008532524,0.13154710829257965
1751013735440457500,0.32545751953125,0.121760793030262,0.024942368268966675,0.15870869159698486
1751013735450401500,0.335401611328125,0.13908705115318298,0.010268083773553371,0.17248815298080444
1751013735460344600,0.345344482421875,0.1331103891134262,-0.01506816502660513,0.1625247299671173
1751013735470288600,0.35528857421875,0.09894495457410812,-0.02991076000034809,0.1257009357213974
1751013735480231400,0.3652314453125,0.05206906050443649,-0.03838413953781128,0.06524930894374847
1751013735490174500,0.375174560546875,0.006450442597270012,-0.036379579454660416,0.006422212813049555
1751013735500118500,0.385118408203125,-0.033850375562906265,-0.013438044115900993,-0.026157300919294357
1751013735510061600,0.3950615234375,-0.05608643963932991,0.011806592345237732,-0.03272252529859543
1751013735520005400,0.40500537109375,-0.06338855624198914,0.028206337243318558,-0.02538844756782055
1751013735529948400,0.414948486328125,-0.057424675673246384,0.03371428698301315,0.0010836402652785182
1751013735539892500,0.424892578125,-0.04633021354675293,0.03634842112660408,0.029391178861260414
1751013735549835500,0.43483544921875,-0.030466562137007713,0.03440484404563904,0.0503515861928463
1751013735559778600,0.444778564453125,-0.021579060703516006,0.030663901939988136,0.06621044874191284
1751013735569722400,0.454722412109375,-0.023031549528241158,0.024348482489585876,0.05290822312235832
1751013735579665400,0.46466552734375,-0.03477262705564499,0.017039969563484192,0.03549753874540329
1751013735589609500,0.474609375,-0.04254825785756111,0.018432270735502243,0.028019916266202927
1751013735599552500,0.484552490234375,-0.0429791584610939,0.008650213479995728,0.023861391469836235
1751013735609495300,0.494495361328125,-0.038836345076560974,0.0003914846747647971,0.030103573575615883
1751013735619439400,0.504439453125,-0.026440128684043884,-0.00771677540615201,0.042204178869724274
1751013735629382400,0.51438232421875,-0.011491806246340275,-0.0038064562249928713,0.053526874631643295
1751013735639326200,0.524326171875,-0.0008777778712101281,0.019886888563632965,0.05046583712100983
1751013735649269200,0.534269287109375,0.0078571243211627,0.046423159539699554,0.04824795573949814
1751013735659213600,0.544213623046875,0.01076849177479744,0.06048118695616722,0.03770876303315163
1751013735669156600,0.554156494140625,0.013729660771787167,0.06270013004541397,0.04177700728178024
1751013735679099600,0.564099609375,0.015963254496455193,0.04411952570080757,0.04813690111041069
1751013735689043500,0.57404345703125,0.0008080030675046146,0.003835750976577401,0.05034919083118439
1751013735698986500,0.583986572265625,-0.025595374405384064,-0.041728273034095764,0.05315136909484863
1751013735708930600,0.5939306640625,-0.04470515251159668,-0.06824350357055664,0.07090293616056442
1751013735718873600,0.60387353515625,-0.052203815430402756,-0.06894684582948685,0.0826602578163147
1751013735728816400,0.61381640625,-0.05288691818714142,-0.041435856372117996,0.07822556048631668
1751013735738760400,0.623760498046875,-0.05411436781287193,-0.006842459551990032,0.05197451636195183
1751013735748703500,0.633703369140625,-0.05166878551244736,0.03160346671938896,0.010526676662266254
1751013735758647600,0.6436474609375,-0.06374169141054153,0.06508419662714005,-0.02736930549144745
1751013735768590300,0.65359033203125,-0.06895323842763901,0.07090506702661514,-0.04669053852558136
1751013735778534400,0.663534423828125,-0.07031197845935822,0.0720566138625145,-0.043241746723651886
1751013735788477400,0.6734775390625,-0.07065579295158386,0.057427339255809784,-0.019045863300561905
1751013735798420500,0.68342041015625,-0.0736185610294342,0.04029975086450577,0.008991630747914314
1751013735808364300,0.6933642578125,-0.07478289306163788,0.028811940923333168,0.03934261202812195
1751013735818307300,0.703307373046875,-0.07287793606519699,0.03252971172332764,0.06566076725721359
1751013735828251400,0.71325146484375,-0.059957876801490784,0.037999313324689865,0.08631811290979385
1751013735838194400,0.7231943359375,-0.050572894513607025,0.04836779832839966,0.09513450413942337
1751013735848138500,0.733138427734375,-0.03864273428916931,0.05421316996216774,0.08399823307991028
1751013735858081300,0.743081298828125,-0.02960263378918171,0.05327094346284866,0.06605011969804764
1751013735868024300,0.7530244140625,-0.019572369754314423,0.05494873598217964,0.059611931443214417
1751013735877968600,0.76296875,-0.01261006761342287,0.0518576055765152,0.04447665438055992
1751013735887911700,0.77291162109375,-0.008735435083508492,0.05233484506607056,0.02955576218664646
1751013735897855500,0.78285546875,-0.004751611966639757,0.050333213061094284,0.02093537524342537
1751013735907798500,0.792798583984375,-0.008112520910799503,0.046124350279569626,0.026560770347714424
1751013735917741600,0.802741455078125,-0.001713744131848216,0.041139714419841766,0.032044220715761185
1751013735927685400,0.812685302734375,0.008606270886957645,0.027730165049433708,0.0336567647755146
1751013735937628400,0.82262841796875,0.027171699330210686,0.020179836079478264,0.029622606933116913
1751013735947572500,0.832572509765625,0.0477648600935936,0.024490961804986,0.03966698423027992
1751013735957515500,0.842515625,0.055335961282253265,0.02209305204451084,0.04782211780548096
1751013735967459300,0.852459228515625,0.03831383213400841,-0.004172907210886478,0.04694700241088867
1751013735977402400,0.86240234375,-0.004170776344835758,-0.023808127269148827,0.019633889198303223
1751013735987345400,0.872345458984375,-0.05464726686477661,-0.03629276156425476,-0.014365890063345432
1751013735997289500,0.88228955078125,-0.09431398659944534,-0.038845401257276535,-0.04694513976573944
1751013736007232500,0.892232421875,-0.1181628555059433,-0.04577121511101723,-0.06157388165593147
1751013736017176300,0.90217626953125,-0.13543692231178284,-0.033420808613300323,-0.055635031312704086
1751013736027119400,0.912119384765625,-0.12653370201587677,-0.0172069501131773,-0.030016489326953888
1751013736037062400,0.9220625,-0.09917691349983215,-0.008131429553031921,-0.00023542344570159912
1751013736047006500,0.93200634765625,-0.06836973875761032,-0.000428502622526139,0.0334482379257679
1751013736056949500,0.941949462890625,-0.03903767839074135,0.007028880994766951,0.06132886931300163
1751013736066893300,0.951893310546875,-0.016560068354010582,0.0023465112317353487,0.07941945642232895
1751013736076836400,0.96183642578125,-0.000945954816415906,-0.0007451524725183845,0.08076754957437515
1751013736086780700,0.97178076171875,0.003935619257390499,-0.004817392211407423,0.07593204826116562
1751013736096723500,0.981723388671875,0.0033840788528323174,-0.010624414309859276,0.06290892511606216
1751013736106666500,0.99166650390625,-0.0006703176186420023,-0.017345434054732323,0.049316417425870895
1751013736116610600,1.001610595703125,-0.007201453670859337,-0.01732359640300274,0.03598916158080101
1751013736126553600,1.0115537109375,-0.006686398293823004,-0.020124709233641624,0.01996944658458233
1751013736136497400,1.021497314453125,-0.0017907095607370138,-0.025780729949474335,0.002793123247101903
1751013736146440400,1.0314404296875,0.0012961605098098516,-0.03580433502793312,-0.006812898442149162
1751013736156383500,1.041383544921875,0.00749227125197649,-0.04747084528207779,-0.010313090868294239
1751013736166327600,1.05132763671875,0.017912954092025757,-0.05898182839155197,-0.007435279432684183
1751013736176270600,1.0612705078125,0.030220486223697662,-0.0650748759508133,0.0060211410745978355
1751013736186214400,1.07121435546875,0.04303428530693054,-0.06376166641712189,0.01846342906355858
1751013736196157400,1.081157470703125,0.052017394453287125,-0.04914836958050728,0.018222680315375328
1751013736206101500,1.0911015625,0.046180546283721924,-0.03135019913315773,-0.013467338867485523
1751013736216044500,1.10104443359375,0.017234647646546364,-0.015273494645953178,-0.061940863728523254
1751013736225987300,1.1109873046875,-0.01648310199379921,0.0026589001063257456,-0.11307995021343231
1751013736235931400,1.120931396484375,-0.030668163672089577,0.018871957436203957,-0.12937477231025696
1751013736245874400,1.13087451171875,-0.03489433601498604,0.02748728357255459,-0.11211349070072174
1751013736255818200,1.140818359375,-0.027728833258152008,0.024450747296214104,-0.06295366585254669
1751013736265761300,1.15076123046875,-0.008296012878417969,0.006445115897804499,-0.006383596919476986
1751013736275704300,1.160704345703125,0.011454521678388119,0.001669003046117723,0.05558869242668152
1751013736285648400,1.1706484375,0.036144156008958817,-0.001130778226070106,0.08934000134468079
1751013736295591400,1.18059130859375,0.048837047070264816,-0.0029587720055133104,0.10249362140893936
1751013736305535500,1.190535400390625,0.05025438219308853,0.0028583707753568888,0.0875048115849495
1751013736315478500,1.200478515625,0.04218367114663124,0.004010454285889864,0.06375953555107117
1751013736325422600,1.210422607421875,0.03678331524133682,0.001981125446036458,0.02423822693526745
1751013736335365600,1.22036572265625,0.029146965593099594,-0.005673598498106003,-0.014971226453781128
1751013736345308400,1.230308349609375,0.02161181904375553,-0.011726430617272854,-0.0370219349861145
1751013736355252500,1.24025244140625,0.021017134189605713,-0.020203005522489548,-0.04765274003148079
1751013736365195500,1.250195556640625,0.014304104261100292,-0.04047418758273125,-0.05277932435274124
1751013736375139600,1.2601396484375,0.009965282864868641,-0.05782921239733696,-0.03948748856782913
1751013736385082400,1.270082275390625,0.00802943017333746,-0.06777425110340118,-0.01683703623712063
1751013736395026400,1.2800263671875,0.00836525484919548,-0.07694005221128464,0.005012601613998413
1751013736404969500,1.289969482421875,0.007215036079287529,-0.075670525431633,0.021160945296287537
1751013736414912500,1.29991259765625,0.01281433179974556,-0.062254320830106735,0.026023611426353455
1751013736424856300,1.309856201171875,0.022968964651226997,-0.04482579603791237,0.02762390486896038
1751013736434799400,1.31979931640625,0.03482962027192116,-0.021321533247828484,0.016953682526946068
1751013736444743400,1.329743408203125,0.038349784910678864,0.006850183010101318,-0.00415319949388504
1751013736454686500,1.3396865234375,0.04205157980322838,0.03659103438258171,-0.02612188085913658
1751013736464629500,1.34962939453125,0.038545794785022736,0.06145697087049484,-0.04577361419796944
1751013736474573300,1.3595732421875,0.02612001821398735,0.06785494834184647,-0.058884888887405396
1751013736484516400,1.369516357421875,0.013294766657054424,0.0596926249563694,-0.06510017067193985
1751013736494460400,1.37946044921875,-0.006132727488875389,0.04285185784101486,-0.059601277112960815
1751013736504403500,1.389403564453125,-0.009021191857755184,0.02768861874938011,-0.04183586314320564
1751013736514347500,1.399347412109375,-0.01612863689661026,0.006108492612838745,-0.026280073449015617
1751013736524290600,1.40929052734375,-0.0166732519865036,-0.012861203402280807,-0.009458483196794987
1751013736534233600,1.419233642578125,-0.017710553482174873,-0.018557704985141754,0.0030277478508651257
1751013736544177400,1.429177490234375,-0.019333483651280403,-0.01317918486893177,0.013979997485876083
1751013736554120400,1.439120361328125,-0.01918780989944935,0.00047404266661033034,0.01702345907688141
1751013736564064500,1.449064453125,-0.015395734459161758,0.011098990216851234,0.016697753220796585
1751013736574007600,1.459007568359375,-0.005995574407279491,0.02143178880214691,0.01739896461367607
1751013736583951400,1.468951416015625,0.00210709311068058,0.02508750930428505,0.018811238929629326
1751013736593894400,1.478894287109375,0.008896822109818459,0.02075188420712948,0.018014686182141304
1751013736603837400,1.48883740234375,0.004869323689490557,0.016637565568089485,0.0006876281695440412
1751013736613781500,1.498781494140625,0.001978728687390685,0.014012488536536694,-0.01727060042321682
1751013736623724500,1.508724609375,-0.0022034994326531887,0.013601829297840595,-0.03772260993719101
1751013736633672400,1.51867236328125,-0.01974254474043846,0.0075513930059969425,-0.056895241141319275
1751013736643615500,1.528615478515625,-0.025176193565130234,0.003010703483596444,-0.0683383122086525
1751013736653558500,1.53855859375,-0.02449895069003105,0.000035952674807049334,-0.04996543005108833
1751013736663502600,1.548502685546875,-0.01780136674642563,-0.004012318328022957,-0.024538898840546608
1751013736673445400,1.5584453125,-0.005152950529009104,-0.016163790598511696,0.005191300064325333
1751013736683389700,1.5683896484375,0.007617173250764608,-0.02335432544350624,0.025202292948961258
1751013736693332700,1.578332763671875,0.011377822607755661,-0.030158700421452522,0.034202978014945984
1751013736703275800,1.58827587890625,0.01233309879899025,-0.03220320865511894,0.03184022009372711
1751013736713219600,1.598219482421875,0.004405933897942305,-0.026989273726940155,0.018854647874832153
1751013736723162600,1.60816259765625,0.0037529265973716974,-0.021151091903448105,-0.0014024205738678575
1751013736733106700,1.618106689453125,0.006711964961141348,-0.016274843364953995,-0.010281133465468884
1751013736743049700,1.6280498046875,0.0022831279784440994,-0.015169898048043251,-0.01164760161191225
1751013736752993500,1.63799365234375,0.0037768951151520014,-0.01763971336185932,-0.007543670013546944
1751013736762936600,1.6479365234375,0.004175570327788591,-0.01786847971379757,0.005809952039271593
1751013736772879600,1.657879638671875,0.009710950776934624,-0.011836685240268707,0.007608118467032909
1751013736782823700,1.66782373046875,0.015791213139891624,-0.0018730012234300375,0.005185707006603479
1751013736792766500,1.677766357421875,0.01961258426308632,0.018678879365324974,-0.005952431354671717
1751013736802710500,1.68771044921875,0.018155300989747047,0.0355774350464344,-0.019147062674164772
1751013736812653600,1.697653564453125,0.01506816502660513,0.04397757723927498,-0.02413809299468994
1751013736822597400,1.707597412109375,0.008158594369888306,0.04698321968317032,-0.020663199946284294
1751013736832540400,1.71754052734375,0.005313006229698658,0.04276397451758385,-0.009781258180737495
1751013736842483500,1.7274833984375,-0.001285241567529738,0.02718927711248398,0.0012679309584200382
1751013736852427500,1.737427490234375,0.0005840312223881483,0.012116051279008389,0.017066068947315216
1751013736862370600,1.74737060546875,0.0029862024821341038,0.006631270982325077,0.03332599997520447
1751013736872314600,1.757314697265625,0.00857564527541399,0.0029984530992805958,0.037633929401636124
1751013736882257400,1.76725732421875,0.01504180021584034,0.0035950010642409325,0.019036807119846344
1751013736892200400,1.777200439453125,0.01997157745063305,0.021992916241288185,-0.014248711057007313
1751013736902144800,1.787144775390625,0.030066022649407387,0.0432199090719223,-0.0540270172059536
1751013736912087600,1.797087646484375,0.03380563482642174,0.058944541960954666,-0.09265083819627762
1751013736922031600,1.807031494140625,0.03606559336185455,0.07547052204608917,-0.10939360409975052
1751013736931974700,1.816974609375,0.03423014283180237,0.08813758194446564,-0.09729379415512085
1751013736941918700,1.826918701171875,0.027246002107858658,0.08703263849020004,-0.07277167588472366
1751013736951861500,1.836861572265625,0.022055501118302345,0.07567478716373444,-0.051350537687540054
1751013736961804500,1.846804443359375,0.017778996378183365,0.05848381668329239,-0.026824157685041428
1751013736971748600,1.85674853515625,0.022480808198451996,0.04267502576112747,-0.0007590008899569511
1751013736981691600,1.866691650390625,0.027588218450546265,0.02279745787382126,0.02220224030315876
1751013736991635500,1.876635498046875,0.025125859305262566,0.001668736687861383,0.027181286364793777
1751013737001578500,1.88657861328125,0.022846726700663567,-0.012557337060570717,0.019572636112570763
1751013737011521500,1.896521484375,0.021742846816778183,-0.010430802591145039,0.0027241474017500877
1751013737021465600,1.906465576171875,0.028270520269870758,-0.008222243748605251,-0.011789281852543354
1751013737031408600,1.91640869140625,0.034688472747802734,-0.0036799560766667128,-0.0301459189504385
1751013737041352400,1.9263525390625,0.038367096334695816,-0.006323676090687513,-0.03973649442195892
1751013737051295500,1.93629541015625,0.03949281573295593,-0.00439048744738102,-0.044504616409540176
1751013737061239600,1.946239501953125,0.03508288785815239,-0.011578092351555824,-0.04303508624434471
1751013737071182600,1.9561826171875,0.03147856518626213,-0.016271913424134254,-0.036968935281038284
1751013737081125400,1.96612548828125,0.024761006236076355,-0.02743375487625599,-0.02424515224993229
1751013737091069400,1.9760693359375,0.017711618915200233,-0.043473176658153534,-0.013057478703558445
1751013737101012500,1.986012451171875,0.01745648868381977,-0.04850788041949272,-0.004551075864583254
1751013737110956500,1.99595654296875,0.01756221614778042,-0.04902586713433266,0.011529889889061451
1751013737120899600,2.005899658203125,0.021507954224944115,-0.03554760664701462,0.01883946731686592
1751013737130842600,2.015842529296875,0.02815121039748192,-0.018122810870409012,0.03501071408390999
1751013737140786700,2.02578662109375,0.04490995034575462,-0.00515827676281333,0.047328900545835495
1751013737150729700,2.035729736328125,0.05669097602367401,0.009885387495160103,0.0549444742500782
1751013737160673500,2.045673583984375,0.0621669664978981,0.01546524278819561,0.055632103234529495
1751013737170616600,2.055616455078125,0.058168232440948486,0.005385976750403643,0.049862898886203766
1751013737180560600,2.065560546875,0.048588573932647705,-0.006411293987184763,0.040762875229120255
1751013737190503700,2.075503662109375,0.028871595859527588,-0.023373233154416084,0.024709606543183327
1751013737200446700,2.08544677734375,0.013829795643687248,-0.025288045406341553,0.012885438278317451
1751013737210390500,2.095390625,0.0056890444830060005,-0.01786501705646515,0.014302239753305912
1751013737220333600,2.10533349609375,-0.0035278894938528538,-0.008567655459046364,0.0073196981102228165
1751013737230277600,2.115277587890625,-0.008807872422039509,0.012136823497712612,-0.004136155359447002
1751013737240220700,2.125220703125,-0.004625644534826279,0.029775472357869148,-0.023843547329306602
1751013737250163500,2.13516357421875,0.00740145705640316,0.03814711794257164,-0.04540982469916344
1751013737260107500,2.145107421875,0.010631605051457882,0.04169870913028717,-0.06390867382287979
1751013737270050600,2.155050537109375,0.016920393332839012,0.04116528108716011,-0.057969026267528534
1751013737279994400,2.164994384765625,0.02611149474978447,0.04363642632961273,-0.031182952225208282
1751013737289937400,2.1749375,0.039731964468955994,0.036131639033555984,0.004942560568451881
1751013737299881700,2.1848818359375,0.04055195301771164,0.027530161663889885,0.03735003620386124
1751013737309824500,2.194824462890625,0.039388950914144516,0.01901550218462944,0.06409083306789398
1751013737319767600,2.204767578125,0.0307517871260643,0.008311991579830647,0.06661737710237503
1751013737329711600,2.214711669921875,0.017943046987056732,0.0038866172544658184,0.044444695115089417
1751013737339654700,2.224654541015625,0.007455785758793354,-0.004896488040685654,0.0018192053539678454
1751013737349598700,2.2345986328125,0.0013113404856994748,-0.01221831701695919,-0.05343605950474739
1751013737359541800,2.244541748046875,-0.007947937585413456,-0.021696506068110466,-0.09884002804756165
1751013737369485600,2.254485595703125,-0.015835953876376152,-0.023450730368494987,-0.13039982318878174
1751013737379428600,2.2644287109375,-0.011352256871759892,-0.011173292063176632,-0.139667347073555
1751013737389371600,2.27437158203125,-0.006432599388062954,0.019724169746041298,-0.13050368428230286
1751013737399315700,2.284315673828125,0.009461145848035812,0.05308026075363159,-0.12020736932754517
1751013737409258500,2.294258544921875,0.036011531949043274,0.09161167591810226,-0.10812300443649292
1751013737419202600,2.30420263671875,0.06864111125469208,0.12748472392559052,-0.09445299953222275
1751013737429145600,2.3141455078125,0.09209956973791122,0.15236955881118774,-0.08639507740736008
1751013737439088600,2.324088623046875,0.10138627886772156,0.15414509177207947,-0.08470423519611359
1751013737449032400,2.334032470703125,0.08631385117769241,0.13801006972789764,-0.09120208024978638
1751013737458975500,2.3439755859375,0.056821469217538834,0.10631845146417618,-0.08715780824422836
1751013737468919600,2.35391943359375,0.024230770766735077,0.05849100649356842,-0.06216856464743614
1751013737478862600,2.363862548828125,-0.007541273254901171,0.01751667633652687,-0.03368419408798218
1751013737488805600,2.3738056640625,-0.032035164535045624,-0.012024705298244953,0.0013821806060150266
1751013737498749400,2.38374951171875,-0.04337943345308304,-0.035952407866716385,0.02581055834889412
1751013737508692500,2.3936923828125,-0.040225449949502945,-0.03723232448101044,0.04248673841357231
1751013737518636500,2.403636474609375,-0.023574834689497948,-0.028773590922355652,0.04857579246163368
1751013737528579600,2.41357958984375,-0.002424275502562523,-0.01775689236819744,0.05113056302070618
1751013737538523600,2.423523681640625,0.01618403010070324,-0.001216531964018941,0.05043121427297592
1751013737548466700,2.433466796875,0.03466663509607315,0.008409730158746243,0.05331674963235855
1751013737558409700,2.44340966796875,0.04556881636381149,0.016154734417796135,0.046475622802972794
1751013737568353500,2.453353515625,0.04568785801529884,0.01914013922214508,0.027600202709436417
1751013737578296600,2.463296630859375,0.034388333559036255,0.016870060935616493,0.011662514880299568
1751013737588240600,2.47324072265625,0.02713787741959095,0.01044305320829153,0.0034224283881485462
1751013737598183700,2.48318359375,0.011707255616784096,0.0043960800394415855,-0.0012279836228117347
1751013737608127500,2.49312744140625,-0.0016021577175706625,0.00025779398856684566,0.009376724250614643
1751013737618070500,2.503070556640625,-0.013713947497308254,0.004126567859202623,0.021645374596118927
1751013737628013600,2.513013671875,-0.017723070457577705,-0.002270611235871911,0.0308734942227602
1751013737637953300,2.522953369140625,-0.018920427188277245,-0.016759805381298065,0.0352109856903553
1751013737647896300,2.532896240234375,-0.023148728534579277,-0.022410767152905464,0.03837108984589577
1751013737657840000,2.542840087890625,-0.027652665972709656,-0.030438067391514778,0.03964195027947426
1751013737667783200,2.552783203125,-0.031448736786842346,-0.029257753863930702,0.029327528551220894
1751013737677726200,2.562726318359375,-0.03152889758348465,-0.01774623990058899,0.01775822415947914
1751013737687670500,2.57267041015625,-0.02424701675772667,-0.006607568822801113,0.008869924582540989
1751013737697613600,2.582613525390625,-0.011591408401727676,0.011562113650143147,-0.002270344877615571
1751013737707557400,2.592557373046875,-0.0010327738709747791,0.027066770941019058,-0.013118998147547245
1751013737717500400,2.60250048828125,0.011652927845716476,0.04026646167039871,-0.019342537969350815
1751013737727444500,2.612444580078125,0.017580857500433922,0.0442231222987175,-0.014821290038526058
1751013737737387500,2.622387451171875,0.02563079446554184,0.03508368507027626,-0.008376174606382847
1751013737747330300,2.632330322265625,0.020839234814047813,0.021878400817513466,-0.0026165556628257036
1751013737757274400,2.6422744140625,0.0130540169775486,0.011802863329648972,0.006021939683705568
1751013737767217400,2.652217529296875,0.005512476898729801,-0.0006479470757767558,0.0153190353885293
1751013737777161500,2.662161376953125,-0.006007025949656963,-0.008726912550628185,0.015618374571204185
1751013737787104300,2.672104248046875,-0.009338906966149807,-0.0004679173871409148,0.013159211724996567
1751013737797048300,2.68204833984375,-0.00011451592581579462,0.008053132332861423,0.0172109454870224
1751013737806991400,2.691991455078125,0.008352206088602543,0.01363138947635889,0.015065502375364304
1751013737816934400,2.701934326171875,0.0099021652713418,0.018850386142730713,0.008262190967798233
1751013737826878200,2.711878173828125,0.009836917743086815,0.02647528238594532,-0.003230414353311062
1751013737836821200,2.7218212890625,0.004464257042855024,0.022364694625139236,-0.010002566501498222
1751013737846765300,2.731765380859375,-0.0027776770293712616,0.014013553969562054,-0.02394527941942215
1751013737856708400,2.741708251953125,-0.01369104441255331,0.008517853915691376,-0.027669711038470268
1751013737866651400,2.7516513671875,-0.01979207992553711,0.0010250506456941366,-0.020795559510588646
1751013737876595200,2.76159521484375,-0.014598117209970951,-0.007524495478719473,-0.013614345341920853
1751013737886538200,2.771538330078125,-0.016077503561973572,-0.018759040161967278,-0.001210406655445695
1751013737896482600,2.781482666015625,-0.015520104207098484,-0.018201107159256935,0.0078046596609056
1751013737906425600,2.791425537109375,-0.012750948779284954,-0.01218848954886198,0.003123621689155698
1751013737916369400,2.801369384765625,-0.007713313214480877,-0.003980893176048994,-0.006144179031252861
1751013737926312400,2.8113125,-0.001130245509557426,0.010095510631799698,-0.013407418504357338
1751013737936255500,2.82125537109375,0.00890640914440155,0.02624491974711418,-0.016318518668413162
1751013737946199300,2.83119921875,0.016287360340356827,0.0361580029129982,-0.017777930945158005
1751013737956142300,2.841142333984375,0.02040700428187847,0.0312734991312027,-0.013482253067195415
1751013737966086400,2.85108642578125,0.02008849009871483,0.019233083352446556,-0.015235145576298237
1751013737976029400,2.861029541015625,0.016535567119717598,0.00833809096366167,-0.014821023680269718
1751013737985972500,2.870972412109375,0.01336028054356575,0.0020634171087294817,-0.017306284978985786
1751013737995916300,2.880916259765625,0.016757940873503685,0.0012623383663594723,-0.014813034795224667
1751013738005859300,2.890859375,0.029216473922133446,0.006567088887095451,0.009674998000264168
1751013738015803400,2.900803466796875,0.04555603489279747,0.00990376342087984,0.04328515753149986
1751013738025746400,2.910746337890625,0.04839656129479408,0.0105314701795578,0.06360533833503723
1751013738035690200,2.920690185546875,0.048956356942653656,0.013553093187510967,0.07105953246355057
1751013738045633300,2.93063330078125,0.050462376326322556,0.012795157730579376,0.06280559301376343
1751013738055576300,2.940576416015625,0.04586416110396385,0.00923557672649622,0.04897286742925644
1751013738065520400,2.950520263671875,0.04751931503415108,0.007467503659427166,0.03629276156425476
1751013738075463200,2.960463134765625,0.04641303792595863,0.014603443443775177,0.02797837182879448
1751013738085407200,2.9704072265625,0.042939744889736176,0.02478976920247078,0.01642744243144989
1751013738095350300,2.980350341796875,0.036970801651477814,0.0415293350815773,0.0025041704066097736
1751013738105293300,2.990293212890625,0.028205005452036858,0.07364466041326523,-0.019954001531004906
1751013738115237400,3.0002373046875,0.015055914409458637,0.12573742866516113,-0.05435671657323837
1751013738125180400,3.010180419921875,0.018247978761792183,0.17683948576450348,-0.08451434969902039
1751013738135124500,3.02012451171875,0.03044206090271473,0.21737040579319,-0.09947226196527481
1751013738145067500,3.030067626953125,0.046100914478302,0.22138777375221252,-0.1029338389635086
1751013738155011300,3.04001123046875,0.054727427661418915,0.19210366904735565,-0.09390439093112946
1751013738164954400,3.049954345703125,0.050392333418130875,0.1390708088874817,-0.07388727366924286
1751013738174897400,3.0598974609375,0.03225727379322052,0.08595911413431168,-0.04225930571556091
1751013738184841500,3.069841552734375,0.007229683455079794,0.03670182079076767,-0.011110974475741386
1751013738194784500,3.079784423828125,-0.01948661543428898,0.004552407655864954,0.024324513971805573
1751013738204728300,3.089728271484375,-0.041897647082805634,-0.008294414728879929,0.06458458304405212
1751013738214671400,3.09967138671875,-0.05949874594807625,-0.0035989959724247456,0.09414780139923096
1751013738224614400,3.109614501953125,-0.059411127120256424,0.00672235107049346,0.11012650281190872
1751013738234558500,3.119558349609375,-0.051236823201179504,0.005067729391157627,0.10504093021154404
1751013738244501200,3.129501220703125,-0.03984568268060684,0.008249407634139061,0.07898429781198502
1751013738254445300,3.1394453125,-0.024341559037566185,0.015368836000561714,0.03489220514893532
1751013738264388400,3.149388427734375,-0.006460828706622124,0.024987908080220222,-0.009209210984408855
1751013738274332200,3.159332275390625,0.005016862880438566,0.02870594710111618,-0.04907912760972977
1751013738284275200,3.169275146484375,0.016946759074926376,0.024587901309132576,-0.06665785610675812
1751013738294218200,3.17921826171875,0.02130555547773838,0.015188806690275669,-0.0632210448384285
1751013738304162300,3.189162353515625,0.01846769079566002,0.00558092026039958,-0.04278421401977539
1751013738314105300,3.199105224609375,0.013821805827319622,-0.006771353539079428,-0.011593272909522057
1751013738324049400,3.20904931640625,0.01122309360653162,-0.01798672415316105,0.027836957946419716
1751013738333992400,3.218992431640625,0.005340436939150095,-0.022970296442508698,0.05897357314825058
1751013738343935200,3.228935302734375,0.001136637176387012,-0.02605476975440979,0.0718102753162384
1751013738353879600,3.238879638671875,-0.0029254823457449675,-0.031975243240594864,0.0611826628446579
1751013738363822300,3.248822265625,-0.00031132352887652814,-0.03580513596534729,0.03755589574575424
1751013738373766400,3.258766357421875,0.0029981867410242558,-0.033067673444747925,0.005735916085541248
1751013738383709400,3.26870947265625,0.006025135517120361,-0.027031617239117622,-0.020451745018363
1751013738393653500,3.278653564453125,0.009061405435204506,-0.0018261295044794679,-0.043421510607004166
1751013738403596300,3.28859619140625,0.011440407484769821,0.026383403688669205,-0.06277336925268173
1751013738413539300,3.298539306640625,0.015033810399472713,0.04745300114154816,-0.0727013647556305
1751013738423483400,3.3084833984375,0.016890034079551697,0.06058558449149132,-0.06824749708175659
1751013738433426400,3.318426513671875,0.018973425030708313,0.0577104352414608,-0.05752960592508316
1751013738443370200,3.328370361328125,0.009165534749627113,0.05031243711709976,-0.04718775302171707
1751013738453313300,3.338313232421875,0.002011219272390008,0.02834109403192997,-0.038058701902627945
1751013738463256300,3.34825634765625,-0.008846488781273365,0.005660815164446831,-0.02388163097202778
1751013738473200400,3.358200439453125,-0.01173575222492218,-0.008449144661426544,-0.002663427498191595
1751013738483143400,3.368143310546875,-0.016145413741469383,-0.0244922935962677,0.015487879514694214
1751013738493087200,3.378087158203125,-0.0202765092253685,-0.02196015976369381,0.026016686111688614
1751013738503030300,3.3880302734375,-0.02340785413980484,-0.006339122075587511,0.027527231723070145
1751013738512974300,3.397974365234375,-0.01564314216375351,0.009957293048501015,0.011571967042982578
1751013738522917400,3.40791748046875,-0.00797590147703886,0.017884457483887672,-0.004399808589369059
1751013738532860200,3.417860107421875,0.007107976824045181,0.024986576288938522,-0.014455904252827168
1751013738542804500,3.427804443359375,0.016696687787771225,0.026004435494542122,-0.014051370322704315
1751013738552747500,3.43774755859375,0.02654106356203556,0.013937386684119701,-0.005788114387542009
1751013738562691300,3.44769140625,0.03181492164731026,0.011827364563941956,0.00523710623383522
1751013738572634400,3.45763427734375,0.03136404976248741,0.01164467167109251,0.012869992293417454
1751013738582577400,3.467577392578125,0.0296670813113451,0.031611453741788864,0.009286442771553993
1751013738592521500,3.477521484375,0.03785204142332077,0.05456523969769478,-0.0010018812026828527
1751013738602464500,3.487464599609375,0.0501883365213871,0.0716954916715622,-0.014465492218732834
1751013738612408300,3.497408203125,0.058029480278491974,0.08540358394384384,-0.02353222295641899
1751013738622351400,3.507351318359375,0.05760737136006355,0.0848885253071785,-0.02436739206314087
1751013738632296000,3.5172958984375,0.046966176480054855,0.06847386807203293,-0.014255900867283344
1751013738642239000,3.527239013671875,0.0365753211081028,0.04910709336400032,-0.001306280493736267
1751013738652181800,3.537181640625,0.020910074934363365,0.022038189694285393,0.022531939670443535
1751013738662125800,3.547125732421875,0.006176669616252184,0.0010157296201214194,0.047568850219249725
1751013738672068900,3.55706884765625,-0.002007757080718875,-0.013815946877002716,0.06358004361391068
1751013738682012700,3.5670126953125,-0.011239072307944298,-0.016634104773402214,0.06600857526063919
1751013738691955700,3.576955810546875,-0.019400330260396004,-0.0012884372845292091,0.05558363348245621
1751013738701898800,3.586898681640625,-0.016108129173517227,0.024625452235341072,0.03638250753283501
1751013738711842800,3.5968427734375,-0.0005858954391442239,0.04381512477993965,0.029354160651564598
1751013738721785900,3.606785888671875,0.02473197877407074,0.036489833146333694,0.023322632536292076
1751013738731729700,3.616729736328125,0.041790857911109924,0.04301537573337555,0.02221369370818138
1751013738741672700,3.626672607421875,0.04898405447602272,0.031450867652893066,0.01810496859252453
1751013738751616800,3.63661669921875,0.044367466121912,0.012175173498690128,0.015486281365156174
1751013738761559800,3.646559814453125,0.037697844207286835,-0.007152718026190996,0.01834944635629654
1751013738771502800,3.6565029296875,0.03325755521655083,-0.03748585656285286,0.026752252131700516
1751013738781447000,3.666447021484375,0.022060826420783997,-0.08424457162618637,0.03958149626851082
1751013738791390000,3.676389892578125,0.015364308841526508,-0.12447907775640488,0.057368483394384384
1751013738801334000,3.686333984375,0.0032408006954938173,-0.15991376340389252,0.08499585092067719
1751013738811276800,3.69627685546875,0.002141714096069336,-0.18458901345729828,0.11784620583057404
1751013738821219800,3.7062197265625,0.000029827404432580806,-0.18699465692043304,0.1326475292444229
1751013738831164000,3.716163818359375,0.003614974906668067,-0.17828957736492157,0.12571558356285095
1751013738841107000,3.72610693359375,0.006864031311124563,-0.1449822187423706,0.104119211435318
1751013738851050800,3.73605078125,0.01733025349676609,-0.1034262552857399,0.06299121677875519
1751013738860993800,3.745993896484375,0.018549183383584023,-0.04784102365374565,0.010177535936236382
1751013738870937900,3.755937744140625,0.024278707802295685,0.0049436260014772415,-0.04886128380894661
1751013738880881000,3.765880859375,0.02057691477239132,0.04375866428017616,-0.10923061519861221
1751013738890824000,3.775823974609375,0.018507104367017746,0.0744209736585617,-0.149770587682724
1751013738900767700,3.785767822265625,0.021927936002612114,0.09354832768440247,-0.1569286286830902
1751013738910710800,3.795710693359375,0.0380331352353096,0.09348254650831223,-0.13410720229148865
1751013738920654800,3.80565478515625,0.05804439261555672,0.07091252505779266,-0.08884332329034805
1751013738930598000,3.815597900390625,0.059475578367710114,0.04782344773411751,-0.02924283966422081
1751013738940540700,3.825540771484375,0.046007972210645676,0.031266044825315475,0.020290890708565712
1751013738950484700,3.835484619140625,0.020241888239979744,0.008984440006315708,0.044383443892002106
1751013738960427800,3.845427734375,-0.006235525477677584,-0.005271194502711296,0.04662982001900673
1751013738970371800,3.855371826171875,-0.0038189729675650597,-0.01007713470607996,0.04737230762839317
1751013738980314600,3.865314697265625,0.016105201095342636,-0.01509799249470234,0.04144357889890671
1751013738990257700,3.875257568359375,0.042439334094524384,-0.016687100753188133,0.037633661180734634
1751013739000202000,3.885201904296875,0.05477429926395416,-0.013486513867974281,0.023741282522678375
1751013739010144800,3.895144775390625,0.057378336787223816,0.0030538467690348625,0.004628574009984732
1751013739020088800,3.9050888671875,0.05552717298269272,0.026918699964880943,-0.00737349409610033
1751013739030032000,3.915031982421875,0.05276840552687645,0.0369497612118721,-0.010471283458173275
1751013739039976000,3.924975830078125,0.04103824496269226,0.03020796924829483,-0.0022021678742021322
1751013739049919000,3.9349189453125,0.02893684245646,0.019049590453505516,0.014708638191223145
1751013739059862000,3.944862060546875,0.009483516216278076,0.004932706709951162,0.028750954195857048
1751013739069805800,3.954805908203125,-0.00720651401206851,-0.0057249972596764565,0.025618810206651688
1751013739079748900,3.964748779296875,-0.025466211140155792,0.0014378406340256333,0.0012503541074693203
1751013739089693000,3.97469287109375,-0.035355325788259506,0.020790498703718185,-0.03105059452354908
1751013739099635700,3.9846357421875,-0.030240725725889206,0.07726629078388214,-0.06163753196597099
1751013739109578800,3.994578857421875,-0.020207799971103668,0.12035783380270004,-0.08268103003501892
1751013739119522800,4.004522705078125,-0.008893094025552273,0.15346093475818634,-0.10046135634183884
1751013739129465900,4.0144658203125,0.019813384860754013,0.17680619657039642,-0.1026209145784378
1751013739139409700,4.02440966796875,0.04960004240274429,0.17022685706615448,-0.0896017849445343
1751013739149352700,4.034352783203125,0.05362727493047714,0.13426139950752258,-0.06699714064598083
1751013739159295700,4.044295654296875,0.04085129126906395,0.08603794872760773,-0.04531315341591835
1751013739169239800,4.05423974609375,0.014673750847578049,0.038185201585292816,-0.02425580471754074
1751013739179182800,4.064182861328125,-0.015411979518830776,-0.00495161535218358,-0.0076209018006920815
1751013739189126700,4.074126708984375,-0.03892502933740616,-0.02738235518336296,0.009755691513419151
1751013739199069700,4.084069580078125,-0.04555922746658325,-0.029934994876384735,0.025766616687178612
1751013739209014000,4.094013916015625,-0.04060707986354828,-0.014464959502220154,0.025958629325032234
1751013739218956800,4.103956787109375,-0.032576851546764374,0.003221625927835703,0.010480870492756367
1751013739228899800,4.11389990234375,-0.01338744442909956,0.020989704877138138,-0.001680454588495195
1751013739238844000,4.123843994140625,0.011353588663041592,0.040220122784376144,-0.019579026848077774
1751013739248787000,4.133786865234375,0.035769183188676834,0.047558996826410294,-0.01980273239314556
1751013739258731000,4.14373095703125,0.04559065401554108,0.043173301964998245,-0.016029832884669304
1751013739268673800,4.153673828125,0.04802638292312622,0.02197214402258396,-0.002083124592900276
1751013739278616800,4.163616943359375,0.027759192511439323,-0.007790811359882355,0.007485613226890564
1751013739288561000,4.173560791015625,0.0023704797495156527,-0.022308766841888428,0.013148026540875435
1751013739298504000,4.18350390625,-0.01695954240858555,-0.02177879773080349,0.009609750472009182
1751013739308447700,4.19344775390625,-0.02052178606390953,-0.006618754006922245,-0.0016170714516192675
1751013739318390800,4.203390869140625,-0.007867510430514812,0.012738964520394802,-0.02317296341061592
1751013739328334800,4.2133349609375,-0.00011531487689353526,0.031083084642887115,-0.04541861265897751
1751013739338278000,4.22327783203125,0.01787273958325386,0.040098149329423904,-0.07247526198625565
1751013739348221000,4.233220947265625,0.019523367285728455,0.038057636469602585,-0.08875596523284912
1751013739358164700,4.243164794921875,0.023678431287407875,0.023139141499996185,-0.09425033628940582
1751013739368107800,4.253107666015625,0.025237979367375374,0.022276010364294052,-0.06882886588573456
1751013739378051800,4.2630517578125,0.025127191096544266,0.02877225913107395,-0.03514759987592697
1751013739387995000,4.272994873046875,0.03200160712003708,0.03903608396649361,-0.0037582528311759233
1751013739397937700,4.282937744140625,0.02966282144188881,0.04860588535666466,0.01255121175199747
1751013739407881700,4.2928818359375,0.025045964866876602,0.06275073438882828,0.019177688285708427
1751013739417824800,4.30282470703125,0.02058410458266735,0.06471268087625504,0.012169314548373222
1751013739427768800,4.312768798828125,0.01817634142935276,0.055145543068647385,-0.005528189707547426
1751013739437711600,4.322711669921875,0.011619904078543186,0.038893602788448334,-0.019001919776201248
1751013739447656000,4.332656005859375,0.001995772821828723,0.024203605949878693,-0.030736073851585388
1751013739457599000,4.342598876953125,-0.0036796897184103727,0.008892827667295933,-0.026745593175292015
1751013739467542000,4.3525419921875,0.004251470323652029,0.0014389059506356716,-0.011439608410000801
1751013739477485800,4.36248583984375,0.010146377608180046,-0.0036280243657529354,0.013627927750349045
1751013739487428900,4.372428955078125,0.013085441663861275,-0.006284261122345924,0.03560539707541466
1751013739497373000,4.382373046875,0.012605274096131325,-0.0008807073463685811,0.044442832469940186
1751013739507316000,4.39231591796875,0.013684386387467384,-0.0023640880826860666,0.032532643526792526
1751013739517259000,4.402259033203125,0.01678483933210373,0.0011744539951905608,0.019404323771595955
1751013739527202800,4.412202880859375,0.021528195589780807,-0.0014570154016837478,-0.0038538603112101555
1751013739537145900,4.422145751953125,0.023077622056007385,-0.009799367748200893,-0.016642892733216286
1751013739547090000,4.43208984375,0.023383352905511856,-0.008696286007761955,-0.020972127094864845
1751013739557032700,4.44203271484375,0.014155499637126923,-0.011866512708365917,-0.023507457226514816
1751013739566975700,4.451975830078125,-0.0007475492893718183,-0.005529255140572786,-0.025292040780186653
1751013739576919800,4.461919921875,-0.010090983472764492,0.006476541515439749,-0.025301361456513405
1751013739586862800,4.47186279296875,-0.006327936891466379,0.012694490142166615,-0.020662400871515274
1751013739596806700,4.481806640625,-0.005685050040483475,0.018705245107412338,-0.00777563126757741
1751013739606749700,4.491749755859375,0.0026085663121193647,0.017853032797574997,0.004304467234760523
1751013739616693800,4.50169384765625,0.004312989301979542,0.02690138854086399,0.011434015817940235
1751013739626636800,4.51163671875,0.01671985723078251,0.03285728394985199,0.011268367059528828
1751013739636583700,4.521583740234375,0.031257521361112595,0.03543682023882866,0.01070777140557766
1751013739646527500,4.531527587890625,0.03741235285997391,0.032220788300037384,0.009139436297118664
1751013739656470500,4.541470458984375,0.035585690289735794,0.02617248147726059,0.007533816155046225
1751013739666414600,4.55141455078125,0.027762921527028084,0.012414591386914253,0.012416722252964973
1751013739676357600,4.561357666015625,0.019099125638604164,0.0052352421917021275,0.02406405657529831
1751013739686300400,4.571300537109375,0.009638246148824692,0.003718571737408638,0.029512085020542145
1751013739696244500,4.581244384765625,0.000041278995922766626,-0.005961486138403416,0.021457621827721596
1751013739706187500,4.5911875,-0.006135656964033842,-0.016084160655736923,0.015132879838347435
1751013739716131600,4.601131591796875,-0.009471798315644264,-0.012632171623408794,0.0059931776486337185
1751013739726074600,4.61107470703125,-0.007709318771958351,-0.012630574405193329,-0.013331251218914986
1751013739736018700,4.621018798828125,-0.008222510106861591,-0.016162725165486336,-0.029088376089930534
1751013739745961700,4.630961669921875,-0.0008088020258583128,-0.01847860962152481,-0.02564144693315029
1751013739755904800,4.64090478515625,0.005051483865827322,-0.024631842970848083,-0.007502391003072262
1751013739765848600,4.6508486328125,0.007869641296565533,-0.027409786358475685,0.02407204732298851
1751013739775791600,4.66079150390625,0.013139770366251469,-0.039809465408325195,0.05156092718243599
1751013739785735700,4.670735595703125,0.012164787389338017,-0.050818704068660736,0.07298766076564789
1751013739795678700,4.6806787109375,0.01013732235878706,-0.05205334722995758,0.07687746733427048
1751013739805621500,4.69062158203125,0.001275920425541699,-0.04298661649227142,0.057913899421691895
1751013739815565600,4.700565673828125,-0.001998702296987176,-0.023984428495168686,0.019584087654948235
1751013739825508600,4.710508544921875,0.001686846255324781,-0.006287456955760717,-0.022890135645866394
1751013739835452700,4.72045263671875,0.006762565113604069,0.007766842842102051,-0.04952707141637802
1751013739845395500,4.7303955078125,0.01757499948143959,0.017548633739352226,-0.05425737798213959
1751013739855338500,4.74033837890625,0.025433721020817757,0.01577257178723812,-0.03401655703783035
1751013739865282600,4.750282470703125,0.02749447524547577,0.008526110090315342,0.00003861583536490798
1751013739875225600,4.7602255859375,0.022363629192113876,-0.0013547500129789114,0.0279123242944479
1751013739885169400,4.77016943359375,0.015980031341314316,-0.00959563534706831,0.04418503865599632
1751013739895112400,4.780112548828125,0.012977850623428822,-0.009492837823927402,0.04298555105924606
1751013739905056500,4.790056396484375,0.007161772809922695,0.0007060039788484573,0.031128091737627983
1751013739914999600,4.79999951171875,0.0016727314796298742,0.01359463855624199,0.009720804169774055
1751013739924942600,4.809942626953125,-0.005525792948901653,0.01739363744854927,-0.007458981592208147
1751013739934886700,4.81988671875,-0.009813215583562851,0.013605291023850441,-0.02291889861226082
1751013739944829400,4.829829345703125,-0.017839450389146805,0.0009712548344396055,-0.022792663425207138
1751013739954773800,4.839773681640625,-0.0258632879704237,-0.008176703006029129,-0.01654249057173729
1751013739964716800,4.849716796875,-0.027093136683106422,-0.015308914706110954,-0.015338209457695484
1751013739974659600,4.85965966796875,-0.030596524477005005,-0.01440929900854826,-0.008695220574736595
1751013739984603600,4.869603759765625,-0.02684572897851467,-0.003127083647996187,-0.0012309130979701877
1751013739994546700,4.879546630859375,-0.01389637403190136,0.016922257840633392,0.0019688750617206097
1751013740004490500,4.889490478515625,-0.003920439630746841,0.027591947466135025,-0.0019979034550487995
1751013740014433500,4.89943359375,0.003571032779291272,0.03924594074487686,-0.024208666756749153
1751013740024376600,4.90937646484375,0.0056893108412623405,0.06073072552680969,-0.06523758918046951
1751013740034320600,4.919320556640625,-0.007104514632374048,0.09842351078987122,-0.14494307339191437
1751013740044263700,4.929263671875,-0.03314303979277611,0.12075438350439072,-0.24364887177944183
1751013740054207500,4.93920751953125,-0.056948769837617874,0.11333880573511124,-0.3385101556777954
1751013740064150500,4.949150634765625,-0.08845130354166031,0.05210128426551819,-0.4014456868171692
1751013740074094600,4.959094482421875,-0.1302562803030014,0.011109909042716026,-0.41652825474739075
1751013740084037600,4.96903759765625,-0.1495809704065323,-0.031746476888656616,-0.34411582350730896
1751013740093980700,4.978980712890625,-0.13235165178775787,-0.06570950150489807,-0.22694367170333862
1751013740103924500,4.988924560546875,-0.09862910211086273,-0.07844900339841843,-0.09230729192495346
1751013740113867500,4.998867431640625,-0.04867113381624222,-0.059838298708200455,0.04687216877937317
1751013740123811600,5.0088115234375,0.009614810347557068,-0.026266491040587425,0.17146575450897217
1751013740133754400,5.01875439453125,0.039374835789203644,-0.009586314670741558,0.24566276371479034
1751013740143697400,5.028697509765625,0.04300365969538689,0.00797563511878252,0.2599591314792633
1751013740153641500,5.038641357421875,0.04150030389428139,0.023568442091345787,0.2210082858800888
1751013740163584500,5.04858447265625,0.045032188296318054,0.039681900292634964,0.1485559195280075
1751013740173528600,5.058528564453125,0.041918955743312836,0.04422232136130333,0.05204189568758011
1751013740183471600,5.0684716796875,0.02586941421031952,0.03725922107696533,-0.039141278713941574
1751013740193414700,5.07841455078125,-0.0041334922425448895,0.02557486854493618,-0.09449481219053268
1751013740203358700,5.088358642578125,-0.03322266787290573,0.007495999336242676,-0.10727505385875702
1751013740213301800,5.0983017578125,-0.05149674788117409,-0.0033337450586259365,-0.08284161984920502
1751013740223245600,5.10824560546875,-0.05849739909172058,-0.018262360244989395,-0.03328871354460716
1751013740233188600,5.118188720703125,-0.05018860101699829,-0.029740052297711372,0.029700370505452156
1751013740243132700,5.128132568359375,-0.029692647978663445,-0.025298697873950005,0.09482771158218384
1751013740253075700,5.13807568359375,-0.002499110298231244,-0.01992950029671192,0.1424197256565094
1751013740263018500,5.1480185546875,0.02431679144501686,-0.011291003786027431,0.15088272094726562
1751013740272962600,5.157962646484375,0.044068656861782074,0.003090598387643695,0.1343897581100464
1751013740282905600,5.167905517578125,0.05878289043903351,0.010520551353693008,0.10401934385299683
1751013740292849700,5.177849609375,0.06267137080430984,0.010754643008112907,0.056771669536828995
1751013740302792400,5.18779248046875,0.049300968647003174,0.011092864908277988,0.003628823207691312
1751013740312735500,5.197735595703125,0.028359202668070793,0.010438259690999985,-0.04198792949318886
1751013740322679600,5.207679443359375,0.0011358382180333138,0.0003733751946128905,-0.08071029186248779
1751013740332622600,5.21762255859375,-0.029026592150330544,-0.005878395400941372,-0.10768145322799683
1751013740342566400,5.22756640625,-0.047450073063373566,-0.010966364294290543,-0.11604911088943481
1751013740352509400,5.237509521484375,-0.05319477990269661,-0.009706422686576843,-0.09682374447584152
1751013740362452500,5.247452392578125,-0.034635741263628006,0.004475974943488836,-0.062185078859329224
1751013740372396500,5.257396484375,-0.013344567269086838,0.010430536232888699,-0.03315289318561554
1751013740382339600,5.267339599609375,0.005578789860010147,0.025078721344470978,-0.004845621529966593
1751013740392283600,5.27728369140625,0.030424751341342926,0.04656164348125458,0.01353711448609829
1751013740402226700,5.287226806640625,0.05007355287671089,0.059951748698949814,0.023440077900886536
1751013740412170800,5.297170654296875,0.06120822951197624,0.06634147465229034,0.02311250939965248
1751013740422113500,5.307113525390625,0.06282822787761688,0.056889381259679794,0.01667431741952896
1751013740432056600,5.317056640625,0.05506804585456848,0.03723898157477379,0.005936984904110432
1751013740442000600,5.327000732421875,0.046308375895023346,0.016571253538131714,-0.010873952880501747
1751013740451943700,5.336943603515625,0.03202158212661743,-0.00637800432741642,-0.030892668291926384
1751013740461887500,5.346887451171875,0.01677924580872059,-0.026219619438052177,-0.03489460051059723
1751013740471830500,5.35683056640625,0.0023614249657839537,-0.041427865624427795,-0.027909662574529648
1751013740481773600,5.366773681640625,-0.006937268190085888,-0.046414636075496674,-0.007571100722998381
1751013740491717600,5.376717529296875,-0.006892793346196413,-0.04863891005516052,0.020146813243627548
1751013740501660700,5.38666064453125,-0.002058889716863632,-0.05528536066412926,0.04615817219018936
1751013740511604500,5.3966044921875,0.010674748569726944,-0.06440988183021545,0.06235312297940254
1751013740521547500,5.406547607421875,0.022123144939541817,-0.06052006781101227,0.06693749129772186
1751013740531491600,5.41649169921875,0.03885365650057793,-0.04597814381122589,0.06250838190317154
1751013740541434600,5.4264345703125,0.05626247450709343,-0.01998462714254856,0.050393667072057724
1751013740551377400,5.43637744140625,0.06939585506916046,0.0008468852029182017,0.026567162945866585
1751013740561321500,5.446321533203125,0.07095273584127426,0.012083561159670353,-0.007988950237631798
1751013740571264500,5.456264404296875,0.0575125627219677,0.018496718257665634,-0.051299408078193665
1751013740581208600,5.46620849609375,0.03424931690096855,0.009636647999286652,-0.08967981487512589
1751013740591151400,5.4761513671875,0.010068879462778568,-0.008383630774915218,-0.10369337350130081
1751013740601094400,5.486094482421875,-0.009549030102789402,-0.02617807500064373,-0.08537588268518448
1751013740611038700,5.496038818359375,-0.01785942353308201,-0.028981849551200867,-0.04081374406814575
1751013740620981800,5.505981689453125,-0.0197468064725399,-0.01847434788942337,0.005914614535868168
1751013740630925600,5.515925537109375,-0.0031971249263733625,0.003221093211323023,0.032343558967113495
1751013740640864500,5.525864501953125,0.015162440948188305,0.037400368601083755,0.044685445725917816
1751013740650807600,5.5358076171875,0.03900918364524841,0.0652458518743515,0.044797830283641815
1751013740660752000,5.545751953125,0.056898701936006546,0.07214876264333725,0.03238430619239807
1751013740670694700,5.555694580078125,0.061648450791835785,0.0713716521859169,0.015455921180546284
1751013740680638700,5.565638671875,0.06089504063129425,0.055519185960292816,0.0041428133845329285
1751013740690581800,5.575581787109375,0.043658796697854996,0.034937478601932526,-0.0024807346053421497
1751013740700525800,5.58552587890625,0.023126091808080673,0.008466455154120922,-0.00983558688312769
1751013740710468900,5.59546875,-0.0041273669339716434,-0.012434831820428371,-0.02075561136007309
1751013740720412000,5.605411865234375,-0.02804335206747055,-0.020739100873470306,-0.034200314432382584
1751013740730355700,5.615355712890625,-0.042926426976919174,-0.017226656898856163,-0.0432734377682209
1751013740740298800,5.625298828125,-0.04188433289527893,-0.00953811127692461,-0.039496276527643204
1751013740750242800,5.635242919921875,-0.031508658081293106,-0.00788748450577259,-0.01913720928132534
1751013740760185600,5.645185546875,-0.020801683887839317,-0.006810501683503389,-0.004485296085476875
1751013740770128600,5.655128662109375,-0.00902705080807209,0.000838895735796541,0.004941761493682861
1751013740780072700,5.66507275390625,0.00421205535531044,0.018245583400130272,0.007870705798268318
1751013740790015700,5.675015625,0.013626595959067345,0.02556687965989113,0.007846205495297909
1751013740799959600,5.68495947265625,0.02299027144908905,0.02273727022111416,0.0029233519453555346
1751013740809902600,5.694902587890625,0.013222062028944492,0.010175139643251896,-0.011407117359340191
1751013740819845600,5.704845703125,-0.007420099340379238,-0.0037942056078463793,-0.02882951684296131
1751013740829789700,5.714789794921875,-0.030174147337675095,-0.01895851083099842,-0.04799468815326691
1751013740839732700,5.724732666015625,-0.04507400095462799,-0.037162814289331436,-0.05814506113529205
1751013740849676500,5.734676513671875,-0.053293049335479736,-0.03382028266787529,-0.05914854258298874
1751013740859619600,5.74461962890625,-0.0464111752808094,-0.030777886509895325,-0.04832838475704193
1751013740869564000,5.75456396484375,-0.034637872129678726,-0.022285863757133484,-0.033070337027311325
1751013740879506700,5.764506591796875,-0.018439460545778275,-0.010938134975731373,-0.024922393262386322
1751013740889449500,5.774449462890625,-0.0025715483352541924,0.0010250506456941366,-0.02461053803563118
1751013740899393800,5.784393798828125,0.006968959700316191,0.014624216593801975,-0.04037485271692276
1751013740909336800,5.7943369140625,0.015015168115496635,0.027037210762500763,-0.057382866740226746
1751013740919280600,5.80428076171875,0.013293967582285404,0.027828168123960495,-0.0649518370628357
1751013740929223700,5.8142236328125,0.013100355863571167,0.023982830345630646,-0.05613837018609047
1751013740939166700,5.824166748046875,0.010599914006888866,0.013235378079116344,-0.03680701553821564
1751013740949110800,5.83411083984375,0.0037614486645907164,0.002923884429037571,-0.017845576629042625
1751013740959053800,5.8440537109375,0.007369232829660177,-0.0019952403381466866,0.001986984396353364
1751013740968997600,5.85399755859375,0.010091249831020832,0.0048855687491595745,0.008107461035251617
1751013740978940700,5.863940673828125,0.016999490559101105,0.015921708196401596,0.01477708201855421
1751013740988883700,5.8738837890625,0.010267284698784351,0.02340545691549778,0.023869913071393967
1751013740998827800,5.883827880859375,-0.0011094729416072369,0.035342808812856674,0.04343322664499283
1751013741008770800,5.893770751953125,-0.01811934821307659,0.043348539620637894,0.07520074397325516
1751013741018714600,5.903714599609375,-0.022425679489970207,0.04170297086238861,0.08643635362386703
1751013741028657700,5.91365771484375,-0.021986791864037514,0.04793476685881615,0.07004992663860321
1751013741038601700,5.923601806640625,-0.01847754418849945,0.05723452568054199,0.03092542476952076
1751013741048544800,5.933544677734375,-0.013836453668773174,0.07683432847261429,-0.019661851227283478
1751013741058487600,5.943487548828125,-0.0070584421046078205,0.09044574201107025,-0.06131076067686081
1751013741068431600,5.953431640625,0.0034091125708073378,0.1012834757566452,-0.07004433125257492
1751013741078374700,5.963374755859375,0.014361095614731312,0.10274821519851685,-0.06046999990940094
1751013741088318500,5.973318359375,0.013230584561824799,0.07924741506576538,-0.04314933344721794
1751013741098261500,5.983261474609375,0.010096043348312378,0.04580716788768768,-0.00999031588435173
1751013741108204500,5.99320458984375,0.00887711439281702,0.010518155060708523,0.021762020885944366
1751013741118148900,6.00314892578125,-0.0019342538435012102,-0.015425828285515308,0.05470079556107521
1751013741128092000,6.013091796875,-0.005683718249201775,-0.03592710942029953,0.0756087377667427
1751013741138035700,6.02303564453125,-0.012679575942456722,-0.04302123561501503,0.08620945364236832
1751013741147978800,6.032978759765625,-0.006700247060507536,-0.029169868677854538,0.07675176858901978
1751013741157921800,6.042921875,0.011715245433151722,-0.005642705596983433,0.05019659176468849
1751013741167865900,6.052865966796875,0.026510968804359436,0.018161160871386528,0.01696486957371235
1751013741177808600,6.06280859375,0.038007304072380066,0.039811596274375916,-0.02099769376218319
1751013741187752700,6.072752685546875,0.043352268636226654,0.048708949238061905,-0.05450691655278206
1751013741197695700,6.08269580078125,0.04423750191926956,0.0409354493021965,-0.07174502313137054
1751013741207639800,6.092639892578125,0.03562590479850769,0.01967516727745533,-0.07863488793373108
1751013741217582600,6.10258251953125,0.01967942900955677,0.00043888893560506403,-0.0746326893568039
1751013741227525600,6.112525634765625,0.0063002402894198895,-0.011808455921709538,-0.05596446618437767
1751013741237469700,6.1224697265625,0.0015542207984253764,-0.025439579039812088,-0.026070483028888702
1751013741247412700,6.132412841796875,-0.0007866977830417454,-0.03569221869111061,-0.005599828902631998
1751013741257356500,6.1423564453125,-0.0126380305737257,-0.02676902897655964,0.0043798345141112804
1751013741267299600,6.152299560546875,-0.011455054394900799,-0.015909457579255104,0.0010793792316690087
1751013741277242600,6.16224267578125,-0.011960522271692753,-0.013703028671443462,-0.005230448208749294
1751013741287186700,6.172186767578125,-0.0037923413328826427,-0.011664113029837608,-0.012408466078341007
1751013741297129700,6.182129638671875,0.0079721724614501,-0.008465922437608242,-0.013563745655119419
1751013741307073500,6.192073486328125,0.011930163018405437,-0.007089867256581783,-0.008767658844590187
1751013741317016600,6.2020166015625,0.018208298832178116,-0.009366869926452637,0.0008615325787104666
1751013741326959600,6.211959716796875,0.016205335035920143,-0.021883727982640266,0.0035840822383761406
1751013741336904000,6.221904052734375,0.00806032307446003,-0.027465978637337685,0.002924683503806591
1751013741346846700,6.2318466796875,-0.008713596500456333,-0.018745990470051765,-0.0047119311057031155
1751013741356790800,6.241790771484375,-0.014599449001252651,-0.019217902794480324,-0.01973988302052021
1751013741366733800,6.25173388671875,-0.016219716519117355,-0.032403480261564255,-0.04212801158428192
1751013741376676900,6.2616767578125,-0.025650767609477043,-0.043058522045612335,-0.05751682072877884
1751013741386620700,6.27162060546875,-0.02810833416879177,-0.044070255011320114,-0.06156988814473152
1751013741396563700,6.281563720703125,-0.02202034741640091,-0.03885898366570473,-0.05246560648083687
1751013741406507800,6.2915078125,-0.008016381412744522,-0.03622005507349968,-0.02424754947423935
1751013741416450800,6.301450927734375,0.006269081030040979,-0.023000657558441162,0.0008761800127103925
1751013741426394600,6.31139453125,0.01577283814549446,-0.011389806866645813,0.012922456488013268
1751013741436337700,6.321337646484375,0.023079220205545425,0.005332713946700096,0.00944782979786396
1751013741446280700,6.33128076171875,0.030714502558112144,0.023507989943027496,0.0006452839006669819
1751013741456224800,6.341224853515625,0.03804538771510124,0.03592391312122345,-0.007715177722275257
1751013741466167800,6.351167724609375,0.040884051471948624,0.040950097143650055,-0.01381248515099287
1751013741476111600,6.361111572265625,0.03683178499341011,0.041843052953481674,-0.019847741350531578
1751013741486054700,6.3710546875,0.0264811422675848,0.03506610915064812,-0.020656276494264603
1751013741495997700,6.380997802734375,0.019658390432596207,0.01366361416876316,-0.023424100130796432
1751013741505941500,6.39094140625,0.002868224401026964,-0.007415305823087692,-0.01853480190038681
1751013741515884500,6.400884521484375,-0.010733338072896004,-0.019049856811761856,-0.01239248737692833
1751013741525828600,6.41082861328125,-0.016992565244436264,-0.023242471739649773,-0.0006892260862514377
1751013741535771600,6.420771728515625,-0.00848536379635334,-0.01996625028550625,0.016086291521787643
1751013741545714700,6.430714599609375,0.0022455775178968906,-0.011115767993032932,0.031680431216955185
1751013741555658800,6.44065869140625,0.014847389422357082,-0.0005957491230219603,0.04258900508284569
1751013741565601500,6.4506015625,0.022214490920305252,0.009332781657576561,0.04598453640937805
1751013741575545900,6.4605458984375,0.020063456147909164,0.01125105656683445,0.03462349250912666
1751013741585489000,6.470489013671875,0.017660485580563545,0.0008612662786617875,0.0250259917229414
1751013741595431700,6.480431640625,0.012528841383755207,-0.01486283540725708,0.019000856205821037
1751013741605375700,6.490375732421875,0.005287173669785261,-0.030696926638484,0.019572902470827103
1751013741615318800,6.50031884765625,-0.008373511023819447,-0.03903927654027939,0.024562601000070572
1751013741625262800,6.510262939453125,-0.018081799149513245,-0.04302256926894188,0.023997211828827858
1751013741635209000,6.520208984375,-0.021991051733493805,-0.029756298288702965,0.02238679863512516
1751013741645153000,6.530153076171875,-0.01781361736357212,-0.014222345314919949,0.018812038004398346
1751013741655096000,6.540095947265625,-0.010181531310081482,0.0011789813870564103,0.013108078390359879
1751013741665039000,6.5500390625,-0.005262672435492277,0.01908234879374504,0.010787134058773518
1751013741674983000,6.55998291015625,-0.001332645770162344,0.037093039602041245,-0.0005486111622303724
1751013741684926000,6.569926025390625,0.007868043147027493,0.049318812787532806,-0.006651244591921568
1751013741694870000,6.5798701171875,0.005827262531965971,0.0441000834107399,-0.009462743997573853
1751013741704813000,6.58981298828125,0.0032948628067970276,0.029316876083612442,-0.014455106109380722
1751013741714756000,6.599756103515625,-0.013333648443222046,0.0051835766062140465,-0.01768418774008751
1751013741724700000,6.609699951171875,-0.024959677830338478,-0.0072746905498206615,-0.01895478181540966
1751013741734643000,6.619642822265625,-0.03141890838742256,-0.01624980941414833,-0.01643143780529499
1751013741744587300,6.629587158203125,-0.03298617899417877,-0.01495071966201067,-0.012457468546926975
1751013741754530300,6.6395302734375,-0.03205380588769913,-0.0018636800814419985,-0.019168900325894356
1751013741764473000,6.64947314453125,-0.0267178975045681,0.006163087207823992,-0.024449151009321213
1751013741774417200,6.659417236328125,-0.021094633266329765,0.011001251637935638,-0.03702379763126373
1751013741784360200,6.669360107421875,-0.015497466549277306,0.010152502916753292,-0.047211453318595886
1751013741794304300,6.67930419921875,-0.010424677282571793,0.004187021870166063,-0.05313831940293312
1751013741804247000,6.6892470703125,-0.005167331546545029,-0.00398781755939126,-0.04797205328941345
1751013741814190000,6.699190185546875,-0.006137787364423275,-0.005299957003444433,-0.03311480954289436
1751013741824134100,6.709134033203125,-0.006025668233633041,-0.002171275205910206,-0.013253754004836082
1751013741834077200,6.7190771484375,-0.004992628004401922,-0.002457298804074526,0.0034698324743658304
1751013741844021000,6.72902099609375,-0.0054938350804150105,-0.0019108180422335863,0.015339274890720844
1751013741853964000,6.738964111328125,0.004480768460780382,-0.0006133259739726782,0.010133061558008194
1751013741863908000,6.748908203125,0.0073114424012601376,-0.004472512751817703,0.003718571737408638
1751013741873851100,6.75885107421875,0.012576245702803135,-0.006275472696870565,-0.01865171454846859
1751013741883794200,6.768794189453125,0.00923104863613844,-0.0023252058308571577,-0.0421980544924736
1751013741893738000,6.778738037109375,0.009712016209959984,0.003922303672879934,-0.06084870174527168
1751013741903681000,6.788680908203125,0.0023521038237959146,0.002360093407332897,-0.0700744241476059
1751013741913625000,6.798625,-0.004620318301022053,-0.0037316211964935064,-0.06141755357384682
1751013741923568000,6.808568115234375,-0.012542955577373505,-0.01727352850139141,-0.044439636170864105
1751013741933511000,6.818510986328125,-0.021677598357200623,-0.020988373085856438,-0.014552843756973743
1751013741943455000,6.828455078125,-0.014550712890923023,-0.015034875832498074,0.011116833426058292
1751013741953398000,6.83839794921875,-0.002120941411703825,0.0028157602064311504,0.027032149955630302
1751013741963342000,6.848342041015625,0.013757091015577316,0.015981096774339676,0.030300114303827286
1751013741973284900,6.858284912109375,0.029215943068265915,0.028414331376552582,0.01139806304126978
1751013741983228000,6.868227783203125,0.03164341300725937,0.031381625682115555,-0.00902918167412281
1751013741993172200,6.878172119140625,0.03401336073875427,0.02863670513033867,-0.03189747780561447
1751013742003115300,6.888115234375,0.028255073353648186,0.01745169423520565,-0.052626725286245346
1751013742013059000,6.89805908203125,0.013974138535559177,-0.0028626318089663982,-0.052261874079704285
1751013742023002000,6.908002197265625,-0.003506850451231003,-0.0281570702791214,-0.04441140592098236
1751013742032945200,6.917945068359375,-0.022065620869398117,-0.047695618122816086,-0.031144337728619576
1751013742042889200,6.92788916015625,-0.030583741143345833,-0.06394409388303757,-0.01595047116279602
1751013742052832000,6.93783203125,-0.031263645738363266,-0.07003341615200043,-0.0065468489192426205
1751013742062776000,6.947776123046875,-0.031809594482183456,-0.06298988312482834,0.0013749900972470641
1751013742072719000,6.957718994140625,-0.023745009675621986,-0.052739109843969345,0.005276787560433149
1751013742082662100,6.967662109375,-0.016291888430714607,-0.03750689700245857,0.00649598240852356
1751013742092606000,6.97760595703125,-0.003397128311917186,-0.011408715508878231,0.012312859296798706
1751013742102549000,6.987549072265625,0.009793242439627647,0.013082246296107769,0.019581424072384834
1751013742112493000,6.9974931640625,0.014279869385063648,0.03386528789997101,0.015041533857584
1751013742122436000,7.00743603515625,0.012794625014066696,0.050936948508024216,0.0022058964241296053
1751013742132379100,7.017379150390625,-0.0010761833982542157,0.05625288560986519,-0.01543701346963644
1751013742142323000,7.027322998046875,-0.01050244178622961,0.047457531094551086,-0.033611223101615906
1751013742152266000,7.037265869140625,-0.0205734521150589,0.03014298900961876,-0.04356824979186058
1751013742162210000,7.0472099609375,-0.042256910353899,0.017177920788526535,-0.052393700927495956
1751013742172153000,7.057153076171875,-0.06290706247091293,-0.000322775129461661,-0.05681774392724037
1751013742182097200,7.06709716796875,-0.0714118629693985,-0.013567207381129265,-0.05501877889037132
1751013742192040000,7.0770400390625,-0.07145340740680695,-0.02978985384106636,-0.04679706692695618
1751013742201983000,7.08698291015625,-0.07085926085710526,-0.04156235605478287,-0.043715521693229675
1751013742211927300,7.09692724609375,-0.065676748752594,-0.043767187744379044,-0.04874517023563385
1751013742221870000,7.1068701171875,-0.05543342977762222,-0.04332350566983223,-0.05308159440755844
1751013742231814100,7.116814208984375,-0.04433257877826691,-0.034576352685689926,-0.06401146948337555
1751013742241757200,7.126757080078125,-0.037746578454971313,-0.025131985545158386,-0.06997109204530716
1751013742251700200,7.1367001953125,-0.027240142226219177,-0.009555688127875328,-0.06499364972114563
1751013742261644000,7.14664404296875,-0.015851667150855064,-0.0034559841733425856,-0.06339974701404572
1751013742271587000,7.156587158203125,-0.008539692498743534,0.0024794030468910933,-0.05763879418373108
1751013742281531100,7.16653125,0.001208009896799922,0.003862116253003478,-0.05313006415963173
1751013742291474200,7.17647412109375,0.009671801701188087,-0.004221110139042139,-0.0377282053232193
1751013742301417200,7.186417236328125,0.012050537392497063,-0.01864505745470524,-0.021824872121214867
1751013742311361000,7.196361083984375,0.0060357884503901005,-0.029890520498156548,-0.006530071143060923
1751013742321304000,7.206303955078125,0.0011598066193982959,-0.03373346105217934,0.002296443795785308
1751013742331248000,7.216248046875,-0.002304965863004327,-0.03257445618510246,0.012589029036462307
1751013742341191200,7.226191162109375,-0.015359515324234962,-0.02815360762178898,0.011554124765098095
1751013742351134000,7.236134033203125,-0.021985726431012154,-0.01417600642889738,0.007784952409565449
1751013742361078000,7.246078125,-0.023676034063100815,-0.003525492735207081,0.006697583943605423
1751013742371021000,7.25602099609375,-0.021495969966053963,0.00845526996999979,0.005560680292546749
1751013742380965000,7.265965087890625,-0.020171048119664192,0.012358665466308594,0.0017896442441269755
1751013742390908000,7.275907958984375,-0.026570357382297516,0.005834186915308237,-0.010094179771840572
1751013742400852000,7.28585205078125,-0.0409623458981514,-0.002231196267530322,-0.022831546142697334
1751013742410795000,7.295794921875,-0.052503686398267746,0.005816610064357519,-0.03723685070872307
1751013742420738000,7.305738037109375,-0.04898858070373535,0.021988922730088234,-0.042991142719984055
1751013742430682000,7.31568212890625,-0.03821050375699997,0.031439948827028275,-0.04032105579972267
1751013742440625200,7.325625244140625,-0.02859116531908512,0.0324825756251812,-0.032952092587947845
1751013742450569200,7.3355693359375,-0.028146948665380478,0.030528880655765533,-0.03145326301455498
1751013742460512300,7.34551220703125,-0.02828969433903694,0.026601517572999,-0.033673807978630066
1751013742470455300,7.355455322265625,-0.026211097836494446,0.012298744171857834,-0.04881627485156059
1751013742480399000,7.365399169921875,-0.02678021416068077,-0.0037611823063343763,-0.07044167816638947
1751013742490342100,7.375342041015625,-0.03524507209658623,-0.015514245256781578,-0.0916721299290657
1751013742500286200,7.3852861328125,-0.040708016604185104,-0.02647634781897068,-0.10679888725280762
1751013742510229000,7.39522900390625,-0.04601889103651047,-0.03683045133948326,-0.10670167952775955
1751013742520172000,7.405172119140625,-0.04827432334423065,-0.039132487028837204,-0.09298453480005264
1751013742530116000,7.4151162109375,-0.05174681916832924,-0.03969760984182358,-0.06144924461841583
1751013742540059100,7.42505908203125,-0.051600877195596695,-0.041302166879177094,-0.02014761231839657
1751013742550003000,7.4350029296875,-0.04589665308594704,-0.03696094825863838,0.006494651082903147
1751013742559946000,7.444946044921875,-0.03942197561264038,-0.03187457472085953,0.016926785930991173
1751013742569889000,7.454888916015625,-0.0268878061324358,-0.02618499845266342,0.005243231542408466
1751013742579833000,7.4648330078125,-0.006584133021533489,-0.007198257837444544,-0.012853480875492096
1751013742589776100,7.474776123046875,0.013026585802435875,0.007632886059582233,-0.03856523707509041
1751013742599720000,7.484719970703125,0.03123595006763935,0.01098447386175394,-0.059414591640233994
1751013742609663000,7.4946630859375,0.035894885659217834,0.0032631712965667248,-0.07649024575948715
1751013742619606000,7.50460595703125,0.028872661292552948,-0.010318683460354805,-0.08037739992141724
1751013742629550000,7.514550048828125,0.006638195365667343,-0.03313771262764931,-0.0843106210231781
1751013742639489800,7.52448974609375,-0.016511332243680954,-0.07050851732492447,-0.07325157523155212
1751013742649433900,7.534433837890625,-0.05687526613473892,-0.12243802845478058,-0.09086545556783676
1751013742659377000,7.544376953125,-0.12508973479270935,-0.1671072244644165,-0.14592231810092926
1751013742669320700,7.55432080078125,-0.16524088382720947,-0.17685040831565857,-0.17985977232456207
1751013742679263700,7.564263671875,-0.17693881690502167,-0.18475547432899475,-0.188606396317482
1751013742689206800,7.574206787109375,-0.1636190265417099,-0.18759413063526154,-0.1671663522720337
1751013742699150800,7.58415087890625,-0.12443646788597107,-0.15177088975906372,-0.094162717461586
1751013742709094000,7.594093994140625,-0.057615891098976135,-0.08063466101884842,0.009910421445965767
1751013742719037700,7.60403759765625,0.016980580985546112,-0.01727379485964775,0.12886184453964233
1751013742728980700,7.613980712890625,0.08659560978412628,0.026316558942198753,0.24269360303878784
1751013742738923800,7.623923828125,0.13804762065410614,0.055621981620788574,0.3119965195655823
1751013742748868000,7.6338681640625,0.15725833177566528,0.05615568161010742,0.31845414638519287
1751013742758811000,7.643810791015625,0.1576271802186966,0.042517099529504776,0.2686128318309784
1751013742768755000,7.6537548828125,0.15156476199626923,0.021044299006462097,0.19208554923534393
1751013742778698000,7.663697998046875,0.13871526718139648,-0.008193481713533401,0.10650300979614258
1751013742788641000,7.67364111328125,0.1233014315366745,-0.037878140807151794,0.03730050101876259
1751013742798584800,7.683584716796875,0.11200509965419769,-0.07213518023490906,-0.007604124024510384
1751013742808528000,7.69352783203125,0.09364340454339981,-0.10761354863643646,-0.033256225287914276
1751013742818472000,7.703471923828125,0.06501016020774841,-0.1344427615404129,-0.04091787338256836
1751013742828415000,7.7134150390625,0.027599137276411057,-0.15652036666870117,-0.04013437032699585
1751013742838358000,7.72335791015625,0.0009028115891851485,-0.1833871304988861,-0.021141238510608673
1751013742848301800,7.7333017578125,-0.021764418110251427,-0.19669973850250244,0.008917595259845257
1751013742858244900,7.743244873046875,-0.022424083203077316,-0.19086769223213196,0.05054306983947754
1751013742868189000,7.75318896484375,0.0022924491204321384,-0.17351798713207245,0.08504218608140945
1751013742878132000,7.763132080078125,0.023185746744275093,-0.14009664952754974,0.1008395254611969
1751013742888074800,7.77307470703125,0.04536721482872963,-0.08774423599243164,0.09081512689590454
1751013742898018800,7.783018798828125,0.05787528306245804,-0.030472688376903534,0.05434979125857353
1751013742907961900,7.7929619140625,0.06405940651893616,0.02058277279138565,-0.001549959764815867
1751013742917906000,7.802906005859375,0.07347368448972702,0.07015644758939743,-0.05107969418168068
1751013742927848700,7.8128486328125,0.08351007103919983,0.1137729063630104,-0.07908283174037933
1751013742937792800,7.822792724609375,0.08861135691404343,0.13898292183876038,-0.0840807855129242
1751013742947735800,7.83273583984375,0.08280220627784729,0.1413232982158661,-0.07008374482393265
1751013742957678800,7.842678955078125,0.061894793063402176,0.1399589627981186,-0.04887353256344795
1751013742967622700,7.85262255859375,0.047317713499069214,0.13771046698093414,-0.00780572509393096
1751013742977565700,7.862565673828125,0.031249798834323883,0.13835680484771729,0.02821219712495804
1751013742987510000,7.872510009765625,0.021579593420028687,0.13339480757713318,0.04881654307246208
1751013742997453000,7.882453125,0.014666827395558357,0.13086241483688354,0.05772055312991142
1751013743007396000,7.89239599609375,0.010606572031974792,0.1350315809249878,0.04856247454881668
1751013743017340000,7.90233984375,0.0032314795535057783,0.1436660885810852,0.019571304321289062
1751013743027283000,7.912282958984375,0.0006327670416794717,0.15178020298480988,-0.01895957626402378
1751013743037227000,7.92222705078125,-0.004762530792504549,0.1550910472869873,-0.06334967911243439
1751013743047170000,7.932170166015625,-0.009280051104724407,0.1604250967502594,-0.09625915437936783
1751013743057112800,7.94211279296875,-0.01631479151546955,0.16206346452236176,-0.1185772493481636
1751013743067057000,7.952056884765625,-0.026075009256601334,0.15956328809261322,-0.12422367930412292
1751013743077000000,7.962,-0.02630004659295082,0.1484733670949936,-0.11490821093320847
1751013743086943700,7.97194384765625,-0.029087577015161514,0.11879296600818634,-0.0956391766667366
1751013743096886800,7.98188671875,-0.030598122626543045,0.08373963832855225,-0.07047709822654724
1751013743106829800,7.991829833984375,-0.030535271391272545,0.050278883427381516,-0.04499756917357445
1751013743116774000,8.00177392578125,-0.021869346499443054,0.024453943595290184,-0.017703896388411522
1751013743126717000,8.011717041015626,-0.008565258234739304,0.009916014038026333,0.012809271924197674
1751013743136660700,8.02166064453125,0.011432417668402195,0.0007254450465552509,0.03165939077734947
1751013743146603800,8.031603759765625,0.0264811422675848,-0.0007400924805551767,0.03882516175508499
1751013743156546800,8.041546875,0.0349595807492733,0.0002796319022309035,0.027154656127095222
1751013743166491000,8.051490966796875,0.03858254477381706,-0.007257646415382624,-0.00006178533658385277
1751013743176434000,8.061433837890625,0.03912396728992462,-0.01624102145433426,-0.028058532625436783
1751013743186377700,8.071377685546874,0.03430098295211792,-0.026136262342333794,-0.0592779703438282
1751013743196320800,8.08132080078125,0.021333251148462296,-0.032457541674375534,-0.07636294513940811
1751013743206265000,8.09126513671875,0.014117683283984661,-0.031004521995782852,-0.07718773186206818
1751013743216208000,8.101207763671875,0.014051103964447975,-0.039257656782865524,-0.06455902010202408
1751013743226150700,8.111150634765625,0.01581651344895363,-0.043286219239234924,-0.040590036660432816
1751013743236095000,8.121094970703124,0.021913820877671242,-0.040767669677734375,-0.008986038155853748
1751013743246038000,8.1310380859375,0.0231106448918581,-0.033181387931108475,0.028970131650567055
1751013743255981800,8.14098193359375,0.025427062064409256,-0.027663851156830788,0.048882853239774704
1751013743265924900,8.1509248046875,0.029104888439178467,-0.02287282608449459,0.06141435727477074
1751013743275868000,8.160867919921875,0.03425171226263046,-0.010298443958163261,0.06801500171422958
1751013743285812000,8.17081201171875,0.04098471626639366,-0.0011084076249971986,0.06357897818088531
1751013743295755000,8.180755126953125,0.041545845568180084,0.009037170559167862,0.03681473806500435
1751013743305698800,8.19069873046875,0.04122892767190933,0.013017797842621803,0.0027531760279089212
1751013743315641900,8.200641845703124,0.04312216863036156,0.009831591509282589,-0.029339512810111046
1751013743325585000,8.2105849609375,0.03772394359111786,0.005318332463502884,-0.05018780380487442
1751013743335529000,8.220529052734374,0.023877635598182678,-0.0014405038673430681,-0.0605219341814518
1751013743345471700,8.2304716796875,0.013659886084496975,-0.002317482838407159,-0.05510399863123894
1751013743355415800,8.240415771484376,0.006515423767268658,-0.0010159959783777595,-0.034810177981853485
1751013743365358800,8.25035888671875,0.008561530150473118,-0.00021758026559837162,-0.005438707303255796
1751013743375302000,8.260302001953125,0.009785785339772701,0.005110872443765402,0.02521640621125698
1751013743385245700,8.27024560546875,0.017535584047436714,0.01224468182772398,0.04318155720829964
1751013743395188700,8.280188720703125,0.02558205835521221,0.020169716328382492,0.05336868390440941
1751013743405132800,8.2901328125,0.04079030826687813,0.03320029750466347,0.05609709024429321
1751013743415075800,8.300075927734374,0.04879337176680565,0.04940882697701454,0.04848524555563927
1751013743425019000,8.310018798828125,0.05163123458623886,0.05932138115167618,0.031325433403253555
1751013743434963000,8.319962890625,0.048051148653030396,0.06922168284654617,0.017857294529676437
1751013743444905700,8.32990576171875,0.05330929532647133,0.0724630132317543,0.013479855842888355
1751013743454850000,8.33985009765625,0.0540752187371254,0.06113525852560997,0.0132124749943614
1751013743464793000,8.34979296875,0.044505681842565536,0.04625830799341202,0.00842863880097866
1751013743474737000,8.35973681640625,0.03742886334657669,0.03785896673798561,-0.004220577888190746
1751013743484680000,8.369679931640626,0.03706241399049759,0.027542678639292717,-0.015973640605807304
1751013743494623000,8.379623046875,0.03485412150621414,0.017858626320958138,-0.030980819836258888
1751013743504566800,8.38956689453125,0.030123014003038406,0.007133543025702238,-0.03915752097964287
1751013743514509800,8.399509765625,0.026976224035024643,0.0008237157016992569,-0.05193962901830673
1751013743524454000,8.409453857421875,0.02568858489394188,-0.0025651566684246063,-0.06042632460594177
1751013743534397000,8.41939697265625,0.027597539126873016,-0.009283512830734253,-0.05873548611998558
1751013743544340000,8.429340087890624,0.03220986947417259,-0.01465697307139635,-0.04722556844353676
1751013743554283800,8.43928369140625,0.03251053765416145,-0.02183552458882332,-0.03528182581067085
1751013743564226800,8.449226806640626,0.039563387632369995,-0.03158482536673546,-0.018311096355319023
1751013743574171000,8.4591708984375,0.04393816366791725,-0.034563302993774414,0.004631769843399525
1751013743584114000,8.469114013671875,0.049436524510383606,-0.03164155036211014,0.02893630973994732
1751013743594057000,8.479056884765624,0.05464353784918785,-0.027704864740371704,0.03140026703476906
1751013743604000800,8.489000732421875,0.05179581791162491,-0.017557155340909958,0.027004985138773918
1751013743613943800,8.49894384765625,0.04959844425320625,0.002847185591235757,0.02786092646420002
1751013743623888000,8.508887939453125,0.050983820110559464,0.026813238859176636,0.032879654318094254
1751013743633831000,8.518830810546875,0.048771798610687256,0.04285478964447975,0.035520441830158234
1751013743643774000,8.52877392578125,0.044556815177202225,0.05481238290667534,0.03888295218348503
1751013743653718000,8.538718017578125,0.03536598011851311,0.06036267802119255,0.03249882161617279
1751013743663661000,8.5486611328125,0.04111760854721069,0.06611776351928711,0.03653537482023239
1751013743673604900,8.55860498046875,0.037936728447675705,0.06454144418239594,0.03261466696858406
1751013743683548000,8.5685478515625,0.027575168758630753,0.052731920033693314,0.021870944648981094
1751013743693491000,8.578490966796876,0.018067417666316032,0.04224678874015808,0.022855248302221298
1751013743703435000,8.58843505859375,0.014608236961066723,0.0442926287651062,0.031801339238882065
1751013743713378000,8.5983779296875,0.017183247953653336,0.04391099885106087,0.05154867842793465
1751013743723321900,8.60832177734375,0.014789332635700703,0.043360788375139236,0.06535051017999649
1751013743733265000,8.618264892578125,0.013235378079116344,0.05162883922457695,0.07278365641832352
1751013743743208000,8.6282080078125,0.009102684445679188,0.06778011471033096,0.07507824152708054
1751013743753152000,8.638152099609375,0.007364972028881311,0.08517827838659286,0.06955298036336899
1751013743763094800,8.6480947265625,0.005151086021214724,0.10562416166067123,0.06162821128964424
1751013743773038800,8.658038818359374,0.00563897704705596,0.12370835989713669,0.05408427491784096
1751013743782982000,8.66798193359375,0.0032719597220420837,0.14519447088241577,0.057435862720012665
1751013743792926000,8.677926025390626,0.0012263857061043382,0.16940687596797943,0.06640379130840302
1751013743802868700,8.68786865234375,0.003911917097866535,0.188699871301651,0.07239190489053726
1751013743812811800,8.697811767578125,0.015191735699772835,0.18944795429706573,0.07344785332679749
1751013743822756000,8.707756103515624,0.015276957303285599,0.18566520512104034,0.06312090903520584
1751013743832699100,8.71769921875,0.00652660895138979,0.17278508841991425,0.05421450361609459
1751013743842643000,8.727642822265626,-0.002030926523730159,0.14703045785427094,0.044321127235889435
1751013743852586000,8.7375859375,-0.010890197940170765,0.13397271931171417,0.04524470865726471
1751013743862529000,8.747529052734375,-0.005108209326863289,0.1315087527036667,0.0483185313642025
1751013743872473000,8.75747314453125,0.006547914352267981,0.1410902738571167,0.052078645676374435
1751013743882416000,8.767416015625,0.020860539749264717,0.15274453163146973,0.0453573614358902
1751013743892360000,8.77735986328125,0.0407588817179203,0.17338377237319946,0.028087027370929718
1751013743902303000,8.787302978515624,0.05486324802041054,0.17594146728515625,-0.007515440694987774
1751013743912246000,8.79724609375,0.06412865221500397,0.1604812890291214,-0.04945916309952736
1751013743922189800,8.80718994140625,0.05595860630273819,0.12888634204864502,-0.08324029296636581
1751013743932132900,8.8171328125,0.03723498806357384,0.07891372591257095,-0.1046595647931099
1751013743942077000,8.827076904296876,0.01413685828447342,0.017078852280974388,-0.11899536103010178
1751013743952020000,8.83702001953125,-0.01733797788619995,-0.04344627633690834,-0.11921826750040054
1751013743961963000,8.846962890625,-0.04167687147855759,-0.08617083728313446,-0.10940185934305191
1751013743971906800,8.85690673828125,-0.055397212505340576,-0.09367429465055466,-0.08067327737808228
1751013743981849900,8.866849853515625,-0.044249486178159714,-0.06226017698645592,-0.03954740986227989
1751013743991794000,8.8767939453125,-0.022831812500953674,-0.00908590666949749,-0.002368082758039236
1751013744001737000,8.886737060546874,0.009219330735504627,0.04637069255113602,0.028485704213380814
1751013744011680000,8.896679931640625,0.03379711136221886,0.08534898608922958,0.03796522691845894
1751013744021623800,8.906623779296876,0.05163150280714035,0.09821312129497528,0.041622012853622437
1751013744031566800,8.91656689453125,0.06678568571805954,0.09638805687427521,0.04188806191086769
1751013744041511200,8.92651123046875,0.07941679656505585,0.0783320888876915,0.046429283916950226
1751013744051454000,8.936453857421874,0.08832134306430817,0.054072290658950806,0.054726362228393555
1751013744061396700,8.946396728515625,0.09280743449926376,0.02552054077386856,0.07132211327552795
1751013744071341000,8.956341064453126,0.08733543753623962,-0.003906857222318649,0.08959779143333435
1751013744081284000,8.9662841796875,0.06167295202612877,-0.025236114859580994,0.10008132457733154
1751013744091228000,8.976227783203125,0.026569558307528496,-0.04500209540128708,0.11598385870456696
1751013744101171000,8.9861708984375,-0.00890614278614521,-0.043897949159145355,0.1208031177520752
1751013744111114000,8.996114013671875,-0.0317014716565609,-0.03912902623414993,0.10439617931842804
1751013744121058000,9.00605810546875,-0.05199022963643074,-0.04134504124522209,0.07122011482715607
1751013744131001000,9.0160009765625,-0.060814615339040756,-0.04662689194083214,0.031981367617845535
1751013744140945000,9.02594482421875,-0.07223770767450333,-0.04562554135918617,-0.005388373974710703
1751013744150888000,9.035887939453126,-0.09082870930433273,-0.04384628310799599,-0.034325748682022095
1751013744160831000,9.0458310546875,-0.1251983940601349,-0.04740000516176224,-0.05631999671459198
1751013744170775000,9.055775146484375,-0.16538043320178986,-0.05185361206531525,-0.07082676887512207
1751013744180717800,9.0657177734375,-0.19799377024173737,-0.052150286734104156,-0.07596374303102493
1751013744190662000,9.075661865234375,-0.20241275429725647,-0.05553862452507019,-0.05788833275437355
1751013744200605000,9.08560498046875,-0.19484539330005646,-0.05504780635237694,-0.032469525933265686
1751013744210549000,9.095549072265625,-0.17316272854804993,-0.0519833043217659,0.0008705873624421656
1751013744220491800,9.10549169921875,-0.14933648705482483,-0.04159724339842796,0.033664219081401825
1751013744230434800,9.115434814453126,-0.12073361128568649,-0.02466406673192978,0.05765104666352272
1751013744240379000,9.12537890625,-0.09325697273015976,-0.012772520072758198,0.08146077394485474
1751013744250322000,9.135322021484376,-0.07411497086286545,-0.0044205812737345695,0.09376377612352371
1751013744260266000,9.145265869140625,-0.054790012538433075,-0.005584915168583393,0.10033512860536575
1751013744270208800,9.155208740234375,-0.050217363983392715,-0.010861968621611595,0.10551683604717255
1751013744280151800,9.16515185546875,-0.04554910957813263,-0.0089993542060256,0.10152529180049896
1751013744290096000,9.17509619140625,-0.04087339714169502,-0.004971588961780071,0.09464448690414429
1751013744300039200,9.1850390625,-0.03260161727666855,-0.004774781409651041,0.08789230138063431
1751013744309983000,9.19498291015625,-0.023128755390644073,-0.0014136058744043112,0.07249657064676285
1751013744319926000,9.204926025390625,-0.03606719151139259,0.014829013496637344,0.051849614828825
1751013744329869000,9.214869140625,-0.05485738813877106,0.022668028250336647,0.018399780616164207
1751013744339813000,9.224813232421875,-0.08933760225772858,0.02269146405160427,-0.03008786030113697
1751013744349756000,9.234755859375,-0.11550022661685944,0.02797304466366768,-0.0738648995757103
1751013744359700000,9.244699951171874,-0.12145665287971497,0.034654650837183,-0.09951167553663254
1751013744369643000,9.25464306640625,-0.1091856062412262,0.04044169932603836,-0.10580312460660934
1751013744379586000,9.2645859375,-0.09394992887973785,0.04800001531839371,-0.09678300470113754
1751013744389529900,9.27452978515625,-0.08371646702289581,0.05998264253139496,-0.07759305834770203
1751013744399473000,9.284472900390625,-0.07431364804506302,0.06386233866214752,-0.05106664448976517
1751013744409417000,9.2944169921875,-0.060086507350206375,0.058154117316007614,-0.022414227947592735
1751013744419360000,9.304360107421875,-0.04999072849750519,0.0538075715303421,-0.0030546458438038826
1751013744429303000,9.314302978515625,-0.04393976181745529,0.04187687486410141,0.0017832526937127113
1751013744439246800,9.324246826171875,-0.04159191623330116,0.028791435062885284,-0.005549495108425617
1751013744449190000,9.33418994140625,-0.04154185205698013,0.014985074289143085,-0.014432468451559544
1751013744459134000,9.344134033203124,-0.036915142089128494,0.005918608978390694,-0.01679176278412342
1751013744469077000,9.354076904296875,-0.029219936579465866,-0.005322593729943037,-0.01398931909352541
1751013744479019800,9.364019775390625,-0.026261964812874794,-0.01726633869111538,-0.010236391797661781
1751013744488963800,9.3739638671875,-0.025021463632583618,-0.03092089854180813,-0.015532087534666061
1751013744498907000,9.383906982421875,-0.023560985922813416,-0.03989042341709137,-0.017582722008228302
1751013744508851000,9.393850830078126,-0.016624249517917633,-0.040164731442928314,-0.018817629665136337
1751013744518794000,9.4037939453125,-0.01079831924289465,-0.035466115921735764,-0.016273777931928635
1751013744528738000,9.413738037109376,0.001972337020561099,-0.03752793371677399,-0.005597165785729885
1751013744538681000,9.42368115234375,0.01053306832909584,-0.04066167399287224,0.016270317137241364
1751013744548624100,9.4336240234375,0.019347865134477615,-0.03749784082174301,0.047331295907497406
1751013744558568000,9.44356787109375,0.016084427013993263,-0.04386679083108902,0.0766897201538086
1751013744568511000,9.453510986328125,0.0036599822342395782,-0.05227678641676903,0.10354077070951462
1751013744578455000,9.463455078125,-0.0031364047899842262,-0.049792855978012085,0.13532346487045288
1751013744588398000,9.473398193359374,-0.015185610391199589,-0.0682954341173172,0.1466115415096283
1751013744598340900,9.4833408203125,-0.03959428146481514,-0.0908697172999382,0.13643613457679749
1751013744608285000,9.493284912109376,-0.07208883762359619,-0.16194549202919006,0.11443869769573212
1751013744618228000,9.50322802734375,-0.13124030828475952,-0.2631184458732605,0.08443818241357803
1751013744628172000,9.513172119140625,-0.19112628698349,-0.37009310722351074,0.06751086562871933
1751013744638114800,9.52311474609375,-0.22863876819610596,-0.429629921913147,0.07879814505577087
1751013744648057300,9.533057373046875,-0.2063816636800766,-0.44059255719184875,0.11207646876573563
1751013744658001700,9.543001708984375,-0.14914368093013763,-0.4128216505050659,0.14503948390483856
1751013744667944700,9.55294482421875,-0.08767392486333847,-0.34265589714050293,0.16409173607826233
1751013744677888500,9.562888427734375,-0.03502429649233818,-0.2503454089164734,0.14143729209899902
1751013744687831600,9.57283154296875,0.002959304489195347,-0.15289047360420227,0.07754778861999512
1751013744697774600,9.582774658203125,0.02797996997833252,-0.056533850729465485,-0.022607041522860527
1751013744707718700,9.59271875,0.046180546283721924,0.016029832884669304,-0.12545858323574066
1751013744717661700,9.60266162109375,0.05341688543558121,0.058945607393980026,-0.19284242391586304
1751013744727605500,9.61260546875,0.04571742191910744,0.07050851732492447,-0.2254352569580078
1751013744737548500,9.622548583984376,0.025489646941423416,0.05605847388505936,-0.20617979764938354
1751013744747491600,9.63249169921875,0.006384662352502346,0.034641332924366,-0.1547914445400238
1751013744757435600,9.642435546875,-0.0010210559703409672,0.016689764335751534,-0.08608614653348923
1751013744767378700,9.652378662109374,-0.012307532131671906,-0.0007811051327735186,-0.020193684846162796
1751013744777322500,9.662322509765625,-0.016865266487002373,0.001442900625988841,0.025074992328882217
1751013744787265500,9.672265625,-0.02197001315653324,0.013551228679716587,0.04362257942557335
1751013744797208600,9.68220849609375,-0.02322223223745823,0.03265887498855591,0.04234053194522858
1751013744807152400,9.69215234375,-0.022038456052541733,0.05962631106376648,0.02564011514186859
1751013744817095400,9.702095458984376,-0.02539883367717266,0.08999140560626984,-0.00017896443023346364
1751013744827039500,9.71203955078125,-0.028178375214338303,0.11291643232107162,-0.02474076673388481
1751013744836982500,9.721982421875,-0.03773033618927002,0.12251686304807663,-0.04110242798924446
1751013744846925600,9.731925537109374,-0.05233697220683098,0.13334155082702637,-0.04453151673078537
1751013744856869400,9.741869384765625,-0.0532967783510685,0.1414697766304016,-0.04176129400730133
1751013744866812400,9.7518125,-0.04331977665424347,0.14380590617656708,-0.04024702310562134
1751013744876756700,9.7617568359375,-0.03039252758026123,0.12838061153888702,-0.054662711918354034
1751013744886699800,9.77169970703125,-0.024321317672729492,0.10780555754899979,-0.06530097872018814
1751013744896642600,9.781642578125,-0.019992349669337273,0.10303077846765518,-0.06499897688627243
1751013744906586600,9.791586669921875,-0.014797587879002094,0.10437780618667603,-0.05464939773082733
1751013744916529700,9.80152978515625,-0.007476558443158865,0.11191321909427643,-0.03206605836749077
1751013744926473700,9.8114736328125,-0.003950532991439104,0.10835390537977219,-0.014643657021224499
1751013744936416500,9.82141650390625,-0.001457548001781106,0.09810126572847366,0.009367402642965317
1751013744946360600,9.831360595703124,-0.0041188448667526245,0.08821801096200943,0.029700636863708496
1751013744956303600,9.8413037109375,-0.004204865079373121,0.07668545842170715,0.040170587599277496
1751013744966246700,9.85124658203125,0.0007669904152862728,0.06498539447784424,0.03598090261220932
1751013744976190500,9.8611904296875,-0.002871153876185417,0.04964132234454155,0.017582455649971962
1751013744986133500,9.871133544921875,-0.006551642436534166,0.03338512033224106,0.00567013630643487
1751013744996077600,9.88107763671875,-0.013935789465904236,0.027422569692134857,0.0052200620993971825
1751013745006020600,9.8910205078125,-0.018986741080880165,0.04343456029891968,0.022773222997784615
1751013745015963600,9.900963623046875,-0.01333045307546854,0.07080946117639542,0.048719603568315506
1751013745025907500,9.910907470703124,-0.004244545940309763,0.1032925695180893,0.0648903176188469
1751013745035850500,9.9208505859375,-0.0029411951545625925,0.12156877666711807,0.0686887800693512
1751013745045794600,9.930794677734376,-0.0012796488590538502,0.1318293958902359,0.0625736340880394
1751013745055737600,9.940737548828125,-0.001097755040973425,0.1247299462556839,0.047504402697086334
1751013745065680400,9.950680419921875,-0.00014567491598427296,0.10735468566417694,0.03297153115272522
1751013745075624400,9.96062451171875,0.005648564547300339,0.08897354453802109,0.013739780522882938
1751013745085567500,9.9705673828125,0.005843241699039936,0.07907244563102722,-0.0028823392931371927
1751013745095511600,9.980511474609376,0.014414358884096146,0.07156073302030563,-0.0070310113951563835
1751013745105454600,9.99045458984375,0.02473224513232708,0.06412918120622635,-0.004241084214299917
1751013745115397600,10.000397705078125,0.0330924391746521,0.04567001760005951,0.006454170681536198
1751013745125341700,10.010341796875,0.036013927310705185,0.021252024918794632,0.02129809744656086
1751013745135284700,10.02028466796875,0.0434848926961422,-0.007736749015748501,0.04230937361717224
1751013745145228500,10.030228515625,0.048235971480607986,-0.03262319043278694,0.06497819721698761
1751013745155171600,10.040171630859374,0.05263444781303406,-0.048773664981126785,0.0864158496260643
1751013745165114600,10.050114501953125,0.0593823678791523,-0.049976348876953125,0.09904535859823227
1751013745175058700,10.06005859375,0.05867663025856018,-0.031686823815107346,0.09714998304843903
1751013745185001700,10.070001708984375,0.058152783662080765,-0.0029438582714647055,0.07297886908054352
1751013745194945500,10.079945556640626,0.058700066059827805,0.033187247812747955,0.040941573679447174
1751013745204888600,10.089888671875,0.05893176048994064,0.06761499494314194,0.005314338020980358
1751013745214831600,10.09983154296875,0.05554741621017456,0.0822589173913002,-0.02406512200832367
1751013745224775700,10.109775634765626,0.04243401065468788,0.08708296716213226,-0.05704597383737564
1751013745234718500,10.119718505859375,0.028666265308856964,0.0897008553147316,-0.07575548440217972
1751013745244662500,10.12966259765625,0.012474512681365013,0.08897621184587479,-0.07856857776641846
1751013745254605600,10.13960546875,0.006327936891466379,0.09509429335594177,-0.07293465733528137
1751013745264548600,10.149548583984375,0.0034290861804038286,0.10506303608417511,-0.06103432551026344
1751013745274492400,10.159492431640626,0.01495311688631773,0.10783591866493225,-0.04638028144836426
1751013745284435500,10.169435546875,0.019399797543883324,0.0970490500330925,-0.02792271040380001
1751013745294379500,10.179379638671875,0.013458284549415112,0.08017019927501678,-0.007195328362286091
1751013745304322600,10.189322509765624,0.012319250032305717,0.07800691574811935,0.012237224727869034
1751013745314266600,10.1992666015625,0.024925056844949722,0.07283958792686462,0.026525350287556648
1751013745324209700,10.209209716796876,0.043523240834474564,0.07097217440605164,0.03374411538243294
1751013745334152400,10.21915234375,0.06113552674651146,0.06868212670087814,0.024411600083112717
1751013745344096800,10.2290966796875,0.07125260680913925,0.057730406522750854,0.005824865773320198
1751013745354039600,10.23903955078125,0.061099305748939514,0.04211150109767914,-0.027089940384030342
1751013745363983600,10.248983642578125,0.05110180005431175,0.02365872450172901,-0.057312823832035065
1751013745373926700,10.2589267578125,0.033914025872945786,0.009845440275967121,-0.0763847827911377
1751013745383869700,10.26886962890625,0.027239875867962837,-0.004161987919360399,-0.06899318099021912
1751013745393813500,10.2788134765625,0.030409837141633034,-0.011321097612380981,-0.053167615085840225
1751013745403756500,10.288756591796876,0.03729863464832306,-0.01894972287118435,-0.022009694948792458
1751013745413700600,10.29870068359375,0.04673900827765465,-0.027248132973909378,0.013954431749880314
1751013745423643600,10.3086435546875,0.0550408810377121,-0.03422614559531212,0.040709879249334335
1751013745433586700,10.318586669921874,0.06529804319143295,-0.03518408536911011,0.05289437249302864
1751013745443530500,10.328530517578125,0.07773713767528534,-0.03411562740802765,0.04725539684295654
1751013745453473500,10.3384736328125,0.08720387518405914,-0.02947666496038437,0.030881483107805252
1751013745463417600,10.34841748046875,0.08650346845388412,-0.02762363851070404,0.009404687210917473
1751013745473360600,10.358360595703125,0.06964565813541412,-0.027106452733278275,-0.013681723736226559
1751013745483303400,10.368303466796876,0.05547391250729561,-0.02431492693722248,-0.018163025379180908
1751013745493247500,10.37824755859375,0.05018753558397293,-0.015223960392177105,-0.016752082854509354
1751013745503190500,10.3881904296875,0.043056923896074295,-0.003531351685523987,-0.016628511250019073
1751013745513134600,10.398134521484375,0.04252162575721741,0.019062373787164688,-0.00749147217720747
1751013745523077400,10.408077392578125,0.05407575145363808,0.03527303412556648,0.0052291168831288815
1751013745533020400,10.4180205078125,0.06315340101718903,0.04008563235402107,0.006489857099950314
1751013745542964700,10.42796484375,0.05789605528116226,0.04152587056159973,0.004588626325130463
1751013745552907500,10.437907470703125,0.04924078285694122,0.02875681407749653,-0.016819726675748825
1751013745562851600,10.4478515625,0.038491200655698776,0.018743593245744705,-0.032038625329732895
1751013745572794600,10.457794677734375,0.04465029388666153,0.02466726303100586,-0.04632861539721489
1751013745582737700,10.467737548828126,0.05407948046922684,0.023921044543385506,-0.0560171976685524
1751013745592681700,10.477681640625,0.054549526423215866,0.003887948812916875,-0.0557362325489521
1751013745602624800,10.487624755859375,0.04601995646953583,0.0002985403698403388,-0.04525802657008171
1751013745612568600,10.497568603515624,0.05315083637833595,0.023861655965447426,-0.015838351100683212
1751013745622511600,10.50751171875,0.07340098172426224,0.040408141911029816,-0.0005286374944262207
1751013745632455700,10.51745556640625,0.08320806920528412,0.04156075790524483,0.003439472522586584
1751013745642398700,10.527398681640625,0.09323220700025558,0.04874517023563385,0.003780623432248831
1751013745652341500,10.537341552734375,0.10372959077358246,0.04820428043603897,0.0026176210958510637
1751013745662285800,10.547285888671874,0.09699072688817978,0.029500100761651993,-0.004552407655864954
1751013745672228900,10.557228759765625,0.0670570656657219,0.001047154888510704,-0.01600426621735096
1751013745682172700,10.567172607421876,0.033907897770404816,-0.022174810990691185,-0.02292315848171711
1751013745692115700,10.57711572265625,0.007270163390785456,-0.04554218426346779,-0.018879415467381477
1751013745702058800,10.587058837890625,-0.020852817222476006,-0.060870274901390076,-0.014345915988087654
1751013745712002800,10.5970029296875,-0.028209000825881958,-0.07310163974761963,-0.015445535071194172
1751013745721945900,10.60694580078125,-0.01992950029671192,-0.06968773156404495,-0.006617689039558172
1751013745731889700,10.6168896484375,0.0030032468494027853,-0.057321079075336456,0.004093811381608248
1751013745741832700,10.626832763671874,0.03442002460360527,-0.033360887318849564,0.02269173040986061
1751013745751775700,10.636775634765625,0.05764944851398468,-0.0070709590800106525,0.033903371542692184
1751013745761719800,10.6467197265625,0.0719362422823906,0.02225337363779545,0.044025249779224396
1751013745771662600,10.65666259765625,0.07120946794748306,0.0407269224524498,0.038306377828121185
1751013745781606700,10.666606689453126,0.0651843324303627,0.04405587539076805,0.024563932791352272
1751013745791549700,10.6765498046875,0.05433407798409462,0.029892917722463608,0.008042746223509312
1751013745801492700,10.68649267578125,0.04103558510541916,0.01871509850025177,-0.005616073962301016
1751013745811436500,10.6964365234375,0.023082416504621506,0.0052054147236049175,-0.018253838643431664
1751013745821379600,10.706379638671875,0.008380435407161713,-0.012367986142635345,-0.02623346820473671
1751013745831323600,10.71632373046875,-0.007287207525223494,-0.0213612150400877,-0.020868796855211258
1751013745841266700,10.7262666015625,-0.014591459184885025,-0.029437517747282982,-0.003485811408609152
1751013745851209700,10.736209716796875,-0.019101789221167564,-0.03267884999513626,0.01696673221886158
1751013745861153500,10.746153564453126,-0.014669490046799183,-0.011055846698582172,0.03621712699532509
1751013745871096600,10.7560966796875,0.008990298956632614,0.002217081608250737,0.05056197568774223
1751013745881041000,10.766041015625,0.022900788113474846,0.014944061636924744,0.04217728227376938
1751013745890984000,10.77598388671875,0.019760122522711754,0.027850007638335228,0.015690280124545097
1751013745900926500,10.785926513671875,0.00726457079872489,0.04129630699753761,-0.01417520735412836
1751013745910870800,10.795870849609376,0.00615243474021554,0.04501381516456604,-0.04114344343543053
1751013745920813800,10.805813720703124,0.01344843115657568,0.03917776420712471,-0.05451943352818489
1751013745930758000,10.8157578125,0.002148372121155262,0.02901593968272209,-0.05495645850896835
1751013745940700700,10.82570068359375,-0.0035092474427074194,0.013341904617846012,-0.04514191299676895
1751013745950643700,10.835643798828125,-0.004334028344601393,-0.0014503574930131435,-0.03233583644032478
1751013745960587800,10.845587890625,0.007800931576639414,-0.004418184049427509,-0.012613529339432716
1751013745970530800,10.85553076171875,0.02743881568312645,-0.005656021647155285,0.010039318352937698
1751013745980474600,10.865474609375,0.035844285041093826,-0.007297860458493233,0.017645839601755142
1751013745990417700,10.875417724609376,0.027086477726697922,-0.01017087884247303,0.015276424586772919
1751013746000361700,10.88536181640625,0.013254553079605103,-0.011494469828903675,-0.0041223070584237576
1751013746010304800,10.8953046875,0.006307963281869888,-0.015854863449931145,-0.030160032212734222
1751013746020247800,10.905247802734374,-0.0015134743880480528,0.0023278691805899143,-0.05486591160297394
1751013746030191600,10.915191650390625,-0.00566907087340951,0.022712768986821175,-0.07608597725629807
1751013746040134700,10.925134765625,-0.007303985767066479,0.04026832804083824,-0.08330314606428146
1751013746050078700,10.93507861328125,-0.0062797339633107185,0.04957687482237816,-0.07734565436840057
1751013746060021800,10.945021728515625,-0.0049066077917814255,0.047630634158849716,-0.0568544939160347
1751013746069964500,10.954964599609376,-0.004777710884809494,0.037515684962272644,-0.03665521740913391
1751013746079908600,10.96490869140625,-0.010816961526870728,0.017251424491405487,-0.022774554789066315
1751013746089851600,10.9748515625,-0.016918795183300972,0.003566771512851119,-0.007709585130214691
1751013746099795700,10.984795654296875,-0.012706208042800426,0.009372462518513203,0.00890694186091423
1751013746109738500,10.994738525390625,0.006725014187395573,0.02105868048965931,0.014008759520947933
1751013746119681500,11.004681640625,0.026690199971199036,0.02515382319688797,0.012337359599769115
1751013746129625900,11.0146259765625,0.02732216753065586,0.017425062134861946,-0.00017656758427619934
1751013746139569000,11.02456884765625,0.015066567808389664,0.01643516682088375,-0.01034584827721119
1751013746149512700,11.0345126953125,-0.0002210423699580133,0.018126539885997772,-0.019570505246520042
1751013746159455700,11.044455810546875,-0.008963667787611485,0.032822128385305405,-0.021927403286099434
1751013746169398800,11.054398681640626,-0.009485380724072456,0.05896957591176033,-0.03121810592710972
1751013746179342800,11.0643427734375,-0.009535448625683784,0.09674571454524994,-0.03484373539686203
1751013746189285600,11.07428564453125,-0.0036037894897162914,0.11563525348901749,-0.03502829000353813
1751013746199229700,11.084229736328124,-0.0020788635592907667,0.11332336068153381,-0.03200134262442589
1751013746209172700,11.0941728515625,0.010494452901184559,0.11177659779787064,-0.02341504395008087
1751013746219115800,11.10411572265625,0.024767665192484856,0.08231857419013977,-0.017002418637275696
1751013746229059600,11.1140595703125,-0.0008221178431995213,0.06370627135038376,0.05407362058758736
1751013746239002600,11.124002685546875,-0.05013320967555046,-0.11322056502103806,0.04261403903365135
1751013746248946700,11.13394677734375,-0.0480964221060276,-0.22339127957820892,0.0031909996178001165
1751013746258889700,11.1438896484375,-0.017242902889847755,-0.16157345473766327,0.005374258849769831
1751013746268832800,11.153832763671875,0.021739384159445763,-0.09854281693696976,0.006090915761888027
1751013746278776600,11.163776611328124,0.04146222025156021,-0.06618674099445343,-0.015001852996647358
