time,seconds_elapsed,z,y,x
1751013379849629000,0.33562890625,-389.14984130859375,-196.73129272460938,-19.9736328125
1751013379859669000,0.3456689453125,-389.2923583984375,-196.4810791015625,-19.782562255859375
1751013379869710000,0.3557099609375,-388.818115234375,-196.9673614501953,-19.700668334960938
1751013379879750000,0.36575,-389.1290588378906,-196.64990234375,-20.13482666015625
1751013379889789700,0.375789794921875,-389.02777099609375,-196.68426513671875,-20.034820556640625
1751013379899829800,0.385829833984375,-389.2493896484375,-196.851318359375,-19.8857421875
1751013379909870800,0.395870849609375,-389.44769287109375,-196.9966583251953,-20.39337158203125
1751013379919911000,0.405910888671875,-389.3223876953125,-196.759033203125,-19.873367309570312
1751013379929951000,0.415950927734375,-388.93084716796875,-196.9010772705078,-19.925262451171875
1751013379939990800,0.42599072265625,-388.94622802734375,-197.17730712890625,-19.925827026367188
1751013379950032000,0.436031982421875,-388.8346252441406,-196.77708435058594,-19.902236938476562
1751013379960071700,0.44607177734375,-389.2723388671875,-197.05276489257812,-19.950836181640625
1751013379970112800,0.45611279296875,-388.940185546875,-197.04428100585938,-19.645065307617188
1751013379980152800,0.46615283203125,-389.28289794921875,-197.06124877929688,-19.870925903320312
1751013379990193000,0.47619287109375,-388.64422607421875,-197.12855529785156,-19.916595458984375
1751013380000234000,0.48623388671875,-388.99176025390625,-197.53408813476562,-20.125839233398438
1751013380010274800,0.49627490234375,-388.75408935546875,-197.0689239501953,-19.743499755859375
1751013380020316000,0.50631591796875,-388.83941650390625,-197.08871459960938,-20.15966796875
1751013380030357000,0.51635693359375,-389.04107666015625,-197.05755615234375,-20.38214111328125
1751013380040397800,0.526397705078125,-388.7860107421875,-197.53790283203125,-19.780960083007812
1751013380050439000,0.53643896484375,-388.7415771484375,-197.406005859375,-20.272537231445312
1751013380060479000,0.54647900390625,-388.5515441894531,-197.25682067871094,-20.15277099609375
1751013380070519000,0.55651904296875,-389.143310546875,-196.91644287109375,-19.891586303710938
1751013380080559900,0.566559814453125,-389.02301025390625,-197.3827667236328,-20.03643798828125
1751013380090599700,0.576599609375,-389.22174072265625,-197.1195526123047,-19.897918701171875
1751013380100640800,0.586640869140625,-388.802490234375,-197.33175659179688,-20.13153076171875
1751013380110681900,0.596681884765625,-388.767578125,-197.2685546875,-20.3408203125
1751013380120722000,0.606721923828125,-389.1888427734375,-197.21282958984375,-19.9730224609375
1751013380130762800,0.6167626953125,-389.23419189453125,-197.03793334960938,-19.801223754882812
1751013380140803800,0.626803955078125,-388.91046142578125,-197.0258026123047,-19.87744140625
1751013380150845000,0.636844970703125,-388.6107177734375,-196.9115753173828,-20.047866821289062
1751013380160885800,0.6468857421875,-389.1499938964844,-197.24017333984375,-20.341842651367188
1751013380170927900,0.656927978515625,-388.7301330566406,-197.5078125,-20.101318359375
1751013380180964900,0.66696484375,-389.184326171875,-197.0968475341797,-19.888702392578125
1751013380191011800,0.67701171875,-389.11578369140625,-197.40086364746094,-20.09075927734375
1751013380201053000,0.687052978515625,-388.7049865722656,-197.60931396484375,-20.1932373046875
1751013380211094000,0.697093994140625,-388.64630126953125,-197.34751892089844,-19.57830810546875
1751013380221134800,0.707134765625,-388.93511962890625,-197.42999267578125,-20.019149780273438
1751013380231177000,0.717177001953125,-388.40924072265625,-197.70753479003906,-19.722427368164062
1751013380241218800,0.72721875,-388.6468505859375,-197.4099884033203,-20.111160278320312
1751013380251260000,0.737260009765625,-388.1235656738281,-197.16494750976562,-19.6177978515625
1751013380261300700,0.74730078125,-388.2686767578125,-197.55862426757812,-19.748077392578125
1751013380271342800,0.7573427734375,-388.45166015625,-197.48529052734375,-19.791534423828125
1751013380281385000,0.767385009765625,-388.7149353027344,-197.5563201904297,-20.22235107421875
1751013380291426000,0.777426025390625,-388.6039733886719,-197.6185760498047,-20.244476318359375
1751013380301466000,0.787466064453125,-388.3160095214844,-197.53256225585938,-19.757736206054688
1751013380311507200,0.797507080078125,-388.61004638671875,-197.4856719970703,-19.638229370117188
1751013380321547300,0.80754736328125,-388.4106750488281,-197.4781494140625,-20.079971313476562
1751013380331587300,0.81758740234375,-388.68255615234375,-197.79774475097656,-19.718292236328125
1751013380341627400,0.82762744140625,-388.4061279296875,-197.68080139160156,-20.100799560546875
1751013380351668500,0.83766845703125,-388.7217712402344,-197.88572692871094,-20.031417846679688
1751013380361708300,0.847708251953125,-388.7388610839844,-197.76974487304688,-19.987991333007812
1751013380371749400,0.857749267578125,-388.44488525390625,-197.46591186523438,-20.038055419921875
1751013380381789200,0.8677890625,-388.597900390625,-197.64663696289062,-20.068084716796875
1751013380391831300,0.877831298828125,-388.3997802734375,-197.4454803466797,-20.17449951171875
1751013380401871000,0.88787109375,-387.9420166015625,-197.58944702148438,-19.849411010742188
1751013380411911200,0.8979111328125,-388.5126953125,-197.46221923828125,-19.984542846679688
1751013380421952300,0.9079521484375,-388.3682861328125,-197.46371459960938,-19.967437744140625
1751013380431991300,0.9179912109375,-388.25958251953125,-197.44534301757812,-19.650131225585938
1751013380442031400,0.92803125,-387.9515380859375,-197.61996459960938,-20.072311401367188
1751013380452071200,0.9380712890625,-388.95892333984375,-197.6610565185547,-19.907470703125
1751013380462111200,0.948111328125,-388.786376953125,-197.70838928222656,-19.67510986328125
1751013380472151300,0.9581513671875,-389.16424560546875,-198.42576599121094,-19.6302490234375
1751013380482192400,0.9681923828125,-388.636474609375,-197.87232971191406,-19.45513916015625
1751013380492233200,0.978233154296875,-388.33270263671875,-198.15802001953125,-19.615859985351562
1751013380502274300,0.9882744140625,-388.479248046875,-197.7847442626953,-19.706222534179688
1751013380512316200,0.998316162109375,-388.84210205078125,-198.40933227539062,-19.705474853515625
1751013380522358300,1.008358154296875,-388.826171875,-198.25701904296875,-19.480484008789062
1751013380532400400,1.018400390625,-388.5301818847656,-198.22027587890625,-19.502838134765625
1751013380542441500,1.02844140625,-388.6258544921875,-197.97415161132812,-19.337371826171875
1751013380552482300,1.038482421875,-388.6720886230469,-198.184326171875,-19.87506103515625
1751013380562524400,1.0485244140625,-388.4700012207031,-197.9117889404297,-19.728134155273438
1751013380572560400,1.058560302734375,-388.80670166015625,-197.9077911376953,-20.009368896484375
1751013380582605300,1.068605224609375,-388.56756591796875,-198.19577026367188,-19.580764770507812
1751013380592648200,1.078648193359375,-388.56304931640625,-198.394287109375,-19.551010131835938
1751013380602689300,1.088689208984375,-388.1136474609375,-198.38980102539062,-19.435516357421875
1751013380612731100,1.098731201171875,-388.2298583984375,-198.6361083984375,-19.414459228515625
1751013380622772200,1.108772216796875,-388.3612060546875,-198.3997344970703,-19.468719482421875
1751013380632813300,1.118813232421875,-388.5680847167969,-198.27008056640625,-19.900115966796875
1751013380642855400,1.12885546875,-388.2943115234375,-198.06024169921875,-19.766036987304688
1751013380652897300,1.138897216796875,-388.31866455078125,-198.08473205566406,-19.550033569335938
1751013380662939400,1.148939453125,-388.4208984375,-198.27342224121094,-19.446456909179688
1751013380672978400,1.158978515625,-388.850830078125,-197.88421630859375,-19.160446166992188
1751013380683019500,1.16901953125,-388.4310607910156,-198.28460693359375,-19.703765869140625
1751013380693060400,1.179060302734375,-388.52008056640625,-198.3706512451172,-19.85540771484375
1751013380703100200,1.18910009765625,-388.18035888671875,-198.0129852294922,-19.6727294921875
1751013380713140200,1.19914013671875,-388.6640319824219,-198.0814208984375,-19.836776733398438
1751013380723180300,1.20918017578125,-388.64337158203125,-198.35752868652344,-20.00732421875
1751013380733219300,1.21921923828125,-388.2855224609375,-198.464111328125,-19.846710205078125
1751013380743259100,1.229259033203125,-388.340087890625,-198.29759216308594,-19.545425415039062
1751013380753300200,1.23930029296875,-388.1553039550781,-198.25624084472656,-19.533187866210938
1751013380763340300,1.24934033203125,-388.3801574707031,-198.11151123046875,-19.553756713867188
1751013380773379300,1.25937939453125,-389.01031494140625,-198.28045654296875,-19.543731689453125
1751013380783420400,1.26942041015625,-388.8330078125,-198.04522705078125,-19.437286376953125
1751013380793460500,1.27946044921875,-388.40576171875,-198.06646728515625,-19.627243041992188
1751013380803500300,1.289500244140625,-388.1837158203125,-197.95941162109375,-19.431289672851562
1751013380813541000,1.299541015625,-388.498779296875,-198.22259521484375,-19.993865966796875
1751013380823582200,1.309582275390625,-389.0837707519531,-198.25872802734375,-19.444015502929688
1751013380833622300,1.319622314453125,-388.6581726074219,-198.1548614501953,-19.322341918945312
1751013380843663000,1.3296630859375,-388.6823425292969,-198.10202026367188,-19.474578857421875
1751013380853704200,1.3397041015625,-388.5414123535156,-198.258544921875,-19.40863037109375
1751013380863745300,1.349745361328125,-388.65765380859375,-198.27674865722656,-20.091995239257812
1751013380873785300,1.359785400390625,-388.5999450683594,-198.45111083984375,-19.80084228515625
1751013380883826200,1.369826171875,-388.136474609375,-198.28086853027344,-19.468673706054688
1751013380893866200,1.3798662109375,-388.4620361328125,-198.64356994628906,-19.501968383789062
1751013380903906300,1.38990625,-388.19207763671875,-198.4495391845703,-19.731613159179688
1751013380913946400,1.3999462890625,-388.5702209472656,-198.405029296875,-19.822052001953125
1751013380923986200,1.409986083984375,-388.62158203125,-198.25576782226562,-19.70184326171875
1751013380934026200,1.420026123046875,-388.5391845703125,-198.16787719726562,-19.864425659179688
1751013380944068000,1.430068115234375,-387.81439208984375,-197.92166137695312,-19.791259765625
1751013380954110500,1.4401103515625,-388.673095703125,-197.89974975585938,-19.896865844726562
1751013380964151300,1.4501513671875,-388.37664794921875,-197.944091796875,-19.941696166992188
1751013380974191000,1.460191162109375,-388.4064025878906,-197.97169494628906,-19.651382446289062
1751013380984233500,1.4702333984375,-388.4140625,-198.3419189453125,-19.55535888671875
1751013380994274300,1.4802744140625,-388.63934326171875,-198.5255584716797,-19.798843383789062
1751013381004316400,1.49031640625,-388.79632568359375,-198.66253662109375,-19.644790649414062
1751013381014359300,1.500359375,-388.659912109375,-198.22581481933594,-19.830398559570312
1751013381024401200,1.510401123046875,-388.60040283203125,-198.34153747558594,-19.46514892578125
1751013381034443300,1.520443359375,-388.77044677734375,-198.3966064453125,-19.989349365234375
1751013381044485400,1.5304853515625,-388.4558410644531,-198.48709106445312,-19.646072387695312
1751013381054528300,1.5405283203125,-388.3704833984375,-198.18731689453125,-19.92755126953125
1751013381064570000,1.550570068359375,-388.60211181640625,-198.05860900878906,-19.818862915039062
1751013381074611200,1.560611083984375,-388.7769775390625,-198.49948120117188,-20.16998291015625
1751013381084651300,1.5706513671875,-388.6739501953125,-197.96441650390625,-19.562713623046875
1751013381094693000,1.580693115234375,-388.52105712890625,-197.8042449951172,-19.734954833984375
1751013381104733200,1.590733154296875,-388.3362121582031,-197.90895080566406,-19.638534545898438
1751013381114775300,1.600775390625,-388.4725341796875,-198.38031005859375,-19.742462158203125
1751013381124816100,1.610816162109375,-388.002197265625,-197.8292694091797,-19.930007934570312
1751013381134857200,1.620857177734375,-388.30316162109375,-198.29168701171875,-19.79925537109375
1751013381144897300,1.630897216796875,-388.12933349609375,-198.12942504882812,-19.407806396484375
1751013381154938000,1.640938232421875,-388.353759765625,-198.19996643066406,-19.631927490234375
1751013381164979200,1.650979248046875,-388.1533203125,-197.80299377441406,-19.5390625
1751013381175019300,1.661019287109375,-388.73248291015625,-197.90628051757812,-19.714492797851562
1751013381185060400,1.671060302734375,-388.37451171875,-198.06805419921875,-19.722900390625
1751013381195101200,1.68110107421875,-388.7999572753906,-198.0675811767578,-19.853988647460938
1751013381205142300,1.691142333984375,-388.4195556640625,-198.27059936523438,-19.924118041992188
1751013381215182300,1.701182373046875,-388.65643310546875,-198.1723175048828,-20.039505004882812
1751013381225222400,1.711222412109375,-388.34356689453125,-198.01036071777344,-19.808517456054688
1751013381235262500,1.721262451171875,-388.71563720703125,-198.30345153808594,-20.012344360351562
1751013381245302300,1.73130224609375,-388.30242919921875,-198.16615295410156,-19.847640991210938
1751013381255342300,1.74134228515625,-388.2171630859375,-198.16226196289062,-19.902587890625
1751013381265383200,1.751383056640625,-388.16485595703125,-198.5810089111328,-19.935333251953125
1751013381275423200,1.76142333984375,-388.08819580078125,-197.7462921142578,-19.9168701171875
1751013381285464300,1.77146435546875,-388.09100341796875,-198.1083221435547,-19.398513793945312
1751013381295504600,1.781504638671875,-388.2027282714844,-197.9427947998047,-19.822311401367188
1751013381305545500,1.79154541015625,-388.3240966796875,-198.17840576171875,-19.784774780273438
1751013381315586600,1.801586669921875,-388.77886962890625,-198.22622680664062,-19.52862548828125
1751013381325626600,1.811626708984375,-388.458984375,-198.24642944335938,-20.025863647460938
1751013381335667700,1.821667724609375,-388.10064697265625,-198.00811767578125,-19.584426879882812
1751013381345708500,1.83170849609375,-388.1949768066406,-198.1872100830078,-19.829559326171875
1751013381355750700,1.841750732421875,-388.34246826171875,-198.3477325439453,-19.52301025390625
1751013381365791500,1.85179150390625,-388.2562255859375,-198.15492248535156,-19.6666259765625
1751013381375833600,1.86183349609375,-388.175537109375,-198.05142211914062,-19.567611694335938
1751013381385875500,1.87187548828125,-388.11187744140625,-197.81600952148438,-19.474411010742188
1751013381395917600,1.88191748046875,-388.55853271484375,-198.03030395507812,-19.563446044921875
1751013381405959700,1.891959716796875,-388.62432861328125,-198.05015563964844,-19.570480346679688
1751013381415996700,1.90199658203125,-388.348388671875,-198.10452270507812,-19.292510986328125
1751013381426043400,1.91204345703125,-388.0578308105469,-198.05372619628906,-19.641677856445312
1751013381436083500,1.92208349609375,-388.3076171875,-198.42076110839844,-19.40753173828125
1751013381446124500,1.93212451171875,-388.848876953125,-198.04055786132812,-19.769912719726562
1751013381456165600,1.94216552734375,-388.3961181640625,-198.36788940429688,-19.214340209960938
1751013381466205700,1.952205810546875,-388.679443359375,-198.2099609375,-19.9132080078125
1751013381476246500,1.96224658203125,-388.451416015625,-198.55899047851562,-19.472930908203125
1751013381486287600,1.97228759765625,-388.1932067871094,-198.38662719726562,-19.9149169921875
1751013381496328700,1.98232861328125,-388.97296142578125,-198.61105346679688,-19.476638793945312
1751013381506370600,1.99237060546875,-388.68603515625,-198.37571716308594,-19.93841552734375
1751013381516411600,2.00241162109375,-388.2998962402344,-198.53729248046875,-19.36798095703125
1751013381526452500,2.012452392578125,-388.2720947265625,-198.41397094726562,-19.313247680664062
1751013381536492500,2.022492431640625,-389.1584777832031,-198.7363739013672,-19.447052001953125
1751013381546533600,2.03253369140625,-388.40789794921875,-198.2371368408203,-19.707962036132812
1751013381556573700,2.04257373046875,-388.3055725097656,-198.34036254882812,-19.48004150390625
1751013381566614500,2.052614501953125,-388.24969482421875,-198.33407592773438,-19.485382080078125
1751013381576656600,2.06265673828125,-388.694580078125,-198.55361938476562,-19.335281372070312
1751013381586697500,2.072697509765625,-388.33538818359375,-198.3188018798828,-19.652542114257812
1751013381596737500,2.082737548828125,-388.2672119140625,-197.8668212890625,-19.445358276367188
1751013381606778600,2.092778564453125,-388.33575439453125,-197.98733520507812,-19.494415283203125
1751013381616819700,2.10281982421875,-388.32550048828125,-198.2445068359375,-19.306427001953125
1751013381626860500,2.112860595703125,-388.4364318847656,-198.19288635253906,-19.772964477539062
1751013381636902700,2.122902587890625,-387.77374267578125,-198.551513671875,-19.718414306640625
1751013381646945500,2.132945556640625,-388.3227233886719,-198.21665954589844,-19.4027099609375
1751013381656987400,2.1429873046875,-387.8916015625,-198.48104858398438,-19.4046630859375
1751013381667030500,2.153030517578125,-387.9432373046875,-198.3516387939453,-19.68096923828125
1751013381677072600,2.16307275390625,-387.802978515625,-198.30825805664062,-19.3800048828125
1751013381687109400,2.173109375,-387.0765380859375,-198.32626342773438,-19.793731689453125
1751013381697156400,2.18315625,-387.9947509765625,-198.3334503173828,-19.781494140625
1751013381707197400,2.193197509765625,-387.80126953125,-198.63528442382812,-19.792510986328125
1751013381717239600,2.203239501953125,-388.407958984375,-198.38302612304688,-19.670745849609375
1751013381727281700,2.21328173828125,-387.781982421875,-198.23558044433594,-19.91583251953125
1751013381737323500,2.223323486328125,-387.9886779785156,-198.1616668701172,-19.390045166015625
1751013381747365400,2.233365478515625,-388.5137939453125,-198.1262969970703,-19.648544311523438
1751013381757407500,2.243407470703125,-388.2626953125,-198.14141845703125,-19.565826416015625
1751013381767448300,2.2534482421875,-388.5594482421875,-198.26739501953125,-19.889633178710938
1751013381777489400,2.263489501953125,-388.05902099609375,-198.30416870117188,-19.779251098632812
1751013381787531500,2.273531494140625,-388.03607177734375,-198.275146484375,-20.040756225585938
1751013381797572600,2.283572509765625,-388.462158203125,-198.48390197753906,-20.086090087890625
1751013381807613700,2.29361376953125,-388.1105651855469,-198.30538940429688,-20.046188354492188
1751013381817654500,2.303654541015625,-387.5313720703125,-198.31170654296875,-19.7755126953125
1751013381827695600,2.313695556640625,-388.192138671875,-198.14175415039062,-19.829254150390625
1751013381837737500,2.323737548828125,-388.3885498046875,-198.39418029785156,-19.58160400390625
1751013381847778600,2.333778564453125,-387.83551025390625,-198.3827667236328,-20.210830688476562
1751013381857818600,2.343818603515625,-388.1594543457031,-198.62384033203125,-20.125503540039062
1751013381867859700,2.353859619140625,-388.15093994140625,-198.93231201171875,-20.206710815429688
1751013381877901600,2.363901611328125,-388.32763671875,-198.33950805664062,-19.80999755859375
1751013381887943400,2.373943359375,-387.99505615234375,-198.6295166015625,-19.831710815429688
1751013381897983500,2.3839833984375,-388.2242126464844,-198.20233154296875,-19.63946533203125
1751013381908025600,2.394025634765625,-388.1708984375,-198.32794189453125,-20.233322143554688
1751013381918065700,2.404065673828125,-388.33642578125,-198.33392333984375,-19.786270141601562
1751013381928105500,2.41410546875,-388.7225341796875,-198.4633026123047,-20.328384399414062
1751013381938144500,2.42414453125,-388.19622802734375,-198.20147705078125,-19.738555908203125
1751013381948185300,2.434185302734375,-387.990478515625,-198.44444274902344,-19.943283081054688
1751013381958225400,2.444225341796875,-387.87298583984375,-198.57154846191406,-19.921768188476562
1751013381968265500,2.454265380859375,-388.1490478515625,-198.33163452148438,-20.037063598632812
1751013381978305500,2.464305419921875,-387.8441162109375,-198.70358276367188,-19.940155029296875
1751013381988345600,2.474345703125,-387.8572998046875,-198.22689819335938,-19.656494140625
1751013381998386700,2.48438671875,-388.1668701171875,-198.5818328857422,-19.67657470703125
1751013382008426500,2.494426513671875,-388.15802001953125,-198.53936767578125,-19.721694946289062
1751013382018466600,2.504466552734375,-388.63641357421875,-198.31227111816406,-19.365921020507812
1751013382028506600,2.514506591796875,-388.43792724609375,-198.70611572265625,-19.896209716796875
1751013382038546700,2.524546630859375,-387.94464111328125,-198.5580596923828,-19.383651733398438
1751013382048586500,2.53458642578125,-387.876953125,-198.63638305664062,-19.596298217773438
1751013382058627600,2.544627685546875,-388.64801025390625,-198.61203002929688,-19.42437744140625
1751013382068668700,2.554668701171875,-388.07525634765625,-198.491943359375,-19.543411254882812
1751013382078709500,2.56470947265625,-388.3016357421875,-198.6475830078125,-19.868759155273438
1751013382088749600,2.57474951171875,-388.32318115234375,-198.48765563964844,-19.818023681640625
1751013382098790700,2.584790771484375,-388.38238525390625,-198.67178344726562,-19.845382690429688
1751013382108832500,2.59483251953125,-388.3099365234375,-199.01373291015625,-19.980422973632812
1751013382118874600,2.60487451171875,-388.3001708984375,-198.79307556152344,-19.867919921875
1751013382128915500,2.61491552734375,-388.59088134765625,-198.50291442871094,-20.0313720703125
1751013382138955500,2.62495556640625,-388.8812255859375,-198.70787048339844,-19.957992553710938
1751013382148995600,2.63499560546875,-388.680419921875,-198.58265686035156,-19.97381591796875
1751013382159036700,2.64503662109375,-389.0911865234375,-198.61106872558594,-19.708160400390625
1751013382169076500,2.655076416015625,-388.6109619140625,-198.47496032714844,-19.648712158203125
1751013382179117600,2.66511767578125,-388.80755615234375,-198.31063842773438,-19.7662353515625
1751013382189158400,2.675158447265625,-388.71826171875,-198.34622192382812,-20.229843139648438
1751013382199199500,2.685199462890625,-388.58160400390625,-198.52294921875,-20.32232666015625
1751013382209239600,2.695239501953125,-388.66107177734375,-198.7061767578125,-19.948272705078125
1751013382219280400,2.7052802734375,-388.7718811035156,-198.36917114257812,-19.74969482421875
1751013382229321500,2.715321533203125,-388.17120361328125,-198.4495391845703,-20.23406982421875
1751013382239363300,2.72536328125,-388.5542907714844,-198.2860565185547,-20.252899169921875
1751013382249404400,2.735404296875,-388.73870849609375,-198.3221435546875,-20.246490478515625
1751013382259444500,2.745444580078125,-388.1915283203125,-198.38218688964844,-19.8323974609375
1751013382269484500,2.755484619140625,-388.74151611328125,-198.3138885498047,-20.338592529296875
1751013382279525600,2.765525634765625,-388.8321228027344,-198.2292938232422,-20.127044677734375
1751013382289567500,2.7755673828125,-388.46075439453125,-198.3154296875,-19.834487915039062
1751013382299608800,2.78560888671875,-388.3154602050781,-198.39979553222656,-20.046661376953125
1751013382309649700,2.795649658203125,-388.0863342285156,-198.48651123046875,-19.833526611328125
1751013382319690800,2.805690673828125,-388.809326171875,-198.38035583496094,-19.98785400390625
1751013382329732900,2.81573291015625,-388.7107238769531,-198.22705078125,-19.939178466796875
1751013382339774000,2.82577392578125,-388.4889221191406,-198.36387634277344,-20.038040161132812
1751013382349814800,2.835814697265625,-388.97479248046875,-198.3594970703125,-20.089126586914062
1751013382359855900,2.84585595703125,-388.33074951171875,-198.0938262939453,-19.83038330078125
1751013382369895700,2.855895751953125,-388.24822998046875,-198.3416290283203,-19.923233032226562
1751013382379938800,2.865938720703125,-388.4425048828125,-198.7581329345703,-20.084304809570312
1751013382389980000,2.87597998046875,-387.8846435546875,-198.3596954345703,-19.829315185546875
1751013382400020000,2.88602001953125,-388.34686279296875,-198.66416931152344,-20.141036987304688
1751013382410056000,2.896055908203125,-387.9625244140625,-198.74644470214844,-20.188461303710938
1751013382420100600,2.9061005859375,-388.3192443847656,-198.5181427001953,-19.82586669921875
1751013382430140700,2.916140625,-388.443603515625,-198.7211151123047,-19.83978271484375
1751013382440180700,2.9261806640625,-388.26605224609375,-198.50299072265625,-19.780181884765625
1751013382450220800,2.936220703125,-388.5286865234375,-198.3865203857422,-20.18829345703125
1751013382460260900,2.9462607421875,-388.2537841796875,-198.17723083496094,-19.862319946289062
1751013382470300700,2.95630078125,-388.77362060546875,-198.19480895996094,-20.1988525390625
1751013382480340700,2.9663408203125,-388.162353515625,-198.66236877441406,-19.954345703125
1751013382490381800,2.9763818359375,-388.75830078125,-198.46351623535156,-19.849136352539062
1751013382500422700,2.986422607421875,-388.33087158203125,-198.61717224121094,-20.310699462890625
1751013382510462700,2.996462646484375,-388.38427734375,-198.42364501953125,-19.869796752929688
1751013382520502800,3.006502685546875,-388.252685546875,-198.52500915527344,-19.836837768554688
1751013382530537700,3.016537841796875,-388.50390625,-198.37152099609375,-19.957962036132812
1751013382540584000,3.026583984375,-388.28314208984375,-198.3880615234375,-20.090774536132812
1751013382550624000,3.0366240234375,-388.24127197265625,-198.20831298828125,-19.89007568359375
1751013382560665900,3.046665771484375,-388.6847839355469,-198.4293670654297,-19.864028930664062
1751013382570701800,3.056701904296875,-388.08062744140625,-198.6596221923828,-19.9056396484375
1751013382580747800,3.066747802734375,-388.48358154296875,-198.417724609375,-19.79351806640625
1751013382590788900,3.076788818359375,-388.652099609375,-198.52194213867188,-19.829803466796875
1751013382600826600,3.08682666015625,-388.279296875,-198.44053649902344,-19.64483642578125
1751013382610872800,3.096872802734375,-388.43341064453125,-198.65086364746094,-19.969329833984375
1751013382620913700,3.10691357421875,-388.35357666015625,-198.7987060546875,-19.878921508789062
1751013382630955800,3.116955810546875,-388.5859375,-198.74522399902344,-19.99676513671875
1751013382640998000,3.126997802734375,-388.29266357421875,-198.69570922851562,-19.8211669921875
1751013382651035000,3.137034912109375,-388.09246826171875,-198.55856323242188,-20.085205078125
1751013382661081900,3.147081787109375,-388.3125,-198.35411071777344,-19.699264526367188
1751013382671122700,3.157122802734375,-388.46441650390625,-198.59654235839844,-20.006683349609375
1751013382681164800,3.167164794921875,-388.5184631347656,-198.4051055908203,-20.053970336914062
1751013382691206700,3.17720654296875,-388.84857177734375,-198.42929077148438,-19.970489501953125
1751013382701248800,3.187248779296875,-388.0919189453125,-198.40805053710938,-19.6734619140625
1751013382711291000,3.197290771484375,-388.28851318359375,-198.6786346435547,-19.864395141601562
1751013382721331700,3.207331787109375,-388.89459228515625,-198.8627471923828,-20.099288940429688
1751013382731373800,3.217373779296875,-388.1458740234375,-198.90167236328125,-19.727630615234375
1751013382741415000,3.227414794921875,-388.21978759765625,-198.69932556152344,-19.833343505859375
1751013382751457800,3.237457763671875,-388.36029052734375,-198.66717529296875,-20.212661743164062
1751013382761500000,3.2475,-388.1097106933594,-198.63893127441406,-19.954742431640625
1751013382771541800,3.257541748046875,-388.1014404296875,-198.6555633544922,-20.05194091796875
1751013382781584600,3.267584716796875,-388.2569580078125,-198.63900756835938,-19.543228149414062
1751013382791626800,3.277626708984375,-388.3184814453125,-198.2264404296875,-19.702362060546875
1751013382801668900,3.2876689453125,-387.99908447265625,-198.2294158935547,-19.977493286132812
1751013382811710700,3.297710693359375,-388.716552734375,-198.0906982421875,-20.118408203125
1751013382821751800,3.307751708984375,-388.09832763671875,-198.01271057128906,-19.549789428710938
1751013382831793700,3.317793701171875,-388.4066467285156,-198.16481018066406,-19.884536743164062
1751013382841836800,3.3278369140625,-388.3516540527344,-198.30615234375,-19.6568603515625
1751013382851879000,3.33787890625,-388.2872314453125,-198.69871520996094,-19.541610717773438
1751013382861920000,3.347919921875,-388.41717529296875,-198.27723693847656,-19.600662231445312
1751013382871960800,3.3579609375,-388.2117614746094,-198.2913818359375,-19.865310668945312
1751013382882003000,3.3680029296875,-388.0469970703125,-198.1604766845703,-19.579025268554688
1751013382892040700,3.378040771484375,-388.35357666015625,-198.72499084472656,-19.937973022460938
1751013382902084900,3.3880849609375,-388.6728515625,-198.17201232910156,-20.065185546875
1751013382912131800,3.3981318359375,-388.1428527832031,-198.55068969726562,-19.815383911132812
1751013382922174700,3.4081748046875,-388.3414611816406,-198.45530700683594,-19.86383056640625
1751013382932219000,3.418218994140625,-387.86175537109375,-198.457275390625,-19.90045166015625
1751013382942261800,3.42826171875,-388.2667236328125,-198.72207641601562,-19.885787963867188
1751013382952305000,3.438304931640625,-388.68170166015625,-198.71572875976562,-20.396224975585938
1751013382962347800,3.44834765625,-388.2413024902344,-198.4425048828125,-20.139068603515625
1751013382972392000,3.458391845703125,-388.650390625,-198.5788116455078,-19.767837524414062
1751013382982433800,3.468433837890625,-388.101806640625,-198.59942626953125,-19.915069580078125
1751013382992476700,3.4784765625,-388.032958984375,-198.40945434570312,-19.89385986328125
1751013383002519800,3.488519775390625,-388.0550842285156,-198.3032684326172,-19.806182861328125
1751013383012562000,3.49856201171875,-388.013671875,-198.73460388183594,-20.2213134765625
1751013383022604800,3.508604736328125,-388.28387451171875,-198.31597900390625,-19.825225830078125
1751013383032647000,3.51864697265625,-387.89886474609375,-198.5637969970703,-19.8675537109375
1751013383042689800,3.528689697265625,-388.29486083984375,-198.4565887451172,-20.237274169921875
1751013383052731600,3.538731689453125,-388.35308837890625,-198.59332275390625,-20.0828857421875
1751013383062774800,3.54877490234375,-388.52996826171875,-198.5780487060547,-20.029388427734375
1751013383072817000,3.55881689453125,-388.28851318359375,-198.171630859375,-20.158126831054688
1751013383082858800,3.568858642578125,-388.07452392578125,-198.4536590576172,-20.3604736328125
1751013383092898800,3.57889892578125,-388.2156982421875,-198.3626708984375,-19.935440063476562
1751013383102940000,3.58893994140625,-388.2030029296875,-198.02639770507812,-19.948196411132812
1751013383112980000,3.59897998046875,-388.10296630859375,-198.31320190429688,-20.083938598632812
1751013383123019800,3.609019775390625,-388.6268310546875,-198.5038299560547,-20.033157348632812
1751013383133059800,3.619059814453125,-388.5307312011719,-198.05728149414062,-20.10650634765625
1751013383143100700,3.6291005859375,-388.31231689453125,-198.50180053710938,-19.883514404296875
1751013383153142800,3.639142822265625,-388.43841552734375,-198.30714416503906,-19.8575439453125
1751013383163185000,3.649184814453125,-388.5177917480469,-198.49411010742188,-19.998382568359375
1751013383173226000,3.65922607421875,-388.266357421875,-198.637939453125,-19.8428955078125
1751013383183266800,3.669266845703125,-388.550537109375,-198.673095703125,-20.013336181640625
1751013383193308000,3.679307861328125,-388.17877197265625,-198.37559509277344,-19.6549072265625
1751013383203349000,3.689348876953125,-388.93212890625,-198.5861358642578,-20.14044189453125
1751013383213390800,3.699390869140625,-388.28216552734375,-197.9171600341797,-19.91064453125
1751013383223432700,3.7094326171875,-388.24176025390625,-198.38230895996094,-20.224044799804688
1751013383233473800,3.719473876953125,-388.826416015625,-198.50762939453125,-19.888580322265625
1751013383243515000,3.729514892578125,-388.6810302734375,-198.3022918701172,-19.529037475585938
1751013383253555700,3.7395556640625,-388.502685546875,-198.37863159179688,-19.929718017578125
1751013383263596800,3.7495966796875,-388.84014892578125,-198.31837463378906,-19.483016967773438
1751013383273638000,3.759637939453125,-388.69219970703125,-198.3077392578125,-19.945526123046875
1751013383283678700,3.7696787109375,-388.48828125,-198.3047637939453,-19.933547973632812
1751013383293719800,3.7797197265625,-388.59881591796875,-198.1732635498047,-19.927413940429688
1751013383303762200,3.78976220703125,-388.320068359375,-198.16436767578125,-19.779098510742188
1751013383313803300,3.79980322265625,-388.44683837890625,-198.3065643310547,-19.717025756835938
1751013383323845000,3.80984521484375,-388.08074951171875,-198.3807830810547,-19.51220703125
1751013383333886200,3.81988623046875,-388.33905029296875,-198.42056274414062,-20.121673583984375
1751013383343927000,3.829927001953125,-388.1029052734375,-198.3069610595703,-19.903823852539062
1751013383353968000,3.839968017578125,-388.2124328613281,-198.18814086914062,-20.075531005859375
1751013383364009200,3.85000927734375,-388.3402099609375,-198.23651123046875,-19.637557983398438
1751013383374049300,3.86004931640625,-388.0321044921875,-197.90797424316406,-20.000900268554688
1751013383384091100,3.870091064453125,-388.021728515625,-198.02288818359375,-19.682708740234375
1751013383394134000,3.880134033203125,-388.1728515625,-198.26239013671875,-19.878494262695312
1751013383404172300,3.89017236328125,-389.061279296875,-198.2197723388672,-19.866561889648438
1751013383414215200,3.900215087890625,-388.52337646484375,-198.20480346679688,-19.888168334960938
1751013383424263200,3.91026318359375,-388.64398193359375,-198.0154571533203,-19.610366821289062
1751013383434302200,3.92030224609375,-388.701416015625,-198.10182189941406,-19.52264404296875
1751013383444350000,3.930349853515625,-388.3341064453125,-198.2872772216797,-19.845184326171875
1751013383454392300,3.940392333984375,-388.78076171875,-197.99728393554688,-20.001068115234375
1751013383464435200,3.950435302734375,-388.6614990234375,-198.13580322265625,-19.84088134765625
1751013383474477000,3.96047705078125,-388.4813232421875,-198.01959228515625,-19.5260009765625
1751013383484518100,3.97051806640625,-388.74639892578125,-198.42404174804688,-20.125778198242188
1751013383494559000,3.98055908203125,-388.59185791015625,-198.25669860839844,-20.0115966796875
1751013383504601300,3.990601318359375,-388.9031677246094,-197.8605499267578,-19.953338623046875
1751013383514644200,4.000644287109375,-388.65277099609375,-197.88929748535156,-20.027145385742188
1751013383524685000,4.01068505859375,-388.8511962890625,-198.07350158691406,-19.981536865234375
1751013383534727200,4.02072705078125,-388.65545654296875,-198.0607452392578,-19.987716674804688
1751013383544769000,4.03076904296875,-388.45843505859375,-198.16567993164062,-19.832565307617188
1751013383554810000,4.04081005859375,-388.190185546875,-198.09031677246094,-19.906600952148438
1751013383564852200,4.050852294921875,-388.18048095703125,-198.42039489746094,-20.223388671875
1751013383574893300,4.060893310546875,-388.4415283203125,-198.17738342285156,-19.689208984375
1751013383584933000,4.07093310546875,-388.65185546875,-198.3524627685547,-19.807510375976562
1751013383594974000,4.080973876953125,-388.5386962890625,-198.40345764160156,-19.82470703125
1751013383605015000,4.09101513671875,-388.50897216796875,-198.18673706054688,-19.862091064453125
1751013383615054000,4.10105419921875,-388.67559814453125,-198.02635192871094,-19.932037353515625
1751013383625095200,4.11109521484375,-388.7913818359375,-197.90744018554688,-19.80108642578125
1751013383635135200,4.12113525390625,-388.6180114746094,-198.08236694335938,-19.838119506835938
1751013383645176000,4.131176025390625,-388.8283386230469,-198.28134155273438,-19.91986083984375
1751013383655217200,4.141217041015625,-388.672607421875,-198.0308837890625,-19.6507568359375
1751013383665258200,4.15125830078125,-388.47528076171875,-198.28973388671875,-20.013931274414062
1751013383675298300,4.16129833984375,-388.32843017578125,-198.07412719726562,-19.680831909179688
1751013383685340200,4.171340087890625,-388.77032470703125,-197.94395446777344,-20.0069580078125
1751013383695383000,4.181383056640625,-388.56854248046875,-198.00802612304688,-19.553985595703125
1751013383705425200,4.191425048828125,-389.0625,-197.97142028808594,-20.042526245117188
1751013383715466000,4.201466064453125,-388.96783447265625,-198.07911682128906,-19.599578857421875
1751013383725508000,4.211508056640625,-387.9485778808594,-198.07977294921875,-19.918563842773438
1751013383735550200,4.22155029296875,-388.66326904296875,-198.26168823242188,-19.762161254882812
1751013383745591000,4.231591064453125,-388.37200927734375,-197.9527130126953,-19.818023681640625
1751013383755633200,4.241633056640625,-388.48089599609375,-198.11045837402344,-19.410308837890625
1751013383765676000,4.251676025390625,-388.3731994628906,-197.83180236816406,-20.178115844726562
1751013383775719200,4.26171923828125,-388.45892333984375,-198.67257690429688,-19.64691162109375
1751013383785755100,4.271755126953125,-388.67596435546875,-198.08668518066406,-19.900482177734375
1751013383795802000,4.281802001953125,-388.426513671875,-198.2582550048828,-19.932296752929688
1751013383805844000,4.291843994140625,-387.8857727050781,-198.1468505859375,-20.047332763671875
1751013383815884000,4.301884033203125,-388.2129211425781,-198.20462036132812,-19.795928955078125
1751013383825925000,4.311925048828125,-388.26434326171875,-198.09361267089844,-19.888687133789062
1751013383835967000,4.321967041015625,-388.40338134765625,-198.65638732910156,-19.849441528320312
1751013383846007000,4.332007080078125,-388.2757568359375,-198.11830139160156,-19.878265380859375
1751013383856048000,4.342048095703125,-388.6622314453125,-198.36085510253906,-19.991073608398438
1751013383866090000,4.352090087890625,-388.4228515625,-198.26129150390625,-19.959487915039062
1751013383876132000,4.362132080078125,-388.42071533203125,-198.53143310546875,-19.837722778320312
1751013383886174200,4.37217431640625,-388.63543701171875,-198.16957092285156,-20.120742797851562
1751013383896216000,4.382216064453125,-388.24365234375,-198.34571838378906,-19.6529541015625
1751013383906256100,4.392256103515625,-388.58673095703125,-197.96620178222656,-19.947067260742188
1751013383916297200,4.402297119140625,-388.6536560058594,-198.03707885742188,-19.534210205078125
1751013383926338300,4.41233837890625,-388.5574951171875,-197.90025329589844,-20.248397827148438
1751013383936378400,4.42237841796875,-388.564208984375,-198.2235107421875,-19.752105712890625
1751013383946418000,4.43241796875,-388.48760986328125,-197.98162841796875,-20.317855834960938
1751013383956459000,4.442458984375,-388.67816162109375,-198.15701293945312,-19.758758544921875
1751013383966500000,4.4525,-388.58953857421875,-198.26458740234375,-20.01605224609375
1751013383976541000,4.462541015625,-388.65740966796875,-198.07321166992188,-19.829498291015625
1751013383986583300,4.472583251953125,-388.69378662109375,-198.16510009765625,-19.625274658203125
1751013383996624100,4.4826240234375,-388.58453369140625,-197.90029907226562,-19.70111083984375
1751013384006666200,4.492666259765625,-388.48516845703125,-198.18495178222656,-20.030319213867188
1751013384016709000,4.502709228515625,-388.6553955078125,-198.26573181152344,-19.807159423828125
1751013384026753300,4.512753173828125,-388.90826416015625,-198.29342651367188,-19.690048217773438
1751013384036795100,4.522795166015625,-388.671630859375,-197.9013671875,-19.868728637695312
1751013384046839300,4.53283935546875,-388.59521484375,-198.11363220214844,-19.875808715820312
1751013384056882200,4.542882080078125,-388.666015625,-198.25196838378906,-19.92242431640625
1751013384066925000,4.552925048828125,-388.341064453125,-197.8460693359375,-19.584396362304688
1751013384076968200,4.56296826171875,-388.37945556640625,-197.7841033935547,-19.549560546875
1751013384087011000,4.573010986328125,-389.10943603515625,-198.00852966308594,-20.334091186523438
1751013384097054000,4.583053955078125,-388.29461669921875,-198.24569702148438,-20.039886474609375
1751013384107095000,4.593094970703125,-388.90106201171875,-198.10716247558594,-20.0965576171875
1751013384117136100,4.60313623046875,-388.60943603515625,-198.45242309570312,-19.976791381835938
1751013384127176000,4.613176025390625,-388.31298828125,-197.83322143554688,-20.027557373046875
1751013384137217000,4.623217041015625,-388.42462158203125,-198.0233917236328,-19.482391357421875
1751013384147257000,4.633257080078125,-388.2424011230469,-197.89044189453125,-20.058258056640625
1751013384157297200,4.643297119140625,-388.0120544433594,-198.03305053710938,-19.86529541015625
1751013384167337200,4.653337158203125,-388.29486083984375,-198.14820861816406,-19.995071411132812
1751013384177377300,4.663377197265625,-388.07208251953125,-198.05413818359375,-19.68731689453125
1751013384187418000,4.673418212890625,-388.99224853515625,-197.9020538330078,-20.173110961914062
1751013384197458000,4.6834580078125,-388.4425048828125,-198.21649169921875,-19.905899047851562
1751013384207499000,4.6934990234375,-388.3466796875,-198.1005096435547,-20.15850830078125
1751013384217540000,4.7035400390625,-388.31500244140625,-198.1795654296875,-19.925765991210938
1751013384227582200,4.713582275390625,-388.80450439453125,-198.2522430419922,-20.33673095703125
1751013384237623300,4.723623291015625,-388.56768798828125,-198.26573181152344,-19.981491088867188
1751013384247664000,4.7336640625,-388.5958251953125,-198.5565185546875,-20.275405883789062
1751013384257705200,4.743705322265625,-388.9334716796875,-198.24827575683594,-20.221954345703125
1751013384267745000,4.7537451171875,-388.594970703125,-198.27952575683594,-20.527511596679688
1751013384277786000,4.7637861328125,-388.48968505859375,-198.3629913330078,-20.483779907226562
1751013384287826200,4.773826171875,-388.6422424316406,-197.92678833007812,-20.5306396484375
1751013384297864700,4.78386474609375,-388.0902099609375,-198.58575439453125,-20.477462768554688
1751013384307904800,4.79390478515625,-388.6844482421875,-197.95999145507812,-20.381484985351562
1751013384317945600,4.803945556640625,-388.712646484375,-198.393310546875,-20.138473510742188
1751013384327986700,4.813986572265625,-388.468505859375,-198.18995666503906,-20.402572631835938
1751013384338027800,4.82402783203125,-388.54327392578125,-198.69039916992188,-20.300888061523438
1751013384348069600,4.834069580078125,-388.52764892578125,-198.23228454589844,-20.220748901367188
1751013384358110700,4.84411083984375,-388.85247802734375,-198.6104736328125,-20.267791748046875
1751013384368151600,4.854151611328125,-388.00640869140625,-198.46388244628906,-20.1796875
1751013384378192600,4.864192626953125,-388.32830810546875,-198.63026428222656,-20.13238525390625
1751013384388233700,4.874233642578125,-388.1246643066406,-198.35731506347656,-20.266448974609375
1751013384398274600,4.884274658203125,-388.14398193359375,-198.62583923339844,-19.884689331054688
1751013384408316700,4.894316650390625,-388.3153076171875,-198.54861450195312,-20.056198120117188
1751013384418358500,4.904358642578125,-388.1233825683594,-198.51101684570312,-20.2493896484375
1751013384428400600,4.914400634765625,-388.60333251953125,-198.65415954589844,-20.538177490234375
1751013384438440400,4.9244404296875,-388.3507080078125,-198.4493865966797,-20.080764770507812
1751013384448481500,4.9344814453125,-388.273193359375,-198.3927001953125,-20.364410400390625
1751013384458523400,4.9445234375,-388.67803955078125,-198.46971130371094,-20.2412109375
1751013384468565800,4.954565673828125,-388.407958984375,-198.3524932861328,-19.957992553710938
1751013384478607600,4.964607666015625,-388.78094482421875,-198.41427612304688,-20.334686279296875
1751013384488649700,4.974649658203125,-388.3221435546875,-198.2683563232422,-20.449356079101562
1751013384498691600,4.984691650390625,-388.16278076171875,-198.50230407714844,-20.21270751953125
1751013384508733400,4.9947333984375,-388.09661865234375,-198.668701171875,-20.004287719726562
1751013384518775800,5.00477587890625,-388.520751953125,-198.8604278564453,-19.835845947265625
1751013384528816600,5.014816650390625,-387.96307373046875,-198.36878967285156,-19.70574951171875
1751013384538858800,5.024858642578125,-388.1470947265625,-198.45045471191406,-19.87713623046875
1751013384548899600,5.034899658203125,-388.624267578125,-198.37725830078125,-20.11529541015625
1751013384558941700,5.044941650390625,-388.8087158203125,-198.69647216796875,-20.125457763671875
1751013384568984600,5.054984619140625,-388.4433288574219,-198.543701171875,-19.919662475585938
1751013384579027700,5.06502783203125,-388.39239501953125,-198.39161682128906,-20.055435180664062
1751013384589069600,5.075069580078125,-388.33575439453125,-198.51417541503906,-19.6771240234375
1751013384599112400,5.085112548828125,-388.0400390625,-198.70314025878906,-19.975372314453125
1751013384609155600,5.095155517578125,-388.4248046875,-198.3133087158203,-19.878128051757812
1751013384619198500,5.105198486328125,-387.92926025390625,-198.58392333984375,-20.361801147460938
1751013384629241600,5.11524169921875,-388.6200866699219,-198.5756378173828,-20.131423950195312
1751013384639283700,5.12528369140625,-388.2926330566406,-198.502685546875,-20.218338012695312
1751013384649325600,5.13532568359375,-387.7014465332031,-198.18850708007812,-19.864181518554688
1751013384659368400,5.145368408203125,-388.553955078125,-198.45730590820312,-19.88580322265625
1751013384669410800,5.155410888671875,-388.31341552734375,-198.4626922607422,-19.880966186523438
1751013384679452700,5.16545263671875,-387.829833984375,-198.56166076660156,-20.237472534179688
1751013384689495600,5.17549560546875,-387.9759521484375,-198.5901641845703,-20.196945190429688
1751013384699537400,5.185537353515625,-388.593017578125,-198.62490844726562,-20.216995239257812
1751013384709579800,5.195579833984375,-388.4117431640625,-198.3704376220703,-20.311248779296875
1751013384719621600,5.20562158203125,-388.3519592285156,-198.39222717285156,-20.144866943359375
1751013384729663500,5.21566357421875,-388.3427734375,-198.2372589111328,-19.802627563476562
1751013384739705600,5.22570556640625,-388.44171142578125,-198.3650360107422,-20.054367065429688
1751013384749746700,5.23574658203125,-388.29833984375,-198.33218383789062,-19.996810913085938
1751013384759789800,5.245789794921875,-388.275146484375,-198.21182250976562,-20.183761596679688
1751013384769832700,5.255832763671875,-388.1270446777344,-198.232421875,-19.659454345703125
1751013384779875600,5.26587548828125,-388.6922912597656,-198.24891662597656,-19.766357421875
1751013384789918700,5.275918701171875,-388.59954833984375,-198.28079223632812,-19.773468017578125
1751013384799962600,5.285962646484375,-388.262939453125,-198.28004455566406,-20.009552001953125
1751013384810007600,5.296007568359375,-388.19134521484375,-198.2686004638672,-19.78387451171875
1751013384820046600,5.306046630859375,-387.97235107421875,-198.07525634765625,-19.8360595703125
1751013384830096600,5.3160966796875,-388.38482666015625,-198.19021606445312,-19.828659057617188
1751013384840140500,5.326140625,-388.3458251953125,-198.18995666503906,-19.93438720703125
1751013384850184700,5.336184814453125,-388.6401062011719,-198.08433532714844,-20.090469360351562
1751013384860227600,5.3462275390625,-388.1259765625,-198.28878784179688,-19.95599365234375
1751013384870270700,5.356270751953125,-388.15460205078125,-198.4395751953125,-19.861557006835938
1751013384880313600,5.366313720703125,-388.4044189453125,-198.23477172851562,-19.8026123046875
1751013384890356500,5.3763564453125,-388.2286376953125,-198.40713500976562,-19.838333129882812
1751013384900399600,5.386399658203125,-388.3021240234375,-198.3870391845703,-19.872100830078125
1751013384910442500,5.3964423828125,-388.5245056152344,-198.19473266601562,-19.931137084960938
1751013384920485600,5.406485595703125,-388.8126220703125,-198.1488494873047,-20.1668701171875
1751013384930527700,5.41652783203125,-388.6893310546875,-198.28346252441406,-19.921249389648438
1751013384940568600,5.426568603515625,-388.7389221191406,-198.24754333496094,-19.665802001953125
1751013384950610700,5.436610595703125,-389.00274658203125,-198.01791381835938,-19.891860961914062
1751013384960653600,5.446653564453125,-388.8341979980469,-198.211181640625,-20.059661865234375
1751013384970692600,5.456692626953125,-389.2713623046875,-198.13938903808594,-20.009613037109375
1751013384980740600,5.46674072265625,-388.8043212890625,-198.29971313476562,-19.987503051757812
1751013384990782700,5.47678271484375,-388.500244140625,-197.9856719970703,-19.902725219726562
1751013385000824600,5.486824462890625,-388.359619140625,-198.1144561767578,-19.927154541015625
1751013385010868500,5.496868408203125,-388.1477966308594,-198.24497985839844,-20.093017578125
1751013385020911600,5.50691162109375,-388.6104431152344,-198.19253540039062,-20.054595947265625
1751013385030952700,5.51695263671875,-388.8995361328125,-198.3856964111328,-19.955368041992188
1751013385040992800,5.52699267578125,-389.134033203125,-198.28968811035156,-20.075485229492188
1751013385051032600,5.537032470703125,-388.7655029296875,-198.20809936523438,-20.069610595703125
1751013385061073700,5.54707373046875,-388.774658203125,-198.38768005371094,-20.336669921875
1751013385071114500,5.557114501953125,-388.2481689453125,-198.3404541015625,-20.005142211914062
1751013385081153500,5.567153564453125,-388.6388244628906,-198.0292510986328,-19.9197998046875
1751013385091193600,5.577193603515625,-388.7271728515625,-198.3201446533203,-20.38299560546875
1751013385101234700,5.587234619140625,-388.72125244140625,-198.572265625,-20.064071655273438
1751013385111274800,5.597274658203125,-388.7882080078125,-198.31890869140625,-20.122802734375
1751013385121316600,5.607316650390625,-388.5814208984375,-198.3392333984375,-20.018280029296875
1751013385131357700,5.617357666015625,-388.31292724609375,-198.1705780029297,-20.100997924804688
1751013385141398800,5.627398681640625,-388.3467102050781,-198.3544921875,-20.127059936523438
1751013385151439600,5.637439697265625,-388.18048095703125,-198.5434112548828,-19.948654174804688
1751013385161480700,5.647480712890625,-388.324462890625,-198.85728454589844,-20.293487548828125
1751013385171521500,5.657521484375,-388.51171875,-198.36929321289062,-20.034988403320312
1751013385181561600,5.6675615234375,-388.7661437988281,-198.2274169921875,-19.981857299804688
1751013385191602700,5.677602783203125,-388.57672119140625,-198.5831298828125,-20.203216552734375
1751013385201643800,5.687643798828125,-388.24395751953125,-198.46994018554688,-20.610000610351562
1751013385211684600,5.6976845703125,-388.33282470703125,-198.53097534179688,-20.336380004882812
1751013385221727500,5.7077275390625,-388.4014587402344,-198.49977111816406,-20.317428588867188
1751013385231770600,5.7177705078125,-388.41650390625,-198.60635375976562,-20.445175170898438
1751013385241813800,5.727813720703125,-388.1344909667969,-198.47210693359375,-19.891708374023438
1751013385251856600,5.737856689453125,-388.3638916015625,-198.25637817382812,-20.089035034179688
1751013385261899800,5.747899658203125,-387.945556640625,-198.6624755859375,-19.977218627929688
1751013385271938600,5.7579384765625,-388.31695556640625,-198.82574462890625,-20.16455078125
1751013385281980400,5.76798046875,-388.13134765625,-198.37672424316406,-19.973220825195312
1751013385292026600,5.778026611328125,-388.24359130859375,-198.35992431640625,-20.008438110351562
1751013385302064000,5.788064208984375,-388.11962890625,-198.4936065673828,-20.318115234375
1751013385312112400,5.7981123046875,-388.1100769042969,-198.79608154296875,-19.985153198242188
1751013385322155300,5.8081552734375,-387.8428955078125,-198.31468200683594,-19.935791015625
1751013385332197000,5.818197021484375,-387.70623779296875,-198.63377380371094,-19.861907958984375
1751013385342240300,5.828240234375,-387.50299072265625,-198.69276428222656,-20.023147583007812
1751013385352283100,5.838283203125,-388.1834411621094,-198.59744262695312,-19.917205810546875
1751013385362326300,5.848326171875,-387.537109375,-198.936279296875,-20.222915649414062
1751013385372368400,5.858368408203125,-387.6669921875,-198.73841857910156,-20.069900512695312
1751013385382405400,5.8684052734375,-387.6009216308594,-198.81466674804688,-19.820281982421875
1751013385392453000,5.878453125,-387.391845703125,-198.7461395263672,-20.028839111328125
1751013385402496300,5.888496337890625,-387.38385009765625,-198.7791748046875,-19.999313354492188
1751013385412538400,5.898538330078125,-387.5894470214844,-198.8006134033203,-20.291915893554688
1751013385422579200,5.9085791015625,-387.75372314453125,-199.02511596679688,-20.068344116210938
1751013385432621300,5.918621337890625,-387.8773498535156,-198.7372283935547,-20.037033081054688
1751013385442663200,5.9286630859375,-387.85931396484375,-198.679931640625,-20.067550659179688
1751013385452706300,5.938706298828125,-387.73858642578125,-199.07241821289062,-19.924789428710938
1751013385462748400,5.94874853515625,-387.73944091796875,-199.1590118408203,-20.0068359375
1751013385472790300,5.958790283203125,-387.90069580078125,-198.9031524658203,-20.219406127929688
1751013385482832100,5.96883203125,-387.8447570800781,-199.05052185058594,-20.177047729492188
1751013385492874500,5.97887451171875,-388.1461486816406,-199.03773498535156,-19.894760131835938
1751013385502916400,5.988916259765625,-388.0864562988281,-198.81573486328125,-20.040435791015625
1751013385512958200,5.998958251953125,-387.61761474609375,-199.03334045410156,-19.940780639648438
1751013385523000300,6.009000244140625,-388.09454345703125,-198.94259643554688,-19.885147094726562
1751013385533042200,6.019042236328125,-388.3638000488281,-198.77090454101562,-20.364151000976562
1751013385543084300,6.029084228515625,-388.147216796875,-198.7760009765625,-20.259170532226562
1751013385553125400,6.03912548828125,-387.96356201171875,-199.09799194335938,-20.36328125
1751013385563166500,6.04916650390625,-388.05450439453125,-199.17477416992188,-20.362594604492188
1751013385573209300,6.059209228515625,-387.92529296875,-198.85089111328125,-19.975173950195312
1751013385583250200,6.069250244140625,-388.1812744140625,-199.1396026611328,-20.213516235351562
1751013385593290200,6.079290283203125,-388.0274658203125,-199.2319793701172,-20.12652587890625
1751013385603331300,6.089331298828125,-387.52484130859375,-198.8251190185547,-19.969345092773438
1751013385613373200,6.099373291015625,-387.47943115234375,-198.76329040527344,-19.919708251953125
1751013385623415300,6.109415283203125,-387.8576354980469,-198.72848510742188,-19.81610107421875
1751013385633457200,6.11945703125,-388.08416748046875,-199.2526092529297,-20.001983642578125
1751013385643494400,6.129494384765625,-388.14251708984375,-199.15887451171875,-19.883575439453125
1751013385653541400,6.139541259765625,-388.24884033203125,-199.1482391357422,-20.47406005859375
1751013385663582200,6.149582275390625,-387.8006591796875,-198.62066650390625,-19.857650756835938
1751013385673623300,6.159623291015625,-387.507080078125,-199.03553771972656,-19.969940185546875
1751013385683664400,6.169664306640625,-387.6541442871094,-199.1569366455078,-19.785446166992188
1751013385693707300,6.179707275390625,-388.1430969238281,-198.8182830810547,-20.079421997070312
1751013385703749000,6.1897490234375,-387.978271484375,-198.96043395996094,-19.835494995117188
1751013385713790200,6.199790283203125,-387.7923889160156,-199.16436767578125,-20.071273803710938
1751013385723831300,6.209831298828125,-387.6570129394531,-199.0660858154297,-19.870651245117188
1751013385733872000,6.2198720703125,-387.371826171875,-198.83786010742188,-19.792083740234375
1751013385743915300,6.229915283203125,-387.11279296875,-199.01097106933594,-19.753463745117188
1751013385753957400,6.239957275390625,-387.05499267578125,-198.875244140625,-19.935028076171875
1751013385764000300,6.250000244140625,-387.6083984375,-199.2059783935547,-20.0791015625
1751013385774042400,6.26004248046875,-387.53704833984375,-199.0922393798828,-19.920883178710938
1751013385784085200,6.270085205078125,-387.7532653808594,-199.10557556152344,-19.888442993164062
1751013385794127000,6.280127197265625,-386.9481201171875,-199.352783203125,-19.88458251953125
1751013385804170500,6.29017041015625,-387.3728942871094,-199.5453643798828,-20.030258178710938
1751013385814213400,6.30021337890625,-386.96820068359375,-199.2286834716797,-20.104324340820312
1751013385824250000,6.31025,-386.83953857421875,-198.9885711669922,-20.200775146484375
1751013385834293200,6.320293212890625,-386.8517761230469,-199.53878784179688,-19.941452026367188
1751013385844342300,6.33034228515625,-387.360107421875,-199.53868103027344,-20.028839111328125
1751013385854385400,6.340385498046875,-387.71051025390625,-199.28317260742188,-20.2291259765625
1751013385864423200,6.350423095703125,-387.10235595703125,-199.111572265625,-19.981704711914062
1751013385874470100,6.36047021484375,-387.41876220703125,-198.78399658203125,-19.993240356445312
1751013385884513300,6.37051318359375,-387.3545227050781,-199.0388641357422,-20.052139282226562
1751013385894554400,6.380554443359375,-387.1157531738281,-199.0780792236328,-20.205673217773438
1751013385904597200,6.39059716796875,-387.8873291015625,-199.58094787597656,-20.109115600585938
1751013385914638300,6.400638427734375,-387.7313232421875,-199.5533905029297,-20.233612060546875
1751013385924679200,6.41067919921875,-387.5056457519531,-198.94190979003906,-20.088775634765625
1751013385934721300,6.42072119140625,-387.5478210449219,-199.17820739746094,-20.119247436523438
1751013385944763100,6.43076318359375,-387.7718200683594,-198.97218322753906,-20.025070190429688
1751013385954804200,6.44080419921875,-387.6988525390625,-198.81822204589844,-19.733932495117188
1751013385964846300,6.450846435546875,-387.78045654296875,-199.1521759033203,-20.0108642578125
1751013385974888400,6.460888427734375,-387.7525634765625,-198.76702880859375,-20.043716430664062
1751013385984930300,6.470930419921875,-387.8131103515625,-199.24472045898438,-20.2281494140625
1751013385994972200,6.48097216796875,-387.76715087890625,-199.166259765625,-20.104019165039062
1751013386005015300,6.491015380859375,-387.7205505371094,-198.68490600585938,-20.467559814453125
1751013386015057400,6.501057373046875,-387.833740234375,-199.0646514892578,-19.946975708007812
1751013386025099300,6.511099365234375,-387.7860412597656,-198.60765075683594,-20.338150024414062
1751013386035140400,6.521140380859375,-388.10565185546875,-198.9253387451172,-20.072036743164062
1751013386045182200,6.53118212890625,-387.75164794921875,-199.2576141357422,-20.108779907226562
1751013386055224000,6.54122412109375,-387.76971435546875,-198.8791961669922,-20.072494506835938
1751013386065265200,6.55126513671875,-387.88330078125,-198.82376098632812,-20.009719848632812
1751013386075307300,6.561307373046875,-387.476806640625,-199.226806640625,-19.93438720703125
1751013386085348400,6.571348388671875,-388.04168701171875,-199.0376739501953,-20.27716064453125
1751013386095390200,6.58139013671875,-387.875,-198.85325622558594,-20.036727905273438
1751013386105430300,6.59143017578125,-387.82550048828125,-198.61221313476562,-19.911712646484375
1751013386115472400,6.601472412109375,-388.125,-199.1390838623047,-19.710403442382812
1751013386125514200,6.61151416015625,-388.16094970703125,-198.6201171875,-20.355010986328125
1751013386135556000,6.62155615234375,-387.8089599609375,-199.07452392578125,-19.839447021484375
1751013386145597200,6.63159716796875,-387.8065185546875,-198.59007263183594,-19.93560791015625
1751013386155639300,6.641639404296875,-388.17041015625,-199.11520385742188,-19.633377075195312
1751013386165681400,6.651681396484375,-387.266357421875,-198.92955017089844,-19.838836669921875
1751013386175723300,6.66172314453125,-387.96185302734375,-198.61766052246094,-19.541717529296875
1751013386185766100,6.67176611328125,-387.5950927734375,-198.4544219970703,-20.096527099609375
1751013386195808300,6.681808349609375,-388.0445861816406,-198.611572265625,-19.782730102539062
1751013386205850400,6.691850341796875,-388.17559814453125,-198.61318969726562,-19.964752197265625
1751013386215893200,6.701893310546875,-387.696044921875,-198.58929443359375,-19.948715209960938
1751013386225936100,6.71193603515625,-388.25634765625,-198.67306518554688,-20.18060302734375
1751013386235979300,6.721979248046875,-388.3476867675781,-198.74644470214844,-20.162429809570312
1751013386246021400,6.732021484375,-387.7281494140625,-198.20310974121094,-20.20428466796875
1751013386256064300,6.742064208984375,-388.1673583984375,-198.8268280029297,-20.065017700195312
1751013386266106400,6.7521064453125,-388.36181640625,-198.84658813476562,-19.934707641601562
1751013386276149200,6.762149169921875,-388.306640625,-198.79591369628906,-20.07525634765625
1751013386286191000,6.772191162109375,-387.71954345703125,-198.16587829589844,-20.204147338867188
1751013386296234500,6.782234375,-388.22247314453125,-198.45333862304688,-20.0372314453125
1751013386306278700,6.792278564453125,-387.714599609375,-198.40187072753906,-20.096160888671875
1751013386316320800,6.80232080078125,-387.82489013671875,-198.3896942138672,-19.897109985351562
1751013386326364000,6.812364013671875,-387.879150390625,-198.72918701171875,-20.012802124023438
1751013386336401700,6.822401611328125,-387.64752197265625,-198.3731689453125,-19.551834106445312
1751013386346450000,6.832449951171875,-387.94622802734375,-198.4998016357422,-19.988998413085938
1751013386356492800,6.842492919921875,-388.40496826171875,-198.7122802734375,-19.912399291992188
1751013386366533600,6.85253369140625,-388.2947998046875,-198.6462860107422,-20.183914184570312
1751013386376573700,6.86257373046875,-387.77020263671875,-198.61097717285156,-19.84112548828125
1751013386386614800,6.87261474609375,-387.7974853515625,-198.33798217773438,-20.018081665039062
1751013386396654800,6.88265478515625,-388.18060302734375,-198.53948974609375,-20.197067260742188
1751013386406696700,6.89269677734375,-387.6216735839844,-198.34970092773438,-19.783966064453125
1751013386416737800,6.90273779296875,-388.0259094238281,-198.69906616210938,-19.645065307617188
1751013386426777900,6.91277783203125,-387.8182678222656,-198.42710876464844,-20.030014038085938
1751013386436816600,6.922816650390625,-388.3577880859375,-198.84703063964844,-19.917282104492188
1751013386446856700,6.932856689453125,-388.2181396484375,-198.549560546875,-19.548202514648438
1751013386456895700,6.942895751953125,-388.09991455078125,-198.87759399414062,-20.122940063476562
1751013386466934800,6.952934814453125,-387.87518310546875,-198.34796142578125,-19.879684448242188
1751013386476974800,6.962974853515625,-387.8464660644531,-198.72694396972656,-19.43890380859375
1751013386487015700,6.973015625,-388.2574768066406,-199.0926513671875,-19.970565795898438
1751013386497055700,6.9830556640625,-388.250244140625,-198.95394897460938,-19.85089111328125
1751013386507095800,6.993095703125,-388.3111572265625,-198.84466552734375,-20.05279541015625
1751013386517137000,7.003136962890625,-388.0091552734375,-199.16323852539062,-19.944808959960938
1751013386527177000,7.013177001953125,-387.9286804199219,-198.81005859375,-20.169143676757812
1751013386537217800,7.0232177734375,-388.2547607421875,-198.97727966308594,-20.014938354492188
1751013386547259000,7.0332587890625,-387.6553039550781,-198.62039184570312,-19.6715087890625
1751013386557300000,7.043300048828125,-388.3421630859375,-199.05050659179688,-19.76129150390625
1751013386567341800,7.053341796875,-388.0816650390625,-198.9838409423828,-19.842666625976562
1751013386577382000,7.0633818359375,-388.27679443359375,-198.80026245117188,-19.901885986328125
1751013386587421700,7.073421630859375,-388.44390869140625,-198.77212524414062,-19.625778198242188
1751013386597460700,7.083460693359375,-387.938232421875,-198.86395263671875,-19.897125244140625
1751013386607501800,7.093501708984375,-388.0997314453125,-198.8433074951172,-19.856399536132812
1751013386617543700,7.103543701171875,-387.8675537109375,-198.8233642578125,-20.186004638671875
1751013386627586800,7.1135869140625,-388.31207275390625,-198.59214782714844,-19.871246337890625
1751013386637628000,7.1236279296875,-388.1214904785156,-199.09381103515625,-19.655303955078125
1751013386647669800,7.133669677734375,-387.9912414550781,-198.90750122070312,-19.726242065429688
1751013386657712600,7.143712646484375,-387.366943359375,-198.9623260498047,-19.857864379882812
1751013386667754800,7.153754638671875,-387.623779296875,-198.94671630859375,-19.991790771484375
1751013386677798000,7.1637978515625,-387.9339599609375,-198.9452667236328,-19.842269897460938
1751013386687840800,7.1738408203125,-387.86407470703125,-199.0043182373047,-19.844589233398438
1751013386697884000,7.1838837890625,-387.8154602050781,-199.0112762451172,-19.763595581054688
1751013386707924700,7.1939248046875,-387.8832092285156,-198.66525268554688,-19.609542846679688
1751013386717968000,7.2039677734375,-388.110107421875,-198.84423828125,-19.61175537109375
1751013386728010800,7.2140107421875,-388.520263671875,-198.63787841796875,-19.424240112304688
1751013386738054000,7.224053955078125,-388.12432861328125,-199.0171356201172,-19.847030639648438
1751013386748094700,7.2340947265625,-387.7763671875,-199.11944580078125,-19.800079345703125
1751013386758136800,7.24413671875,-387.94873046875,-198.7306365966797,-19.241180419921875
1751013386768179700,7.2541796875,-388.191650390625,-198.4518280029297,-19.817672729492188
1751013386778221800,7.264221923828125,-387.89556884765625,-198.58021545410156,-19.55535888671875
1751013386788263700,7.274263671875,-388.01123046875,-198.47300720214844,-19.428436279296875
1751013386798305800,7.284305908203125,-388.0960693359375,-198.81320190429688,-19.656906127929688
1751013386808348700,7.2943486328125,-387.6268310546875,-198.75344848632812,-19.797393798828125
1751013386818390800,7.304390869140625,-388.2998046875,-198.84898376464844,-19.947708129882812
1751013386828432000,7.314431884765625,-388.14471435546875,-198.79953002929688,-20.04058837890625
1751013386838473700,7.3244736328125,-388.152587890625,-198.7069091796875,-19.966018676757812
1751013386848516600,7.3345166015625,-388.2040100097656,-198.54934692382812,-19.702835083007812
1751013386858558700,7.344558837890625,-388.0206604003906,-198.68109130859375,-19.666793823242188
1751013386868601900,7.354601806640625,-388.37152099609375,-198.6241455078125,-19.797103881835938
1751013386878644700,7.364644775390625,-388.1182861328125,-198.427734375,-19.642501831054688
1751013386888685800,7.374685791015625,-388.35333251953125,-198.6910858154297,-19.906936645507812
1751013386898727700,7.384727783203125,-388.368896484375,-198.66351318359375,-20.235458374023438
1751013386908770800,7.394770751953125,-387.9249572753906,-198.6740264892578,-19.988082885742188
1751013386918814700,7.404814697265625,-388.1959533691406,-198.72279357910156,-19.961944580078125
1751013386928856800,7.41485693359375,-388.5768737792969,-198.64222717285156,-19.928314208984375
1751013386938898700,7.424898681640625,-388.12176513671875,-199.15545654296875,-20.037826538085938
1751013386948940800,7.43494091796875,-388.4390869140625,-198.3792266845703,-20.305709838867188
1751013386958982700,7.444982666015625,-388.32470703125,-198.33482360839844,-19.907989501953125
1751013386969024800,7.455024658203125,-387.67938232421875,-198.6464080810547,-20.04736328125
1751013386979067000,7.46506689453125,-388.3358154296875,-198.977783203125,-20.044815063476562
1751013386989108700,7.475108642578125,-388.09796142578125,-198.5620574951172,-19.88665771484375
1751013386999150800,7.48515087890625,-388.17498779296875,-198.73228454589844,-20.14306640625
1751013387009192700,7.495192626953125,-387.4915771484375,-199.29598999023438,-19.95733642578125
1751013387019235800,7.50523583984375,-388.119384765625,-198.8077850341797,-20.095596313476562
1751013387029279700,7.51527978515625,-387.8888854980469,-198.5918426513672,-20.045486450195312
1751013387039323000,7.525322998046875,-387.78369140625,-198.92294311523438,-20.429779052734375
1751013387049365800,7.53536572265625,-387.66632080078125,-198.45074462890625,-20.004196166992188
1751013387059408600,7.54540869140625,-387.63140869140625,-198.84669494628906,-19.830413818359375
1751013387069452800,7.555452880859375,-387.771484375,-199.00270080566406,-20.297195434570312
1751013387079497000,7.5654970703125,-387.6700744628906,-198.6484832763672,-20.277633666992188
1751013387089540600,7.57554052734375,-388.6558837890625,-199.0338897705078,-20.25604248046875
1751013387099583700,7.585583740234375,-388.2611389160156,-198.7439422607422,-20.083160400390625
1751013387109625900,7.5956259765625,-388.6080322265625,-198.69064331054688,-19.977630615234375
1751013387119668700,7.605668701171875,-388.6461486816406,-198.97789001464844,-19.987380981445312
1751013387129711600,7.615711669921875,-388.0139465332031,-198.6578826904297,-19.94012451171875
1751013387139753700,7.625753662109375,-388.1601867675781,-198.77745056152344,-20.187240600585938
1751013387149795800,7.6357958984375,-388.3674011230469,-198.90773010253906,-19.997360229492188
1751013387159838700,7.645838623046875,-388.46807861328125,-198.86651611328125,-20.357681274414062
1751013387169877800,7.655877685546875,-388.7645263671875,-198.9983367919922,-20.168212890625
1751013387179926500,7.665926513671875,-388.95599365234375,-198.77285766601562,-20.135910034179688
1751013387189970700,7.675970703125,-388.4222717285156,-198.9280548095703,-20.227371215820312
1751013387200013600,7.686013671875,-388.30938720703125,-198.9261932373047,-20.37060546875
1751013387210056700,7.696056640625,-388.52288818359375,-199.09066772460938,-20.255279541015625
1751013387220099600,7.706099609375,-388.313232421875,-198.49960327148438,-20.009033203125
1751013387230143700,7.716143798828125,-388.75164794921875,-199.09764099121094,-20.10272216796875
1751013387240186600,7.7261865234375,-388.688232421875,-198.59815979003906,-19.7840576171875
1751013387250230800,7.736230712890625,-388.7511291503906,-199.0249786376953,-19.7301025390625
1751013387260273700,7.746273681640625,-388.7806396484375,-198.86231994628906,-20.108352661132812
1751013387270316800,7.75631689453125,-388.1419372558594,-198.73928833007812,-20.171005249023438
1751013387280359700,7.766359619140625,-388.47369384765625,-198.3256072998047,-19.85723876953125
1751013387290402600,7.776402587890625,-388.46612548828125,-198.63270568847656,-20.218002319335938
1751013387300446700,7.78644677734375,-388.66680908203125,-198.3773651123047,-20.25384521484375
1751013387310489900,7.79648974609375,-388.828125,-198.37078857421875,-20.011489868164062
1751013387320533800,7.80653369140625,-388.590087890625,-198.39425659179688,-20.136138916015625
1751013387330578000,7.816577880859375,-389.1501159667969,-198.58766174316406,-20.293197631835938
1751013387340620800,7.826620849609375,-388.7440185546875,-198.79933166503906,-20.091567993164062
1751013387350665700,7.836665771484375,-388.62664794921875,-198.66064453125,-19.97637939453125
1751013387360708600,7.84670849609375,-388.0955810546875,-198.47323608398438,-19.8189697265625
1751013387370751700,7.856751708984375,-388.24444580078125,-198.62173461914062,-20.348007202148438
1751013387380793900,7.8667939453125,-388.1451416015625,-198.63633728027344,-20.26641845703125
1751013387390836700,7.876836669921875,-387.89105224609375,-198.61236572265625,-20.3349609375
1751013387400878800,7.88687890625,-388.1942138671875,-198.37586975097656,-19.921539306640625
1751013387410922800,7.8969228515625,-388.18017578125,-198.43592834472656,-20.002593994140625
1751013387420965600,7.906965576171875,-388.2244873046875,-198.4813995361328,-19.98736572265625
1751013387431008800,7.9170087890625,-388.564453125,-198.48764038085938,-19.904632568359375
1751013387441051000,7.92705078125,-388.30181884765625,-198.32110595703125,-20.199874877929688
1751013387451092700,7.9370927734375,-388.8299560546875,-198.85751342773438,-20.035781860351562
1751013387461134600,7.947134521484375,-388.67962646484375,-198.38475036621094,-19.95013427734375
1751013387471175700,7.95717578125,-388.5957946777344,-198.47328186035156,-20.041427612304688
1751013387481218800,7.96721875,-388.4074401855469,-199.0048370361328,-19.767425537109375
1751013387491260700,7.9772607421875,-388.415771484375,-198.54745483398438,-20.069671630859375
1751013387501303600,7.987303466796875,-388.14227294921875,-198.6719970703125,-19.65814208984375
1751013387511347700,7.99734765625,-388.4232482910156,-198.7068328857422,-20.080291748046875
1751013387521390600,8.007390625,-388.09796142578125,-199.0486297607422,-19.983306884765625
1751013387531434800,8.017434814453125,-388.51129150390625,-198.90174865722656,-19.996322631835938
1751013387541479000,8.02747900390625,-388.2997131347656,-198.61715698242188,-19.779937744140625
1751013387551522800,8.037522705078125,-388.5796203613281,-198.19140625,-19.853988647460938
1751013387561566000,8.04756591796875,-388.63006591796875,-198.75022888183594,-20.259368896484375
1751013387571606800,8.057606689453126,-388.8316650390625,-198.36398315429688,-20.351303100585938
1751013387581648000,8.06764794921875,-388.63360595703125,-198.54615783691406,-19.829376220703125
1751013387591689700,8.077689697265624,-388.34503173828125,-198.36373901367188,-20.038787841796875
1751013387601732600,8.087732666015626,-388.25152587890625,-198.4119873046875,-19.744674682617188
1751013387611774700,8.097774658203125,-388.30694580078125,-198.65682983398438,-20.11474609375
1751013387621817900,8.10781787109375,-388.1719970703125,-198.6910400390625,-20.036529541015625
1751013387631859700,8.117859619140624,-388.34197998046875,-198.82562255859375,-19.976028442382812
1751013387641903900,8.12790380859375,-388.638916015625,-198.4832000732422,-20.1033935546875
1751013387651947800,8.13794775390625,-388.31787109375,-198.73536682128906,-20.046417236328125
1751013387661992000,8.147991943359376,-387.8408203125,-198.89256286621094,-19.542755126953125
1751013387672034800,8.158034912109375,-388.232177734375,-198.87376403808594,-20.176651000976562
1751013387682078700,8.16807861328125,-388.170166015625,-198.8149871826172,-19.5498046875
1751013387692122600,8.17812255859375,-387.8974609375,-198.76524353027344,-20.082901000976562
1751013387702166800,8.188166748046875,-388.5738525390625,-198.71542358398438,-20.34490966796875
1751013387712209700,8.198209716796875,-388.14990234375,-198.82217407226562,-19.863052368164062
1751013387722253800,8.20825390625,-388.37109375,-198.93487548828125,-19.965667724609375
1751013387732296700,8.218296630859374,-388.28216552734375,-198.77137756347656,-19.9852294921875
1751013387742339800,8.22833984375,-388.17626953125,-198.66221618652344,-19.73211669921875
1751013387752382700,8.2383828125,-387.965576171875,-198.30348205566406,-19.766815185546875
1751013387762425900,8.24842578125,-388.3616943359375,-199.141845703125,-19.569747924804688
1751013387772468700,8.25846875,-388.333251953125,-198.66421508789062,-19.961334228515625
1751013387782511600,8.26851171875,-387.81683349609375,-198.71139526367188,-19.690750122070312
1751013387792555800,8.2785556640625,-387.6967468261719,-198.357177734375,-19.957351684570312
1751013387802593800,8.28859375,-388.00048828125,-198.61380004882812,-19.900802612304688
1751013387812643800,8.298643798828126,-388.20184326171875,-198.7506561279297,-20.133285522460938
1751013387822687700,8.308687744140625,-387.9571228027344,-198.70309448242188,-19.833633422851562
1751013387832731000,8.31873095703125,-388.6673583984375,-198.97726440429688,-19.666305541992188
1751013387842774800,8.32877490234375,-388.79571533203125,-198.5838165283203,-20.101974487304688
1751013387852813800,8.338813720703126,-388.3127746582031,-198.59213256835938,-19.7493896484375
1751013387862861800,8.34886181640625,-388.31536865234375,-198.53549194335938,-19.86126708984375
1751013387872904700,8.35890478515625,-388.03076171875,-198.7501983642578,-19.729446411132812
1751013387882947600,8.368947509765626,-388.2467041015625,-198.55068969726562,-19.88897705078125
1751013387892991700,8.37899169921875,-388.47955322265625,-198.73733520507812,-20.111007690429688
1751013387903036000,8.389035888671875,-388.6608581542969,-198.8062286376953,-19.483795166015625
1751013387913078800,8.399078857421875,-388.62677001953125,-198.7608642578125,-19.954147338867188
1751013387923121700,8.40912158203125,-388.67279052734375,-198.62521362304688,-19.979202270507812
1751013387933160000,8.419159912109375,-388.26336669921875,-198.82337951660156,-19.948150634765625
1751013387943207700,8.429207763671876,-388.326904296875,-198.44772338867188,-19.962570190429688
1751013387953250800,8.439250732421876,-388.25213623046875,-199.04461669921875,-20.017059326171875
1751013387963293700,8.449293701171875,-388.38189697265625,-198.68907165527344,-19.953018188476562
1751013387973336600,8.459336669921875,-388.64178466796875,-198.82818603515625,-19.827911376953125
1751013387983374800,8.469374755859375,-388.28790283203125,-198.70115661621094,-19.639511108398438
1751013387993422800,8.4794228515625,-388.6268310546875,-198.86679077148438,-19.790786743164062
1751013388003462000,8.4894619140625,-388.3416442871094,-199.0205078125,-20.093338012695312
1751013388013509600,8.499509521484375,-388.310302734375,-198.93832397460938,-19.93963623046875
1751013388023553800,8.5095537109375,-387.83251953125,-198.8273162841797,-20.242965698242188
1751013388033596700,8.5195966796875,-388.4253845214844,-198.7602996826172,-20.086898803710938
1751013388043640800,8.529640869140625,-388.3377990722656,-198.8564910888672,-19.9830322265625
1751013388053683700,8.53968359375,-387.98748779296875,-198.6040802001953,-19.738433837890625
1751013388063729000,8.54972900390625,-388.4957275390625,-198.38223266601562,-20.094818115234375
1751013388073768000,8.559767822265625,-388.4398193359375,-198.60665893554688,-20.080108642578125
1751013388083817700,8.569817626953125,-387.86376953125,-198.46405029296875,-19.858489990234375
1751013388093856800,8.579856689453125,-388.55316162109375,-198.3271026611328,-19.90362548828125
1751013388103905800,8.58990576171875,-387.9814453125,-198.18321228027344,-19.938644409179688
1751013388113949000,8.599948974609376,-388.6675720214844,-198.54202270507812,-19.893310546875
1751013388123992600,8.60999267578125,-388.09698486328125,-198.3354034423828,-20.01348876953125
1751013388134036700,8.62003662109375,-388.20599365234375,-198.3279266357422,-20.19384765625
1751013388144081000,8.630080810546875,-388.4151306152344,-198.61361694335938,-20.0709228515625
1751013388154124800,8.640124755859375,-388.1341247558594,-198.5365447998047,-20.3255615234375
1751013388164169000,8.6501689453125,-387.94659423828125,-198.877685546875,-20.029647827148438
1751013388174211800,8.6602119140625,-388.2113342285156,-198.7075958251953,-20.144577026367188
1751013388184255700,8.670255859375,-388.3351135253906,-198.7277374267578,-19.848312377929688
1751013388194299600,8.680299560546874,-388.2689208984375,-198.74212646484375,-19.7479248046875
1751013388204342800,8.6903427734375,-388.30401611328125,-198.64161682128906,-19.98284912109375
1751013388214385700,8.7003857421875,-388.3910827636719,-198.77523803710938,-20.034561157226562
1751013388224428800,8.7104287109375,-388.7698669433594,-198.67588806152344,-19.997573852539062
1751013388234471700,8.7204716796875,-388.63604736328125,-199.0724334716797,-19.930145263671875
1751013388244514800,8.730514892578125,-388.369873046875,-198.64706420898438,-19.959457397460938
1751013388254557000,8.740556884765626,-388.3359375,-198.81134033203125,-19.781936645507812
1751013388264599800,8.750599853515626,-387.79107666015625,-198.74757385253906,-19.9622802734375
1751013388274641700,8.7606416015625,-387.8759765625,-198.35787963867188,-19.8353271484375
1751013388284683800,8.770683837890624,-387.9862060546875,-198.7136688232422,-20.255538940429688
1751013388294726000,8.780725830078126,-388.3648376464844,-198.69998168945312,-20.0030517578125
1751013388304772000,8.790772216796874,-388.31787109375,-198.56179809570312,-20.49224853515625
1751013388314815200,8.800815185546876,-388.6208801269531,-198.80117797851562,-20.167312622070312
1751013388324857300,8.810857421875,-388.244384765625,-198.5877685546875,-20.364837646484375
1751013388334899200,8.820899169921875,-388.58563232421875,-198.7690887451172,-20.068206787109375
1751013388344941000,8.830941162109376,-388.3309020996094,-198.79464721679688,-20.356231689453125
1751013388354982100,8.840982177734375,-388.251953125,-198.614990234375,-19.924468994140625
1751013388365025300,8.851025390625,-388.5830078125,-198.85105895996094,-19.973617553710938
1751013388375068200,8.861068115234374,-388.2400207519531,-198.76148986816406,-19.546173095703125
1751013388385111300,8.871111328125,-388.5938720703125,-199.13897705078125,-19.946975708007812
1751013388395153400,8.8811533203125,-388.4072570800781,-198.961669921875,-19.82012939453125
1751013388405196300,8.8911962890625,-388.6741027832031,-198.75372314453125,-20.246109008789062
1751013388415235300,8.9012353515625,-388.599365234375,-198.67393493652344,-19.822967529296875
1751013388425283000,8.911282958984375,-388.619873046875,-198.8423309326172,-20.042404174804688
1751013388435325200,8.9213251953125,-388.64727783203125,-199.02073669433594,-19.772689819335938
1751013388445366300,8.9313662109375,-388.4557189941406,-198.72418212890625,-20.09124755859375
1751013388455408400,8.941408447265625,-388.3531799316406,-199.15805053710938,-20.040664672851562
1751013388465450200,8.9514501953125,-388.23712158203125,-198.6923828125,-20.070724487304688
1751013388475492400,8.961492431640625,-387.9228820800781,-198.8675994873047,-20.038421630859375
1751013388485534200,8.9715341796875,-388.5054016113281,-198.4749755859375,-19.893203735351562
1751013388495577300,8.981577392578124,-388.4013671875,-198.87521362304688,-20.02490234375
1751013388505620200,8.9916201171875,-388.4093933105469,-198.7150115966797,-20.075042724609375
1751013388515663000,9.0016630859375,-388.476318359375,-198.9255828857422,-19.733154296875
1751013388525705200,9.011705322265625,-388.65606689453125,-198.82818603515625,-19.877120971679688
1751013388535747300,9.021747314453124,-388.2974853515625,-198.62742614746094,-19.807098388671875
1751013388545789200,9.0317890625,-388.67791748046875,-198.7251739501953,-19.810089111328125
1751013388555831300,9.041831298828125,-388.06787109375,-198.76585388183594,-19.622726440429688
1751013388565875200,9.051875244140625,-388.12750244140625,-198.75782775878906,-20.032028198242188
1751013388575918000,9.06191796875,-387.7787170410156,-198.68667602539062,-19.68157958984375
1751013388585961200,9.071961181640624,-388.60968017578125,-198.43630981445312,-19.995010375976562
1751013388596004400,9.08200439453125,-387.95062255859375,-198.7741241455078,-19.640350341796875
1751013388606047200,9.092047119140625,-387.864501953125,-198.8673858642578,-20.002182006835938
1751013388616092200,9.102092041015625,-387.8660888671875,-198.66978454589844,-20.046905517578125
1751013388626136300,9.11213623046875,-388.28546142578125,-198.5233612060547,-19.913299560546875
1751013388636179200,9.12217919921875,-388.0484924316406,-198.8993377685547,-19.718338012695312
1751013388646222300,9.132222412109375,-387.86895751953125,-198.59942626953125,-19.840240478515625
1751013388656265200,9.14226513671875,-387.9552001953125,-198.72825622558594,-19.601837158203125
1751013388666307300,9.152307373046876,-387.7901611328125,-198.59791564941406,-19.82440185546875
1751013388676351200,9.162351318359375,-388.2674255371094,-199.1370849609375,-19.642501831054688
1751013388686393300,9.172393310546875,-388.0333251953125,-198.64112854003906,-19.930496215820312
1751013388696436200,9.182436279296875,-388.203857421875,-198.7298126220703,-19.883941650390625
1751013388706479400,9.192479248046874,-388.2215576171875,-198.56907653808594,-20.062698364257812
1751013388716522200,9.202522216796876,-387.71722412109375,-198.44459533691406,-19.88885498046875
1751013388726566400,9.21256640625,-388.3426818847656,-198.60794067382812,-19.760238647460938
1751013388736610000,9.222610107421875,-388.5973205566406,-198.8439178466797,-19.837173461914062
1751013388746653400,9.2326533203125,-388.39923095703125,-198.87158203125,-19.854644775390625
1751013388756696300,9.2426962890625,-388.25262451171875,-198.8627471923828,-19.5865478515625
1751013388766738200,9.25273828125,-388.24774169921875,-198.59194946289062,-19.902618408203125
1751013388776781300,9.26278125,-387.999267578125,-198.75408935546875,-19.833511352539062
1751013388786823200,9.2728232421875,-388.68536376953125,-198.71177673339844,-19.776077270507812
1751013388796866300,9.2828662109375,-388.6966857910156,-198.84185791015625,-19.8463134765625
1751013388806908200,9.292908203125,-388.47515869140625,-198.7449951171875,-19.896835327148438
1751013388816951300,9.302951416015626,-388.58050537109375,-198.67625427246094,-19.975341796875
1751013388826994200,9.312994140625,-388.6239013671875,-198.7186279296875,-19.643966674804688
1751013388837036000,9.3230361328125,-388.66717529296875,-198.81967163085938,-19.766021728515625
1751013388847079200,9.3330791015625,-388.44268798828125,-198.4907684326172,-19.900650024414062
1751013388857120300,9.343120361328126,-388.5646057128906,-198.6068878173828,-19.957061767578125
1751013388867163100,9.3531630859375,-388.67755126953125,-198.81126403808594,-19.838226318359375
1751013388877206300,9.363206298828125,-388.79986572265625,-198.72821044921875,-19.668380737304688
1751013388887248400,9.373248291015624,-388.6209716796875,-198.3089599609375,-19.715240478515625
1751013388897290200,9.383290283203126,-388.69207763671875,-198.53746032714844,-19.876083374023438
1751013388907333000,9.3933330078125,-388.55499267578125,-198.5974884033203,-19.59918212890625
1751013388917376300,9.403376220703125,-388.3482666015625,-199.02984619140625,-19.846267700195312
1751013388927419100,9.413419189453125,-388.28070068359375,-198.62490844726562,-19.77093505859375
1751013388937461200,9.423461181640626,-387.9930725097656,-198.6259002685547,-19.841461181640625
1751013388947503400,9.43350341796875,-387.8651123046875,-198.52757263183594,-19.975143432617188
1751013388957546200,9.443546142578125,-388.10308837890625,-198.6609649658203,-19.973709106445312
1751013388967589000,9.453589111328125,-388.20452880859375,-198.7017059326172,-20.036712646484375
1751013388977633300,9.46363330078125,-388.0611572265625,-198.3325958251953,-19.937362670898438
1751013388987677400,9.473677490234374,-388.5975341796875,-198.66751098632812,-19.887435913085938
1751013388997720300,9.48372021484375,-388.21282958984375,-198.59471130371094,-19.836944580078125
1751013389007763200,9.49376318359375,-388.32952880859375,-198.85433959960938,-20.0859375
1751013389017806300,9.503806396484375,-388.5755615234375,-198.74142456054688,-20.131011962890625
1751013389027849200,9.51384912109375,-388.725341796875,-198.9291534423828,-19.96697998046875
1751013389037892400,9.523892333984374,-388.4443664550781,-198.6648712158203,-19.979354858398438
1751013389047935200,9.533935302734376,-388.2406921386719,-198.67691040039062,-19.845535278320312
1751013389057978000,9.54397802734375,-388.2892761230469,-198.67604064941406,-19.985519409179688
1751013389068020200,9.554020263671875,-387.7823181152344,-198.60018920898438,-20.0364990234375
1751013389078062300,9.564062255859374,-388.3476257324219,-198.60740661621094,-20.164688110351562
1751013389088104200,9.574104248046876,-387.7756042480469,-198.58663940429688,-20.183807373046875
1751013389098146300,9.584146240234375,-388.2471923828125,-198.61444091796875,-19.940719604492188
1751013389108188200,9.594188232421875,-388.374267578125,-198.80381774902344,-19.713836669921875
1751013389118230300,9.604230224609376,-387.8312072753906,-198.6602783203125,-19.67864990234375
1751013389128273200,9.614273193359375,-388.11376953125,-198.5819549560547,-19.844284057617188
1751013389138315300,9.624315185546875,-388.3545227050781,-198.1787567138672,-20.206893920898438
1751013389148356000,9.634356201171874,-387.9148254394531,-198.8611602783203,-19.931686401367188
1751013389158398200,9.644398193359375,-388.07452392578125,-198.30247497558594,-19.934494018554688
1751013389168440300,9.6544404296875,-388.146484375,-198.60867309570312,-19.646728515625
1751013389178483200,9.664483154296875,-388.44793701171875,-198.8438720703125,-20.194961547851562
1751013389188525300,9.674525390625,-388.6763916015625,-198.79248046875,-19.591537475585938
1751013389198566100,9.684566162109375,-388.6271057128906,-198.58334350585938,-19.832977294921875
1751013389208607200,9.694607177734374,-388.3416748046875,-198.72158813476562,-19.698532104492188
1751013389218649000,9.704649169921876,-388.6556396484375,-198.71514892578125,-19.870452880859375
1751013389228690200,9.714690185546875,-388.6041564941406,-198.95358276367188,-20.029922485351562
1751013389238732300,9.724732177734374,-388.5901794433594,-198.8315887451172,-20.003387451171875
1751013389248773400,9.7347734375,-388.806884765625,-198.869140625,-19.861251831054688
1751013389258815200,9.744815185546875,-388.4151916503906,-198.47802734375,-20.051116943359375
1751013389268856300,9.754856201171876,-388.11297607421875,-198.71971130371094,-19.966522216796875
1751013389278896400,9.764896484375,-388.4219055175781,-198.76522827148438,-20.146148681640625
1751013389288937200,9.774937255859374,-388.22015380859375,-198.66285705566406,-20.228897094726562
1751013389298978300,9.784978271484375,-387.9324951171875,-198.68170166015625,-20.217269897460938
1751013389309015600,9.795015625,-388.59271240234375,-198.88449096679688,-20.0155029296875
1751013389319055600,9.8050556640625,-388.24334716796875,-198.84852600097656,-20.012542724609375
1751013389329096400,9.815096435546875,-388.2522277832031,-198.94387817382812,-20.113540649414062
1751013389339137500,9.825137451171875,-388.3203125,-198.59738159179688,-19.95623779296875
1751013389349177600,9.835177490234376,-388.26519775390625,-198.95323181152344,-19.868377685546875
1751013389359218700,9.84521875,-388.19049072265625,-198.69007873535156,-19.969436645507812
1751013389369261600,9.855261474609375,-387.9754638671875,-198.82276916503906,-20.281234741210938
1751013389379302400,9.865302490234376,-388.28521728515625,-198.7998504638672,-19.964401245117188
1751013389389344500,9.875344482421875,-388.26397705078125,-198.88131713867188,-19.962112426757812
1751013389399385300,9.88538525390625,-388.24395751953125,-199.0009307861328,-19.880630493164062
1751013389409427500,9.895427490234376,-388.2461853027344,-198.9359893798828,-19.941986083984375
1751013389419469600,9.905469482421875,-388.27410888671875,-198.79644775390625,-19.93243408203125
1751013389429510700,9.9155107421875,-388.1761779785156,-198.75418090820312,-20.038726806640625
1751013389439550500,9.925550537109375,-388.3077392578125,-198.69810485839844,-20.180389404296875
1751013389449591300,9.93559130859375,-388.40106201171875,-198.853271484375,-19.965133666992188
1751013389459631400,9.94563134765625,-388.1199951171875,-198.45770263671875,-19.994659423828125
1751013389469673500,9.955673583984375,-387.9300537109375,-198.7938232421875,-19.908157348632812
1751013389479714300,9.96571435546875,-388.59442138671875,-198.74169921875,-20.105438232421875
1751013389489756700,9.975756591796875,-388.43939208984375,-198.5814208984375,-20.036941528320312
1751013389499798500,9.985798583984375,-388.4051818847656,-199.0886688232422,-19.83282470703125
1751013389509840400,9.99584033203125,-388.74395751953125,-199.0387725830078,-19.762222290039062
1751013389519881500,10.005881591796875,-388.203369140625,-198.92510986328125,-19.928741455078125
1751013389529922600,10.015922607421874,-388.3575439453125,-199.28916931152344,-20.234725952148438
1751013389539962600,10.025962646484375,-388.0091552734375,-198.87147521972656,-20.033432006835938
1751013389550002700,10.036002685546874,-388.2046813964844,-199.12020874023438,-19.940414428710938
1751013389560044500,10.04604443359375,-388.03704833984375,-199.09519958496094,-19.863510131835938
1751013389570086400,10.05608642578125,-387.98046875,-199.03904724121094,-19.914276123046875
1751013389580127500,10.06612744140625,-388.1407165527344,-198.87693786621094,-19.931671142578125
1751013389590168600,10.07616845703125,-388.1488037109375,-198.86740112304688,-19.944610595703125
1751013389600209400,10.08620947265625,-388.46368408203125,-199.1296844482422,-19.68328857421875
1751013389610249500,10.09624951171875,-388.50836181640625,-198.79493713378906,-19.968490600585938
1751013389620289500,10.10628955078125,-388.29986572265625,-198.66952514648438,-19.881072998046875
1751013389630329600,10.11632958984375,-388.18402099609375,-198.59754943847656,-19.869735717773438
1751013389640370700,10.12637060546875,-388.1131896972656,-198.74111938476562,-19.924331665039062
1751013389650411500,10.13641162109375,-388.99664306640625,-198.8167724609375,-19.843887329101562
1751013389660452600,10.14645263671875,-388.531982421875,-198.7368621826172,-19.953384399414062
1751013389670493700,10.15649365234375,-388.29998779296875,-198.9940948486328,-19.87445068359375
1751013389680534500,10.166534423828125,-388.71368408203125,-198.9116973876953,-19.763778686523438
1751013389690575600,10.17657568359375,-388.2619323730469,-198.88319396972656,-19.920974731445312
1751013389700616700,10.18661669921875,-388.62664794921875,-199.04922485351562,-19.669921875
1751013389710657500,10.196657470703125,-388.59271240234375,-198.8759002685547,-19.705398559570312
1751013389720699600,10.20669970703125,-388.3948059082031,-199.00628662109375,-19.84246826171875
1751013389730740500,10.216740478515625,-388.5821228027344,-199.22621154785156,-19.748611450195312
1751013389740781600,10.226781494140624,-388.6514892578125,-199.03521728515625,-19.750762939453125
1751013389750822700,10.23682275390625,-388.5135498046875,-198.76014709472656,-19.856765747070312
1751013389760864500,10.246864501953125,-388.31689453125,-198.70465087890625,-19.861648559570312
1751013389770906400,10.25690625,-388.6540222167969,-199.1353759765625,-20.19439697265625
1751013389780947500,10.266947509765625,-388.54779052734375,-198.70953369140625,-20.093368530273438
1751013389790988500,10.276988525390625,-388.6409912109375,-199.12290954589844,-19.711166381835938
1751013389801029400,10.287029296875,-388.3074951171875,-198.7498779296875,-19.836273193359375
1751013389811071500,10.297071533203125,-388.77276611328125,-198.8156280517578,-20.113967895507812
1751013389821113600,10.307113525390625,-388.3665466308594,-198.75535583496094,-19.790725708007812
1751013389831155500,10.317155517578126,-388.35479736328125,-198.62692260742188,-19.75213623046875
1751013389841196500,10.327196533203125,-388.33984375,-198.8659210205078,-19.56427001953125
1751013389851236600,10.337236572265626,-388.35101318359375,-198.72715759277344,-20.3470458984375
1751013389861277700,10.347277587890625,-388.4654235839844,-198.65493774414062,-19.751800537109375
1751013389871318500,10.357318603515624,-388.2905578613281,-198.48526000976562,-19.620315551757812
1751013389881359600,10.367359619140625,-388.515380859375,-198.76895141601562,-19.614166259765625
1751013389891399400,10.3773994140625,-388.139892578125,-198.6304931640625,-19.672439575195312
1751013389901441500,10.387441650390626,-388.5135498046875,-198.73362731933594,-19.55279541015625
1751013389911482600,10.397482666015625,-387.97613525390625,-198.77703857421875,-19.810882568359375
1751013389921523500,10.4075234375,-388.3858947753906,-198.75770568847656,-19.469650268554688
1751013389931564500,10.417564453125,-388.47821044921875,-198.76101684570312,-19.642578125
1751013389941605600,10.427605712890625,-388.52386474609375,-198.83392333984375,-19.784500122070312
1751013389951646500,10.437646484375,-388.30755615234375,-199.292724609375,-19.990570068359375
1751013389961687600,10.4476875,-388.2685241699219,-198.87583923339844,-19.815338134765625
1751013389971727600,10.4577275390625,-388.5299072265625,-198.8787078857422,-19.860107421875
1751013389981768700,10.467768798828125,-388.279541015625,-199.01156616210938,-20.075469970703125
1751013389991809500,10.4778095703125,-388.1445007324219,-198.45628356933594,-19.6572265625
1751013390001851600,10.4878515625,-388.30279541015625,-198.41326904296875,-19.410400390625
1751013390011891700,10.4978916015625,-388.127685546875,-198.58651733398438,-19.691665649414062
1751013390021932500,10.5079326171875,-388.6734619140625,-198.65081787109375,-19.640975952148438
1751013390031972400,10.517972412109375,-388.36822509765625,-198.8046875,-19.877151489257812
1751013390042013400,10.528013427734376,-388.09710693359375,-198.8479766845703,-19.673690795898438
1751013390052054500,10.538054443359375,-388.3780517578125,-198.7178955078125,-19.700271606445312
1751013390062095400,10.548095458984376,-388.50732421875,-198.77664184570312,-19.154876708984375
1751013390072135400,10.558135498046875,-388.28662109375,-198.79104614257812,-19.705062866210938
1751013390082175500,10.568175537109376,-387.94091796875,-199.13084411621094,-19.478225708007812
1751013390092216600,10.578216552734375,-387.68438720703125,-199.0271453857422,-19.317123413085938
1751013390102257400,10.58825732421875,-387.9183349609375,-199.00653076171875,-19.559494018554688
1751013390112298500,10.598298583984375,-388.276611328125,-198.987548828125,-19.371383666992188
1751013390122338600,10.608338623046874,-388.182373046875,-198.9553985595703,-19.59088134765625
1751013390132379600,10.618379638671875,-388.09124755859375,-199.0175018310547,-19.942337036132812
1751013390142420500,10.62842041015625,-387.76605224609375,-199.06497192382812,-19.550506591796875
1751013390152460500,10.63846044921875,-388.04443359375,-198.9121551513672,-19.447418212890625
1751013390162502400,10.64850244140625,-388.3294982910156,-199.09228515625,-19.895751953125
