time,seconds_elapsed,z,y,x
1751013510066026200,0.122026123046875,-1.0060577392578125,-0.1784515380859375,0.062713623046875
1751013510075970000,0.131969970703125,-1.0034027099609375,-0.1782073974609375,0.0555572509765625
1751013510085913000,0.1419130859375,-1.0128936767578125,-0.1782073974609375,0.0504302978515625
1751013510095856000,0.151856201171875,-1.01953125,-0.1797637939453125,0.0503692626953125
1751013510105800200,0.16180029296875,-1.0111083984375,-0.184814453125,0.050323486328125
1751013510115743200,0.1717431640625,-0.9945831298828125,-0.1928558349609375,0.0482025146484375
1751013510125686300,0.181686279296875,-0.9918060302734375,-0.19793701171875,0.04412841796875
1751013510135630000,0.191630126953125,-0.9911041259765625,-0.1999969482421875,0.041168212890625
1751013510145573000,0.201572998046875,-0.9801483154296875,-0.204833984375,0.0328216552734375
1751013510155516200,0.21151611328125,-0.9788665771484375,-0.2085723876953125,0.0249176025390625
1751013510165460200,0.221460205078125,-0.98468017578125,-0.2084808349609375,0.0184326171875
1751013510175403000,0.231403076171875,-0.9886322021484375,-0.2087249755859375,0.01666259765625
1751013510185346000,0.241345947265625,-0.9870758056640625,-0.2067413330078125,0.016326904296875
1751013510195290000,0.2512900390625,-0.9879302978515625,-0.2059478759765625,0.0162506103515625
1751013510205233200,0.261233154296875,-0.991546630859375,-0.2056732177734375,0.01727294921875
1751013510215177000,0.271177001953125,-0.987274169921875,-0.207794189453125,0.0192413330078125
1751013510225120000,0.2811201171875,-0.9848175048828125,-0.209197998046875,0.0259246826171875
1751013510235063000,0.29106298828125,-0.9898223876953125,-0.2069549560546875,0.0385894775390625
1751013510245007400,0.30100732421875,-0.9969482421875,-0.2114410400390625,0.0469207763671875
1751013510254950400,0.310950439453125,-0.994232177734375,-0.220428466796875,0.044921875
1751013510264893200,0.32089306640625,-0.9716796875,-0.2220611572265625,0.0331268310546875
1751013510274837200,0.330837158203125,-0.9631195068359375,-0.21856689453125,0.0062713623046875
1751013510284780300,0.3407802734375,-0.98773193359375,-0.2140350341796875,-0.0057373046875
1751013510294723300,0.350723388671875,-1.0009613037109375,-0.218292236328125,0.0076751708984375
1751013510304667100,0.360667236328125,-1.005615234375,-0.219940185546875,0.01165771484375
1751013510314610200,0.370610107421875,-1.01043701171875,-0.2218017578125,0.01165771484375
1751013510324553200,0.38055322265625,-1.010833740234375,-0.2214202880859375,0.01483154296875
1751013510334497300,0.390497314453125,-1.0055389404296875,-0.2145538330078125,0.0142974853515625
1751013510344440300,0.4004404296875,-0.99798583984375,-0.2081298828125,0.0115814208984375
1751013510354383000,0.410383056640625,-0.992645263671875,-0.2081756591796875,0.0115509033203125
1751013510364327200,0.4203271484375,-0.997406005859375,-0.2085113525390625,0.0159149169921875
1751013510374270200,0.430270263671875,-1.001190185546875,-0.210784912109375,0.0208587646484375
1751013510384213200,0.440213134765625,-0.996490478515625,-0.21380615234375,0.0218353271484375
1751013510394157000,0.450156982421875,-0.9894866943359375,-0.214752197265625,0.0236663818359375
1751013510404100000,0.46010009765625,-0.9861297607421875,-0.2167816162109375,0.022247314453125
1751013510414043000,0.47004296875,-0.9932708740234375,-0.2206268310546875,0.0194244384765625
1751013510423987000,0.479987060546875,-1.0028076171875,-0.2246856689453125,0.0118865966796875
1751013510433930000,0.489929931640625,-1.00030517578125,-0.2239837646484375,0.00640869140625
1751013510443873000,0.499873046875,-1.0028228759765625,-0.2199249267578125,0.011962890625
1751013510453816800,0.50981689453125,-1.0055389404296875,-0.2202606201171875,0.016571044921875
1751013510463760000,0.519759765625,-1.0081634521484375,-0.2236785888671875,0.0221099853515625
1751013510473703000,0.529702880859375,-1.0121002197265625,-0.2210693359375,0.028472900390625
1751013510483647000,0.53964697265625,-1.020904541015625,-0.2159881591796875,0.0308990478515625
1751013510493589800,0.54958984375,-1.025146484375,-0.214385986328125,0.0346527099609375
1751013510503533800,0.559533935546875,-1.021087646484375,-0.213043212890625,0.0379486083984375
1751013510513476900,0.569476806640625,-1.013580322265625,-0.2123870849609375,0.03961181640625
1751013510523420000,0.579419921875,-1.0040283203125,-0.2088623046875,0.0420074462890625
1751013510533363700,0.58936376953125,-0.997222900390625,-0.2030792236328125,0.0435943603515625
1751013510543306800,0.599306640625,-0.993560791015625,-0.201507568359375,0.046783447265625
1751013510553249800,0.609249755859375,-0.987762451171875,-0.2047119140625,0.050689697265625
1751013510563194000,0.619194091796875,-0.981689453125,-0.2102508544921875,0.055145263671875
1751013510573137200,0.62913720703125,-0.976165771484375,-0.211181640625,0.05780029296875
1751013510583080000,0.639079833984375,-0.9713287353515625,-0.210784912109375,0.0643768310546875
1751013510593024000,0.64902392578125,-0.969512939453125,-0.2136993408203125,0.0726318359375
1751013510602967000,0.658967041015625,-0.9689178466796875,-0.215789794921875,0.0797271728515625
1751013510612910000,0.66891015625,-0.9613037109375,-0.220550537109375,0.0814666748046875
1751013510622854000,0.67885400390625,-0.95281982421875,-0.2256622314453125,0.0794677734375
1751013510632797000,0.688796875,-0.9498138427734375,-0.2281951904296875,0.0796661376953125
1751013510642740000,0.698739990234375,-0.951446533203125,-0.2286376953125,0.0811614990234375
1751013510652684000,0.70868408203125,-0.955902099609375,-0.230072021484375,0.0780029296875
1751013510662627000,0.718626953125,-0.9615936279296875,-0.23016357421875,0.0759124755859375
1751013510672570000,0.728570068359375,-0.9709320068359375,-0.2314453125,0.0800323486328125
1751013510682514000,0.738513916015625,-0.981719970703125,-0.2328948974609375,0.0824127197265625
1751013510692457000,0.74845703125,-0.98712158203125,-0.2293701171875,0.0834503173828125
1751013510702400000,0.75839990234375,-0.98779296875,-0.224578857421875,0.0828094482421875
1751013510712343800,0.76834375,-0.9892730712890625,-0.2249755859375,0.0797576904296875
1751013510722286800,0.778286865234375,-0.9918975830078125,-0.226776123046875,0.0723419189453125
1751013510732230000,0.78822998046875,-0.989959716796875,-0.2272796630859375,0.0672760009765625
1751013510742174000,0.798174072265625,-0.991851806640625,-0.22894287109375,0.062591552734375
1751013510752117000,0.808116943359375,-0.99652099609375,-0.233001708984375,0.059051513671875
1751013510762060000,0.81806005859375,-1.0019989013671875,-0.2374420166015625,0.0531158447265625
1751013510772003800,0.82800390625,-1.003814697265625,-0.2411346435546875,0.0494537353515625
1751013510781947000,0.83794677734375,-1.002471923828125,-0.2421722412109375,0.0391845703125
1751013510791890000,0.847889892578125,-0.9986114501953125,-0.2375335693359375,0.030731201171875
1751013510801834000,0.857833984375,-1.0011444091796875,-0.23748779296875,0.02642822265625
1751013510811776800,0.86777685546875,-0.998809814453125,-0.239288330078125,0.0224609375
1751013510821720800,0.877720947265625,-0.9937744140625,-0.2359619140625,0.01837158203125
1751013510831663900,0.887663818359375,-0.99285888671875,-0.233489990234375,0.013519287109375
1751013510841607000,0.89760693359375,-0.9965972900390625,-0.23223876953125,0.006134033203125
1751013510851550700,0.90755078125,-1.001373291015625,-0.2312469482421875,0.0030517578125
1751013510861493800,0.91749365234375,-0.9993438720703125,-0.2340545654296875,0.0040130615234375
1751013510871436800,0.927436767578125,-0.998321533203125,-0.2346038818359375,0.00396728515625
1751013510881381000,0.937381103515625,-1.000640869140625,-0.23358154296875,-0.0002288818359375
1751013510891324200,0.94732421875,-0.9978790283203125,-0.2378082275390625,-0.00732421875
1751013510901266700,0.9572666015625,-0.9958953857421875,-0.2420654296875,-0.0056915283203125
1751013510911211000,0.9672109375,-0.99072265625,-0.2435150146484375,-0.0066986083984375
1751013510921154000,0.977154052734375,-0.9774932861328125,-0.2476654052734375,-0.0067596435546875
1751013510931097000,0.98709716796875,-0.9698333740234375,-0.249664306640625,-0.0066070556640625
1751013510941041000,0.997041015625,-0.96734619140625,-0.25311279296875,-0.0022430419921875
1751013510950984000,1.00698388671875,-0.96240234375,-0.257720947265625,-0.003753662109375
1751013510960927000,1.016927001953125,-0.9545440673828125,-0.2637786865234375,-0.0014190673828125
1751013510970871000,1.02687109375,-0.9495697021484375,-0.267974853515625,0.0030517578125
1751013510980814000,1.03681396484375,-0.95025634765625,-0.2710723876953125,0.0121917724609375
1751013510990756900,1.0467568359375,-0.954132080078125,-0.270843505859375,0.022552490234375
1751013511000701000,1.056700927734375,-0.952301025390625,-0.2707061767578125,0.0236968994140625
1751013511010644000,1.06664404296875,-0.949432373046875,-0.2713470458984375,0.0213775634765625
1751013511020587000,1.0765869140625,-0.9483642578125,-0.2727813720703125,0.023101806640625
1751013511030530800,1.08653076171875,-0.9467315673828125,-0.275634765625,0.0257568359375
1751013511040473900,1.096473876953125,-0.9528045654296875,-0.279510498046875,0.030548095703125
1751013511050417000,1.1064169921875,-0.95892333984375,-0.280242919921875,0.0381927490234375
1751013511060361000,1.11636083984375,-0.9635772705078125,-0.2797088623046875,0.0439910888671875
1751013511070304000,1.126303955078125,-0.9681549072265625,-0.2802734375,0.048492431640625
1751013511080247000,1.1362470703125,-0.971343994140625,-0.278839111328125,0.0511322021484375
1751013511090190800,1.14619091796875,-0.9716644287109375,-0.27642822265625,0.051300048828125
1751013511100134000,1.1561337890625,-0.970611572265625,-0.2739715576171875,0.0520782470703125
1751013511110077000,1.166076904296875,-0.9745025634765625,-0.269012451171875,0.0520782470703125
1751013511120021000,1.17602099609375,-0.9784698486328125,-0.2655181884765625,0.049285888671875
1751013511129963800,1.1859638671875,-0.98260498046875,-0.26422119140625,0.0458221435546875
1751013511139906800,1.19590673828125,-0.9873199462890625,-0.262969970703125,0.0419921875
1751013511149851000,1.205850830078125,-0.9967041015625,-0.2608795166015625,0.040924072265625
1751013511159794000,1.2157939453125,-0.9991607666015625,-0.2581024169921875,0.0412139892578125
1751013511169737700,1.22573779296875,-0.995758056640625,-0.257110595703125,0.038604736328125
1751013511179680800,1.2356806640625,-0.9936981201171875,-0.256072998046875,0.037567138671875
1751013511189623800,1.245623779296875,-0.9906158447265625,-0.2535552978515625,0.03509521484375
1751013511199568100,1.255568115234375,-0.9878997802734375,-0.25128173828125,0.0340728759765625
1751013511209511200,1.26551123046875,-0.9853057861328125,-0.2495269775390625,0.0347900390625
1751013511219453700,1.27545361328125,-0.9817047119140625,-0.247772216796875,0.0377960205078125
1751013511229398000,1.28539794921875,-0.9826202392578125,-0.24822998046875,0.0402374267578125
1751013511239341000,1.295341064453125,-0.982635498046875,-0.2518310546875,0.0395965576171875
1751013511249284000,1.3052841796875,-0.978057861328125,-0.254058837890625,0.0353851318359375
1751013511259228000,1.315227783203125,-0.9748687744140625,-0.25457763671875,0.0345001220703125
1751013511269171000,1.3251708984375,-0.9766998291015625,-0.2583465576171875,0.0341796875
1751013511279114000,1.335114013671875,-0.9796295166015625,-0.2618865966796875,0.0341644287109375
1751013511289058000,1.34505810546875,-0.97796630859375,-0.264434814453125,0.03460693359375
1751013511299001000,1.3550009765625,-0.974151611328125,-0.264739990234375,0.0308685302734375
1751013511308944000,1.36494384765625,-0.9712371826171875,-0.264739990234375,0.0289154052734375
1751013511318888000,1.374887939453125,-0.970550537109375,-0.2642059326171875,0.0298614501953125
1751013511328831000,1.3848310546875,-0.9664459228515625,-0.2624969482421875,0.0313262939453125
1751013511338774000,1.39477392578125,-0.963653564453125,-0.261138916015625,0.0306854248046875
1751013511348717800,1.4047177734375,-0.9655914306640625,-0.2617950439453125,0.032745361328125
1751013511358660900,1.414660888671875,-0.96746826171875,-0.263214111328125,0.03515625
1751013511368604000,1.42460400390625,-0.966644287109375,-0.263763427734375,0.0332794189453125
1751013511378548000,1.4345478515625,-0.96514892578125,-0.2646636962890625,0.0319671630859375
1751013511388491000,1.444490966796875,-0.966766357421875,-0.265045166015625,0.0327911376953125
1751013511398434800,1.454434814453125,-0.9694976806640625,-0.2653961181640625,0.0359039306640625
1751013511408377900,1.4643779296875,-0.9705047607421875,-0.2660980224609375,0.041290283203125
1751013511418321000,1.47432080078125,-0.96728515625,-0.2653350830078125,0.040008544921875
1751013511428265000,1.484264892578125,-0.9638824462890625,-0.2662811279296875,0.0401458740234375
1751013511438207700,1.494207763671875,-0.9631195068359375,-0.2682342529296875,0.0391845703125
1751013511448150800,1.50415087890625,-0.96484375,-0.2680511474609375,0.0420074462890625
1751013511458094800,1.5140947265625,-0.9668731689453125,-0.26995849609375,0.0413055419921875
1751013511468038000,1.524037841796875,-0.97015380859375,-0.271881103515625,0.0376434326171875
1751013511477981000,1.53398095703125,-0.976470947265625,-0.2713623046875,0.0361328125
1751013511487924700,1.5439248046875,-0.9809112548828125,-0.26934814453125,0.03338623046875
1751013511497867800,1.55386767578125,-0.9864959716796875,-0.2680511474609375,0.0261383056640625
1751013511507810800,1.563810791015625,-0.9898681640625,-0.26470947265625,0.018951416015625
1751013511517755100,1.573755126953125,-0.99481201171875,-0.26080322265625,0.0136260986328125
1751013511527698000,1.583697998046875,-0.9954071044921875,-0.2593231201171875,0.008331298828125
1751013511537640700,1.593640625,-0.9981231689453125,-0.25933837890625,0.004486083984375
1751013511547585000,1.6035849609375,-0.9959869384765625,-0.255584716796875,0.003570556640625
1751013511557528000,1.613528076171875,-0.989654541015625,-0.2535400390625,0.0033111572265625
1751013511567471000,1.62347119140625,-0.98419189453125,-0.2512054443359375,0.0040130615234375
1751013511577415000,1.633414794921875,-0.983978271484375,-0.2498626708984375,0.003662109375
1751013511587358000,1.64335791015625,-0.9803924560546875,-0.2514801025390625,0.0023651123046875
1751013511597301000,1.653301025390625,-0.9762725830078125,-0.2519989013671875,0.0027923583984375
1751013511607245000,1.6632451171875,-0.9758148193359375,-0.252105712890625,0.00579833984375
1751013511617188000,1.67318798828125,-0.974945068359375,-0.252838134765625,0.00537109375
1751013511627131000,1.683130859375,-0.9746856689453125,-0.2525177001953125,0.006927490234375
1751013511637075000,1.693074951171875,-0.9746856689453125,-0.25140380859375,0.007476806640625
1751013511647018000,1.70301806640625,-0.9769744873046875,-0.252227783203125,0.0077972412109375
1751013511656961800,1.7129619140625,-0.97808837890625,-0.2543182373046875,0.007598876953125
1751013511666904800,1.72290478515625,-0.9799041748046875,-0.256561279296875,0.0067138671875
1751013511676847900,1.732847900390625,-0.982177734375,-0.2563323974609375,0.0050811767578125
1751013511686792000,1.7427919921875,-0.9835205078125,-0.2557373046875,0.0062713623046875
1751013511696735000,1.75273486328125,-0.9882659912109375,-0.25738525390625,0.0066680908203125
1751013511706678000,1.762677978515625,-0.994964599609375,-0.259552001953125,0.00384521484375
1751013511716621800,1.772621826171875,-0.9995269775390625,-0.260528564453125,0.000701904296875
1751013511726564900,1.78256494140625,-1.0004119873046875,-0.256591796875,-0.002166748046875
1751013511736508000,1.7925078125,-0.9987335205078125,-0.25408935546875,-0.0037078857421875
1751013511746452000,1.802451904296875,-0.9982452392578125,-0.252227783203125,-0.003662109375
1751013511756394800,1.812394775390625,-0.9983673095703125,-0.2511444091796875,-0.00244140625
1751013511766337800,1.822337890625,-0.9957275390625,-0.2480010986328125,-0.000946044921875
1751013511776281900,1.83228173828125,-0.98675537109375,-0.2450714111328125,0.0008544921875
1751013511786225000,1.842224853515625,-0.9806365966796875,-0.245758056640625,0.0030975341796875
1751013511796168000,1.85216796875,-0.9792938232421875,-0.2468109130859375,0.004791259765625
1751013511806111700,1.86211181640625,-0.9779052734375,-0.248291015625,0.005157470703125
1751013511816054800,1.8720546875,-0.974945068359375,-0.2495880126953125,0.0045318603515625
1751013511825997800,1.881997802734375,-0.973541259765625,-0.250732421875,0.00665283203125
1751013511835942100,1.891942138671875,-0.97088623046875,-0.25067138671875,0.0098419189453125
1751013511845885000,1.901885009765625,-0.97216796875,-0.252166748046875,0.01171875
1751013511855829000,1.9118291015625,-0.9731597900390625,-0.2527618408203125,0.009918212890625
1751013511865772000,1.92177197265625,-0.97357177734375,-0.2507476806640625,0.0070343017578125
1751013511875715000,1.931715087890625,-0.97222900390625,-0.252777099609375,0.00823974609375
1751013511885659000,1.941658935546875,-0.96966552734375,-0.2544403076171875,0.0092620849609375
1751013511895602000,1.951601806640625,-0.9686431884765625,-0.251708984375,0.0104217529296875
1751013511905545000,1.961544921875,-0.970062255859375,-0.251678466796875,0.01190185546875
1751013511915489000,1.971489013671875,-0.9759063720703125,-0.2555999755859375,0.0108184814453125
1751013511925432000,1.98143212890625,-0.9812469482421875,-0.2571563720703125,0.0075531005859375
1751013511935374800,1.991374755859375,-0.9796600341796875,-0.2567901611328125,0.0054931640625
1751013511945319000,2.00131884765625,-0.977325439453125,-0.2598114013671875,0.0025634765625
1751013511955262000,2.011261962890625,-0.9739990234375,-0.2632293701171875,-0.002471923828125
1751013511965205000,2.021205078125,-0.97369384765625,-0.2651824951171875,-0.0034332275390625
1751013511975148800,2.031148681640625,-0.9745025634765625,-0.2677764892578125,-0.0029754638671875
1751013511985091800,2.041091796875,-0.9794158935546875,-0.27056884765625,-0.0001678466796875
1751013511995035000,2.051034912109375,-0.987060546875,-0.2706298828125,0.003509521484375
1751013512004979000,2.06097900390625,-0.9893341064453125,-0.2688751220703125,0.00286865234375
1751013512014922000,2.070921875,-0.989959716796875,-0.2669830322265625,0.0016937255859375
1751013512024865000,2.080864990234375,-0.9911346435546875,-0.2639923095703125,0.00164794921875
1751013512034808800,2.090808837890625,-0.9921112060546875,-0.259002685546875,0.001312255859375
1751013512044752000,2.100751953125,-0.9895782470703125,-0.256927490234375,-0.00048828125
1751013512054696000,2.110696044921875,-0.989227294921875,-0.256317138671875,-0.000732421875
1751013512064639000,2.120638916015625,-0.990631103515625,-0.25360107421875,0.00384521484375
1751013512074581800,2.130581787109375,-0.9908447265625,-0.2544403076171875,0.0078887939453125
1751013512084525800,2.14052587890625,-0.9865570068359375,-0.25616455078125,0.0088043212890625
1751013512094468900,2.15046875,-0.98309326171875,-0.2551727294921875,0.0080718994140625
1751013512104412000,2.160411865234375,-0.98291015625,-0.2563323974609375,0.008270263671875
1751013512114356000,2.17035595703125,-0.982666015625,-0.2595367431640625,0.0104827880859375
1751013512124298800,2.180298828125,-0.98333740234375,-0.2602691650390625,0.012664794921875
1751013512134241800,2.19024169921875,-0.9816741943359375,-0.2602081298828125,0.012451171875
1751013512144186000,2.20018603515625,-0.9768829345703125,-0.260223388671875,0.0108489990234375
1751013512154129200,2.210129150390625,-0.975494384765625,-0.25921630859375,0.01129150390625
1751013512164072000,2.220072021484375,-0.976959228515625,-0.2589874267578125,0.0105133056640625
1751013512174016000,2.23001611328125,-0.97503662109375,-0.2591552734375,0.0079193115234375
1751013512183959000,2.239958984375,-0.974090576171875,-0.2580413818359375,0.009918212890625
1751013512193902000,2.249902099609375,-0.9737548828125,-0.2566986083984375,0.0102081298828125
1751013512203846000,2.259845947265625,-0.9745330810546875,-0.2555694580078125,0.010833740234375
1751013512213789000,2.269788818359375,-0.9769134521484375,-0.252197265625,0.017425537109375
1751013512223733000,2.27973291015625,-0.9744720458984375,-0.2489776611328125,0.0180206298828125
1751013512233676000,2.289676025390625,-0.9695281982421875,-0.2456207275390625,0.01556396484375
1751013512243619000,2.299619140625,-0.968170166015625,-0.24468994140625,0.018157958984375
1751013512253563000,2.30956298828125,-0.9713134765625,-0.248748779296875,0.021026611328125
1751013512263506000,2.319505859375,-0.9736328125,-0.250244140625,0.0220794677734375
1751013512273449000,2.329448974609375,-0.971160888671875,-0.251251220703125,0.0229034423828125
1751013512283393000,2.33939306640625,-0.9684295654296875,-0.252197265625,0.0241546630859375
1751013512293335800,2.349335693359375,-0.97021484375,-0.253082275390625,0.023681640625
1751013512303278800,2.35927880859375,-0.9750518798828125,-0.2540283203125,0.0218505859375
1751013512313223000,2.369222900390625,-0.9780731201171875,-0.2539520263671875,0.0206146240234375
1751013512323166000,2.379166015625,-0.9788818359375,-0.2529296875,0.017822265625
1751013512333109000,2.38910888671875,-0.97711181640625,-0.2511138916015625,0.013336181640625
1751013512343052800,2.399052734375,-0.97589111328125,-0.2494659423828125,0.0130767822265625
1751013512352995800,2.408995849609375,-0.9811553955078125,-0.249481201171875,0.0159912109375
1751013512362940000,2.41893994140625,-0.9931640625,-0.2504425048828125,0.0166473388671875
1751013512372883000,2.428883056640625,-0.987823486328125,-0.24713134765625,0.01190185546875
1751013512382825700,2.43882568359375,-0.979522705078125,-0.2421417236328125,0.008636474609375
1751013512392769800,2.448769775390625,-0.9796142578125,-0.240386962890625,0.0116729736328125
1751013512402712800,2.458712890625,-0.9813690185546875,-0.2396392822265625,0.01239013671875
1751013512412655900,2.46865576171875,-0.9815216064453125,-0.239837646484375,0.0146636962890625
1751013512422599700,2.478599609375,-0.9819183349609375,-0.23846435546875,0.015594482421875
1751013512432542700,2.488542724609375,-0.981903076171875,-0.2396697998046875,0.01300048828125
1751013512442485800,2.49848583984375,-0.9769287109375,-0.2421722412109375,0.01068115234375
1751013512452429800,2.508429931640625,-0.9696807861328125,-0.244354248046875,0.008056640625
1751013512462372900,2.518372802734375,-0.9656829833984375,-0.24713134765625,0.0076751708984375
1751013512472316000,2.52831591796875,-0.96466064453125,-0.2521820068359375,0.010711669921875
1751013512482259700,2.538259765625,-0.9654541015625,-0.254058837890625,0.017578125
1751013512492202800,2.54820263671875,-0.9723663330078125,-0.2510833740234375,0.023529052734375
1751013512502145800,2.558145751953125,-0.978515625,-0.246612548828125,0.02490234375
1751013512512089900,2.56808984375,-0.986907958984375,-0.244415283203125,0.02362060546875
1751013512522032600,2.57803271484375,-0.99456787109375,-0.242340087890625,0.0221405029296875
1751013512531976700,2.587976806640625,-0.9948577880859375,-0.2377777099609375,0.01910400390625
1751013512541919700,2.597919677734375,-0.9976043701171875,-0.2342071533203125,0.0166778564453125
1751013512551862800,2.60786279296875,-1.0033111572265625,-0.232147216796875,0.01416015625
1751013512561806800,2.617806884765625,-1.0100860595703125,-0.2305755615234375,0.0149383544921875
1751013512571749600,2.62774951171875,-1.0132598876953125,-0.2282257080078125,0.0183258056640625
1751013512581692700,2.637692626953125,-1.0142059326171875,-0.2295379638671875,0.0200958251953125
1751013512591637000,2.647636962890625,-1.014404296875,-0.2333526611328125,0.0183258056640625
1751013512601580000,2.657580078125,-1.012115478515625,-0.2332611083984375,0.017974853515625
1751013512611522800,2.667522705078125,-1.007476806640625,-0.230804443359375,0.0164794921875
1751013512621467000,2.677466796875,-1.0015411376953125,-0.228607177734375,0.0115966796875
1751013512631410000,2.687409912109375,-0.997650146484375,-0.2268218994140625,0.0095062255859375
1751013512641353700,2.697353759765625,-0.996246337890625,-0.2276763916015625,0.0068359375
1751013512651296800,2.707296875,-0.988037109375,-0.229248046875,0.00384521484375
1751013512661239800,2.71723974609375,-0.978271484375,-0.2270050048828125,-0.0014495849609375
1751013512671184000,2.727183837890625,-0.974212646484375,-0.226409912109375,-0.00299072265625
1751013512681127000,2.737126953125,-0.979705810546875,-0.2274169921875,0.0045166015625
1751013512691070000,2.747070068359375,-0.9802703857421875,-0.2344512939453125,0.0119781494140625
1751013512701013800,2.757013671875,-0.9766387939453125,-0.239990234375,0.0158538818359375
1751013512710956800,2.766956787109375,-0.9744415283203125,-0.241119384765625,0.0175933837890625
1751013512720899800,2.77689990234375,-0.9761199951171875,-0.241943359375,0.0183258056640625
1751013512730844000,2.786843994140625,-0.9813995361328125,-0.245025634765625,0.016204833984375
1751013512740786700,2.79678662109375,-0.987335205078125,-0.2484588623046875,0.015289306640625
1751013512750729700,2.806729736328125,-0.9916534423828125,-0.24859619140625,0.015869140625
1751013512760673800,2.816673828125,-0.9897003173828125,-0.248382568359375,0.018890380859375
1751013512770616800,2.826616943359375,-0.9853515625,-0.2454986572265625,0.02069091796875
1751013512780560600,2.836560546875,-0.9910888671875,-0.2419891357421875,0.0197601318359375
1751013512790503700,2.846503662109375,-0.99127197265625,-0.2432861328125,0.0153961181640625
1751013512800446700,2.85644677734375,-0.992034912109375,-0.242218017578125,0.0120391845703125
1751013512810390800,2.866390869140625,-0.9948883056640625,-0.241668701171875,0.01324462890625
1751013512820333800,2.876333740234375,-0.99896240234375,-0.24444580078125,0.017181396484375
1751013512830276600,2.886276611328125,-1.0039825439453125,-0.2476806640625,0.0184173583984375
1751013512840220700,2.896220703125,-1.00616455078125,-0.247802734375,0.0174407958984375
1751013512850163700,2.906163818359375,-1.0044403076171875,-0.2507781982421875,0.012237548828125
1751013512860106800,2.916106689453125,-0.998565673828125,-0.2534027099609375,0.0112457275390625
1751013512870050800,2.92605078125,-0.9939117431640625,-0.252716064453125,0.0124359130859375
1751013512879993900,2.935993896484375,-0.992279052734375,-0.251068115234375,0.0155181884765625
1751013512889936600,2.9459365234375,-0.991119384765625,-0.2529144287109375,0.02044677734375
1751013512899881000,2.955880859375,-0.987640380859375,-0.253875732421875,0.0212860107421875
1751013512909824000,2.965823974609375,-0.9869537353515625,-0.2505950927734375,0.02239990234375
1751013512919767800,2.975767822265625,-0.9839324951171875,-0.248443603515625,0.0235137939453125
1751013512929710800,2.9857109375,-0.97674560546875,-0.2487030029296875,0.025360107421875
1751013512939654000,2.99565380859375,-0.9708099365234375,-0.2460174560546875,0.025390625
1751013512949598000,3.005597900390625,-0.9689178466796875,-0.2442626953125,0.02423095703125
1751013512959540700,3.015540771484375,-0.9697723388671875,-0.2442474365234375,0.022186279296875
1751013512969483800,3.02548388671875,-0.968963623046875,-0.243072509765625,0.023590087890625
1751013512979427800,3.035427734375,-0.965606689453125,-0.2440643310546875,0.024322509765625
1751013512989371000,3.045370849609375,-0.9614410400390625,-0.24310302734375,0.02459716796875
1751013512999314000,3.05531396484375,-0.960296630859375,-0.243499755859375,0.0236358642578125
1751013513009257700,3.0652578125,-0.9600830078125,-0.247344970703125,0.0243377685546875
1751013513019200800,3.07520068359375,-0.956787109375,-0.2514801025390625,0.023681640625
1751013513029143800,3.085143798828125,-0.9550628662109375,-0.2502899169921875,0.0254058837890625
1751013513039087900,3.095087890625,-0.9545440673828125,-0.2491607666015625,0.0274810791015625
1751013513049030700,3.10503076171875,-0.9563140869140625,-0.250732421875,0.0278167724609375
1751013513058974700,3.114974609375,-0.9577484130859375,-0.2524566650390625,0.0263214111328125
1751013513068917800,3.124917724609375,-0.9623260498046875,-0.2513580322265625,0.02435302734375
1751013513078860800,3.13486083984375,-0.96575927734375,-0.25262451171875,0.0242156982421875
1751013513088804600,3.1448046875,-0.966156005859375,-0.255035400390625,0.0224456787109375
1751013513098747600,3.15474755859375,-0.965545654296875,-0.2535858154296875,0.0225067138671875
1751013513108690700,3.164690673828125,-0.9664459228515625,-0.25018310546875,0.02191162109375
1751013513118634800,3.174634765625,-0.9683074951171875,-0.2481689453125,0.0194854736328125
1751013513128577800,3.184577880859375,-0.9691619873046875,-0.247314453125,0.0201568603515625
1751013513138520800,3.194520751953125,-0.97198486328125,-0.243194580078125,0.020416259765625
1751013513148465000,3.20446484375,-0.97320556640625,-0.2406463623046875,0.0191192626953125
1751013513158407700,3.21440771484375,-0.974639892578125,-0.239013671875,0.0164031982421875
1751013513168352000,3.22435205078125,-0.9762725830078125,-0.23797607421875,0.0154571533203125
1751013513178294800,3.234294677734375,-0.9737701416015625,-0.23846435546875,0.016876220703125
1751013513188237800,3.24423779296875,-0.9780426025390625,-0.2379608154296875,0.019775390625
1751013513198182000,3.254181884765625,-0.988739013671875,-0.2359619140625,0.0211334228515625
1751013513208125000,3.264125,-0.99200439453125,-0.2328643798828125,0.0137786865234375
1751013513218068000,3.27406787109375,-0.9868316650390625,-0.22906494140625,0.0089569091796875
1751013513228011800,3.28401171875,-0.9879150390625,-0.2267608642578125,0.0080108642578125
1751013513237954800,3.293954833984375,-0.99578857421875,-0.226837158203125,0.008209228515625
1751013513247897900,3.30389794921875,-1.0037994384765625,-0.2283782958984375,0.0108184814453125
1751013513257842000,3.313842041015625,-1.00640869140625,-0.227783203125,0.0117950439453125
1751013513267785000,3.323784912109375,-1.0081634521484375,-0.22540283203125,0.0122528076171875
1751013513277728800,3.333728759765625,-1.00830078125,-0.22515869140625,0.01617431640625
1751013513287671800,3.343671875,-1.006927490234375,-0.225799560546875,0.0186614990234375
1751013513297614800,3.35361474609375,-1.0078887939453125,-0.225799560546875,0.0196075439453125
1751013513307558700,3.36355859375,-1.002532958984375,-0.22442626953125,0.019378662109375
1751013513317501700,3.373501708984375,-0.996490478515625,-0.22430419921875,0.0193939208984375
1751013513327444700,3.38344482421875,-0.9929351806640625,-0.225677490234375,0.019927978515625
1751013513337388800,3.393388916015625,-0.99053955078125,-0.2253570556640625,0.023284912109375
1751013513347331800,3.403331787109375,-0.9902801513671875,-0.2231597900390625,0.0243072509765625
1751013513357275000,3.41327490234375,-0.9918975830078125,-0.2220306396484375,0.02471923828125
1751013513367218700,3.42321875,-0.9947509765625,-0.2252044677734375,0.024810791015625
1751013513377161700,3.43316162109375,-0.99725341796875,-0.22454833984375,0.0238189697265625
1751013513387105800,3.443105712890625,-0.9973907470703125,-0.22393798828125,0.021392822265625
1751013513397048800,3.453048828125,-0.99847412109375,-0.2244873046875,0.01904296875
1751013513406991600,3.46299169921875,-1.0034637451171875,-0.2238616943359375,0.0191497802734375
1751013513416936700,3.472936767578125,-1.0092620849609375,-0.22369384765625,0.0191802978515625
1751013513426879700,3.482879638671875,-1.0123443603515625,-0.2245941162109375,0.0208282470703125
1751013513436822500,3.492822509765625,-1.01080322265625,-0.222625732421875,0.020416259765625
1751013513446766600,3.5027666015625,-1.0068206787109375,-0.2205657958984375,0.0188140869140625
1751013513456709600,3.512709716796875,-1.0070343017578125,-0.22174072265625,0.0207672119140625
1751013513466652700,3.522652587890625,-1.007171630859375,-0.2227020263671875,0.0226593017578125
1751013513476596500,3.532596435546875,-1.005889892578125,-0.2220306396484375,0.0206451416015625
1751013513486539500,3.54253955078125,-1.0006561279296875,-0.2204132080078125,0.0205230712890625
1751013513496483600,3.552483642578125,-0.9990692138671875,-0.218292236328125,0.0212554931640625
1751013513506426600,3.562426513671875,-1.0004425048828125,-0.2196502685546875,0.0228271484375
1751013513516369700,3.57236962890625,-0.998138427734375,-0.2225799560546875,0.02520751953125
1751013513526313700,3.582313720703125,-0.98974609375,-0.22113037109375,0.02520751953125
1751013513536256800,3.5922568359375,-0.9859619140625,-0.219482421875,0.0219879150390625
1751013513546199600,3.602199462890625,-0.986083984375,-0.2225799560546875,0.020782470703125
1751013513556143900,3.612143798828125,-0.9887237548828125,-0.2273101806640625,0.017822265625
1751013513566086700,3.622086669921875,-0.9904632568359375,-0.231903076171875,0.01715087890625
1751013513576029700,3.63202978515625,-0.9892120361328125,-0.23809814453125,0.0203704833984375
1751013513585973800,3.641973876953125,-0.9836273193359375,-0.2422332763671875,0.018707275390625
1751013513595916800,3.651916748046875,-0.9783172607421875,-0.2423858642578125,0.0187225341796875
1751013513605860600,3.661860595703125,-0.978912353515625,-0.2436370849609375,0.02325439453125
1751013513615803600,3.6718037109375,-0.979583740234375,-0.243255615234375,0.0241851806640625
1751013513625746700,3.68174658203125,-0.9779052734375,-0.2397613525390625,0.0220794677734375
1751013513635690800,3.691690673828125,-0.9766082763671875,-0.2348480224609375,0.017181396484375
1751013513645633800,3.7016337890625,-0.9748077392578125,-0.233642578125,0.01251220703125
1751013513655576800,3.711576904296875,-0.97607421875,-0.233978271484375,0.01068115234375
1751013513665520600,3.721520751953125,-0.9751129150390625,-0.2350311279296875,0.0112457275390625
1751013513675463700,3.731463623046875,-0.9708404541015625,-0.2352752685546875,0.0124053955078125
1751013513685406700,3.74140673828125,-0.9687042236328125,-0.2339324951171875,0.0137939453125
1751013513695350500,3.7513505859375,-0.9665374755859375,-0.232513427734375,0.01513671875
1751013513705293600,3.76129345703125,-0.9677276611328125,-0.23089599609375,0.019317626953125
1751013513715237600,3.771237548828125,-0.96746826171875,-0.2288665771484375,0.01995849609375
1751013513725180700,3.7811806640625,-0.9648590087890625,-0.2299957275390625,0.018798828125
1751013513735123700,3.791123779296875,-0.965362548828125,-0.2316741943359375,0.0176239013671875
1751013513745067500,3.801067626953125,-0.9692535400390625,-0.2328948974609375,0.01910400390625
1751013513755010600,3.811010498046875,-0.9747314453125,-0.233062744140625,0.019287109375
1751013513764953600,3.82095361328125,-0.9805145263671875,-0.2315216064453125,0.0195465087890625
1751013513774897700,3.830897705078125,-0.9846343994140625,-0.2311859130859375,0.018310546875
1751013513784840700,3.8408408203125,-0.9865264892578125,-0.233367919921875,0.0181884765625
1751013513794783500,3.850783447265625,-0.9840087890625,-0.2300872802734375,0.0196533203125
1751013513804727800,3.860727783203125,-0.9815826416015625,-0.2273406982421875,0.0223388671875
1751013513814670600,3.870670654296875,-0.9809722900390625,-0.232177734375,0.026519775390625
1751013513824614700,3.88061474609375,-0.9826202392578125,-0.2388153076171875,0.030517578125
1751013513834557700,3.8905576171875,-0.9839935302734375,-0.238433837890625,0.0326995849609375
1751013513844500700,3.900500732421875,-0.981201171875,-0.238433837890625,0.0315093994140625
1751013513854444800,3.91044482421875,-0.98046875,-0.2415313720703125,0.030670166015625
1751013513864387800,3.920387939453125,-0.9825592041015625,-0.242401123046875,0.0316619873046875
1751013513874331000,3.930330810546875,-0.983245849609375,-0.2394256591796875,0.0359344482421875
1751013513884274700,3.940274658203125,-0.9841461181640625,-0.2342529296875,0.0386810302734375
1751013513894217700,3.9502177734375,-0.9859619140625,-0.2304229736328125,0.0382537841796875
1751013513904160800,3.960160888671875,-0.9902801513671875,-0.2257843017578125,0.0369415283203125
1751013513914104600,3.9701044921875,-0.9919891357421875,-0.2214508056640625,0.0377960205078125
1751013513924047600,3.980047607421875,-0.9932861328125,-0.21844482421875,0.03839111328125
1751013513933991700,3.98999169921875,-0.98992919921875,-0.2208099365234375,0.0361175537109375
1751013513943934700,3.999934814453125,-0.9846038818359375,-0.226226806640625,0.0347442626953125
1751013513953877800,4.009877685546875,-0.9830474853515625,-0.229095458984375,0.0358428955078125
1751013513963821600,4.019821533203125,-0.985198974609375,-0.231170654296875,0.0381011962890625
1751013513973764600,4.0297646484375,-0.9847869873046875,-0.232391357421875,0.0399322509765625
1751013513983707600,4.039707763671875,-0.985076904296875,-0.2317047119140625,0.03814697265625
1751013513993651700,4.049651611328125,-0.9869537353515625,-0.229339599609375,0.0341949462890625
1751013514003594800,4.0595947265625,-0.988677978515625,-0.22662353515625,0.031585693359375
1751013514013537500,4.06953759765625,-0.9907684326171875,-0.2260894775390625,0.02947998046875
1751013514023481600,4.079481689453125,-0.9945526123046875,-0.22637939453125,0.0269012451171875
1751013514033424600,4.089424560546875,-0.9961090087890625,-0.2300567626953125,0.02972412109375
1751013514043368700,4.09936865234375,-0.995452880859375,-0.230010986328125,0.02789306640625
1751013514053311500,4.1093115234375,-0.99798583984375,-0.2262725830078125,0.020111083984375
1751013514063254500,4.119254638671875,-1.006622314453125,-0.2227020263671875,0.014984130859375
1751013514073198800,4.12919873046875,-1.0120849609375,-0.2216796875,0.0136871337890625
1751013514083141600,4.1391416015625,-1.0139923095703125,-0.2175140380859375,0.01153564453125
1751013514093084700,4.149084716796875,-1.0126495361328125,-0.2135009765625,0.0087127685546875
1751013514103028700,4.15902880859375,-1.0098876953125,-0.21319580078125,0.006072998046875
1751013514112971800,4.1689716796875,-1.0059814453125,-0.2157135009765625,0.003021240234375
1751013514122915800,4.178915771484375,-1.00396728515625,-0.2180633544921875,0.004150390625
1751013514132859000,4.18885888671875,-0.9987640380859375,-0.220489501953125,0.0122833251953125
1751013514142801700,4.1988017578125,-0.9963531494140625,-0.2219696044921875,0.01959228515625
1751013514152745700,4.208745849609375,-0.992279052734375,-0.2247314453125,0.016998291015625
1751013514162688800,4.218688720703125,-0.993988037109375,-0.2320098876953125,0.0228271484375
1751013514172631800,4.2286318359375,-0.9926910400390625,-0.236968994140625,0.033660888671875
1751013514182575600,4.23857568359375,-0.986053466796875,-0.2366943359375,0.0407562255859375
1751013514192518700,4.2485185546875,-0.9780426025390625,-0.237457275390625,0.0408782958984375
1751013514202461700,4.258461669921875,-0.97283935546875,-0.234222412109375,0.0433807373046875
1751013514212405800,4.26840576171875,-0.96832275390625,-0.2290802001953125,0.0465240478515625
1751013514222348800,4.278348876953125,-0.9728546142578125,-0.2271728515625,0.03887939453125
1751013514232292600,4.288292724609375,-0.9752349853515625,-0.229461669921875,0.0420989990234375
1751013514242235600,4.298235595703125,-0.9821624755859375,-0.2280120849609375,0.0470733642578125
1751013514252178700,4.3081787109375,-0.9917755126953125,-0.223907470703125,0.0458526611328125
1751013514262122800,4.318122802734375,-0.9965362548828125,-0.223358154296875,0.0433349609375
1751013514272065500,4.3280654296875,-1.0021820068359375,-0.2201995849609375,0.038848876953125
1751013514282008600,4.338008544921875,-1.0045318603515625,-0.2134246826171875,0.0350494384765625
1751013514291952600,4.34795263671875,-1.0053253173828125,-0.209075927734375,0.0293731689453125
1751013514301895700,4.357895751953125,-1.0007781982421875,-0.2076416015625,0.0292816162109375
1751013514311838700,4.367838623046875,-1.0001678466796875,-0.206146240234375,0.0261077880859375
1751013514321782500,4.377782470703125,-1.000518798828125,-0.2119598388671875,0.009124755859375
1751013514331725600,4.3877255859375,-0.991363525390625,-0.2089691162109375,0.009033203125
1751013514341669600,4.397669677734375,-0.9915618896484375,-0.2041015625,0.014556884765625
1751013514351612700,4.40761279296875,-0.9910888671875,-0.2087249755859375,0.0193939208984375
1751013514361555500,4.417555419921875,-0.987030029296875,-0.2128448486328125,0.0211334228515625
1751013514371499800,4.427499755859375,-0.9846954345703125,-0.2133331298828125,0.019775390625
1751013514381442800,4.43744287109375,-0.9837646484375,-0.2181243896484375,0.0160675048828125
1751013514391385900,4.4473857421875,-0.98089599609375,-0.225555419921875,0.013824462890625
1751013514401329700,4.45732958984375,-0.9711761474609375,-0.230743408203125,0.014984130859375
1751013514411272700,4.467272705078125,-0.9624481201171875,-0.2306671142578125,0.016265869140625
1751013514421214700,4.477214599609375,-0.9674530029296875,-0.2327880859375,0.0234375
1751013514431159000,4.487158935546875,-0.9739990234375,-0.237457275390625,0.0267181396484375
1751013514441102000,4.49710205078125,-0.9745941162109375,-0.2387542724609375,0.0242462158203125
1751013514451045000,4.507045166015625,-0.9718017578125,-0.23834228515625,0.0227203369140625
1751013514460989000,4.516989013671875,-0.9727325439453125,-0.2408447265625,0.024627685546875
1751013514470932000,4.526931884765625,-0.9753265380859375,-0.2433929443359375,0.026336669921875
1751013514480876000,4.5368759765625,-0.97723388671875,-0.24224853515625,0.0252532958984375
1751013514490819000,4.546819091796875,-0.9738006591796875,-0.2365264892578125,0.0247344970703125
1751013514500762000,4.55676220703125,-0.96929931640625,-0.2325592041015625,0.0266571044921875
1751013514510706000,4.566705810546875,-0.970001220703125,-0.2294464111328125,0.027374267578125
1751013514520649000,4.57664892578125,-0.972686767578125,-0.22601318359375,0.030487060546875
1751013514530592000,4.586592041015625,-0.9765777587890625,-0.22344970703125,0.02935791015625
1751013514540535800,4.596535888671875,-0.98699951171875,-0.2224273681640625,0.03173828125
1751013514550478800,4.606478759765625,-0.994415283203125,-0.2217559814453125,0.0347900390625
1751013514560423000,4.6164228515625,-0.991180419921875,-0.2222137451171875,0.0330352783203125
1751013514570366000,4.626365966796875,-0.988983154296875,-0.22161865234375,0.0324859619140625
1751013514580309000,4.63630908203125,-0.9875030517578125,-0.2234039306640625,0.0334320068359375
1751013514590252800,4.646252685546875,-0.98834228515625,-0.225677490234375,0.03094482421875
1751013514600195800,4.65619580078125,-0.989410400390625,-0.228759765625,0.028411865234375
1751013514610139000,4.666138916015625,-0.99267578125,-0.2292022705078125,0.0275115966796875
1751013514620083000,4.6760830078125,-0.9950408935546875,-0.2284088134765625,0.02764892578125
1751013514630026000,4.68602587890625,-0.9948883056640625,-0.2285614013671875,0.026824951171875
1751013514639968800,4.69596875,-0.9954376220703125,-0.2306671142578125,0.0237884521484375
1751013514649912800,4.705912841796875,-0.99371337890625,-0.2302703857421875,0.021209716796875
1751013514659856000,4.71585595703125,-0.9831695556640625,-0.2258758544921875,0.0166473388671875
1751013514669799000,4.725798828125,-0.97821044921875,-0.2209014892578125,0.015838623046875
1751013514679742700,4.73574267578125,-0.98345947265625,-0.221893310546875,0.0193023681640625
1751013514689685800,4.745685791015625,-0.9859619140625,-0.226043701171875,0.021392822265625
1751013514699630000,4.755630126953125,-0.9831695556640625,-0.2281036376953125,0.0215606689453125
1751013514709573000,4.765572998046875,-0.9788360595703125,-0.2305908203125,0.0178985595703125
1751013514719516200,4.77551611328125,-0.9732208251953125,-0.23480224609375,0.016754150390625
1751013514729460000,4.7854599609375,-0.9697723388671875,-0.2381439208984375,0.018096923828125
1751013514739403000,4.795403076171875,-0.974212646484375,-0.238037109375,0.0174560546875
1751013514749346000,4.805345947265625,-0.982513427734375,-0.23785400390625,0.0234222412109375
1751013514759289900,4.815289794921875,-0.9910125732421875,-0.2376251220703125,0.025421142578125
1751013514769233000,4.82523291015625,-0.9914703369140625,-0.2367401123046875,0.0266876220703125
1751013514779176000,4.835176025390625,-0.9901580810546875,-0.2330474853515625,0.02532958984375
1751013514789120000,4.8451201171875,-0.9939422607421875,-0.2305908203125,0.024169921875
1751013514799063000,4.85506298828125,-0.9979095458984375,-0.23114013671875,0.02166748046875
1751013514809006000,4.865006103515625,-0.9977264404296875,-0.23162841796875,0.0192718505859375
1751013514818950000,4.874949951171875,-0.9983367919921875,-0.228515625,0.019073486328125
1751013514828893000,4.884892822265625,-0.996002197265625,-0.225555419921875,0.021881103515625
1751013514838837000,4.8948369140625,-0.9947509765625,-0.2295379638671875,0.0263519287109375
1751013514848780000,4.904780029296875,-0.993865966796875,-0.2337493896484375,0.0289764404296875
1751013514858722800,4.914722900390625,-0.9915924072265625,-0.2329864501953125,0.0269622802734375
1751013514868667000,4.9246669921875,-0.9889373779296875,-0.2340850830078125,0.0247955322265625
1751013514878610000,4.93460986328125,-0.9862823486328125,-0.2373809814453125,0.0236358642578125
1751013514888553000,4.944552978515625,-0.98419189453125,-0.2359619140625,0.023040771484375
1751013514898496800,4.954496826171875,-0.9827423095703125,-0.236663818359375,0.0217742919921875
1751013514908439800,4.964439697265625,-0.98602294921875,-0.2375030517578125,0.01861572265625
1751013514918382800,4.9743828125,-0.9882659912109375,-0.23724365234375,0.016876220703125
1751013514928327000,4.984326904296875,-0.987945556640625,-0.236297607421875,0.01934814453125
1751013514938270000,4.99427001953125,-0.98797607421875,-0.23529052734375,0.0215301513671875
1751013514948213800,5.0042138671875,-0.9883575439453125,-0.23590087890625,0.0211334228515625
1751013514958156800,5.01415673828125,-0.9893951416015625,-0.2361602783203125,0.0193939208984375
1751013514968099800,5.024099853515625,-0.989013671875,-0.2360076904296875,0.017913818359375
1751013514978044200,5.034044189453125,-0.9868927001953125,-0.2356414794921875,0.020660400390625
1751013514987987000,5.043987060546875,-0.9874267578125,-0.23480224609375,0.0233154296875
1751013514997929700,5.0539296875,-0.9909515380859375,-0.2347412109375,0.0235595703125
1751013515007874000,5.0638740234375,-0.989349365234375,-0.2375640869140625,0.0251922607421875
1751013515017817000,5.073817138671875,-0.98748779296875,-0.2389373779296875,0.025115966796875
1751013515027760000,5.083760009765625,-0.9897918701171875,-0.2393951416015625,0.0251312255859375
1751013515037704000,5.093703857421875,-0.9878082275390625,-0.2395782470703125,0.0237884521484375
1751013515047647000,5.10364697265625,-0.9850311279296875,-0.239532470703125,0.023956298828125
1751013515057591000,5.113591064453125,-0.9807586669921875,-0.2400970458984375,0.02630615234375
1751013515067534000,5.1235341796875,-0.9776763916015625,-0.2412567138671875,0.0266571044921875
1751013515077476900,5.133476806640625,-0.9776458740234375,-0.2422637939453125,0.030426025390625
1751013515087421000,5.1434208984375,-0.98065185546875,-0.2430572509765625,0.0336761474609375
1751013515097364000,5.153364013671875,-0.97698974609375,-0.244293212890625,0.0414581298828125
1751013515107307000,5.16330712890625,-0.9745330810546875,-0.24249267578125,0.0426177978515625
1751013515117250800,5.173250732421875,-0.9748382568359375,-0.2393798828125,0.0369873046875
1751013515127193900,5.18319384765625,-0.9766082763671875,-0.2381591796875,0.0372772216796875
1751013515137137000,5.193136962890625,-0.98358154296875,-0.2386627197265625,0.038909912109375
1751013515147081000,5.2030810546875,-0.9859161376953125,-0.237457275390625,0.041290283203125
1751013515157024000,5.21302392578125,-0.9869384765625,-0.2362518310546875,0.042999267578125
1751013515166967000,5.222967041015625,-0.985076904296875,-0.2325439453125,0.04052734375
1751013515176910800,5.232910888671875,-0.984344482421875,-0.23138427734375,0.037933349609375
1751013515186854000,5.24285400390625,-0.9852294921875,-0.2332000732421875,0.03631591796875
1751013515196798000,5.2527978515625,-0.9867401123046875,-0.2332611083984375,0.035491943359375
1751013515206740700,5.26274072265625,-0.9893951416015625,-0.23455810546875,0.03662109375
1751013515216683800,5.272683837890625,-0.9883270263671875,-0.237457275390625,0.037933349609375
1751013515226627800,5.2826279296875,-0.9874420166015625,-0.2412567138671875,0.0413360595703125
1751013515236571000,5.29257080078125,-0.9881439208984375,-0.240447998046875,0.0417938232421875
1751013515246514000,5.302513916015625,-0.9876556396484375,-0.2390289306640625,0.04296875
1751013515256458000,5.3124580078125,-0.986083984375,-0.2378692626953125,0.040252685546875
1751013515266400800,5.32240087890625,-0.9857940673828125,-0.236541748046875,0.0406494140625
1751013515276343800,5.33234375,-0.982147216796875,-0.23638916015625,0.0416107177734375
1751013515286288100,5.3422880859375,-0.9793853759765625,-0.2378997802734375,0.0420074462890625
1751013515296231000,5.35223095703125,-0.9803619384765625,-0.2389678955078125,0.0422821044921875
1751013515306174000,5.362174072265625,-0.982757568359375,-0.24078369140625,0.0445404052734375
1751013515316118000,5.372117919921875,-0.9817657470703125,-0.2396697998046875,0.0435333251953125
1751013515326061000,5.38206103515625,-0.982666015625,-0.240966796875,0.0442962646484375
1751013515336004900,5.3920048828125,-0.9845123291015625,-0.2420196533203125,0.045989990234375
1751013515345948000,5.401947998046875,-0.9817047119140625,-0.241455078125,0.0473175048828125
1751013515355891000,5.411890869140625,-0.9824371337890625,-0.2386932373046875,0.047637939453125
1751013515365835000,5.4218349609375,-0.984466552734375,-0.2370758056640625,0.047149658203125
1751013515375778000,5.431778076171875,-0.985382080078125,-0.2381134033203125,0.048095703125
1751013515385721000,5.44172119140625,-0.9866180419921875,-0.2361907958984375,0.046844482421875
1751013515395665000,5.451664794921875,-0.9860076904296875,-0.235137939453125,0.0481414794921875
1751013515405608000,5.46160791015625,-0.9818115234375,-0.2332916259765625,0.04791259765625
1751013515415551000,5.471551025390625,-0.9792327880859375,-0.2335052490234375,0.0479736328125
1751013515425499400,5.48149951171875,-0.977386474609375,-0.2332611083984375,0.0511016845703125
1751013515435442400,5.4914423828125,-0.9767608642578125,-0.2324371337890625,0.052337646484375
1751013515445385500,5.501385498046875,-0.97674560546875,-0.2314300537109375,0.0516510009765625
1751013515455329500,5.51132958984375,-0.977630615234375,-0.23089599609375,0.04962158203125
1751013515465272300,5.521272216796875,-0.9780731201171875,-0.2326202392578125,0.0473175048828125
1751013515475216400,5.53121630859375,-0.978851318359375,-0.2336883544921875,0.0428619384765625
1751013515485159400,5.541159423828125,-0.9815673828125,-0.233917236328125,0.039276123046875
1751013515495102500,5.5511025390625,-0.984832763671875,-0.2354278564453125,0.036712646484375
1751013515505046300,5.56104638671875,-0.9877471923828125,-0.235931396484375,0.0382843017578125
1751013515514989300,5.5709892578125,-0.9889984130859375,-0.2365570068359375,0.0397186279296875
1751013515524932400,5.580932373046875,-0.9916229248046875,-0.2368316650390625,0.0389251708984375
1751013515534876700,5.590876708984375,-0.9916839599609375,-0.2352142333984375,0.0379486083984375
1751013515544819500,5.6008193359375,-0.9908447265625,-0.2329559326171875,0.0355377197265625
1751013515554762200,5.61076220703125,-0.9907379150390625,-0.231903076171875,0.0326385498046875
1751013515564706600,5.62070654296875,-0.993865966796875,-0.231964111328125,0.032196044921875
1751013515574649600,5.630649658203125,-0.993804931640625,-0.233856201171875,0.032470703125
1751013515584592600,5.640592529296875,-0.9924774169921875,-0.2359161376953125,0.032806396484375
1751013515594536400,5.650536376953125,-0.9897918701171875,-0.2371368408203125,0.0330352783203125
1751013515604479500,5.6604794921875,-0.9852294921875,-0.2388458251953125,0.0344696044921875
1751013515614423600,5.670423583984375,-0.9835662841796875,-0.2403564453125,0.03643798828125
1751013515624366600,5.68036669921875,-0.9823455810546875,-0.240234375,0.0388641357421875
1751013515634309600,5.6903095703125,-0.9771270751953125,-0.2399749755859375,0.0350799560546875
1751013515644253400,5.70025341796875,-0.972747802734375,-0.2393035888671875,0.0344696044921875
1751013515654196500,5.710196533203125,-0.9789886474609375,-0.2392578125,0.037200927734375
1751013515664139500,5.720139404296875,-0.9847869873046875,-0.240966796875,0.0390625
1751013515674083600,5.73008349609375,-0.987457275390625,-0.23822021484375,0.041473388671875
1751013515684026400,5.7400263671875,-0.9868621826171875,-0.2364959716796875,0.043609619140625
1751013515693969400,5.749969482421875,-0.9873046875,-0.235870361328125,0.043365478515625
1751013515703913500,5.75991357421875,-0.9891815185546875,-0.2344207763671875,0.0401153564453125
1751013515713856500,5.7698564453125,-0.9921875,-0.231964111328125,0.041900634765625
1751013515723799600,5.779799560546875,-0.99127197265625,-0.23150634765625,0.0427093505859375
1751013515733743400,5.789743408203125,-0.992095947265625,-0.231170654296875,0.04296875
1751013515743686400,5.799686279296875,-0.9913482666015625,-0.2302093505859375,0.0465545654296875
1751013515753630500,5.80963037109375,-0.9895477294921875,-0.2315521240234375,0.045196533203125
1751013515763573500,5.819573486328125,-0.98992919921875,-0.23052978515625,0.044769287109375
1751013515773516500,5.8295166015625,-0.9868621826171875,-0.2291259765625,0.043853759765625
1751013515783460400,5.83946044921875,-0.98602294921875,-0.2303619384765625,0.0435943603515625
1751013515793403400,5.8494033203125,-0.9864349365234375,-0.2339324951171875,0.0444183349609375
1751013515803346400,5.859346435546875,-0.9852142333984375,-0.235321044921875,0.04327392578125
1751013515813290200,5.869290283203125,-0.98358154296875,-0.2370147705078125,0.0443115234375
1751013515823233300,5.8792333984375,-0.980499267578125,-0.2387847900390625,0.0427093505859375
1751013515833176300,5.88917626953125,-0.97772216796875,-0.239654541015625,0.0400390625
1751013515843120600,5.89912060546875,-0.97576904296875,-0.2393646240234375,0.0408172607421875
1751013515853063700,5.909063720703125,-0.977081298828125,-0.238555908203125,0.044342041015625
1751013515863007500,5.919007568359375,-0.97509765625,-0.2401275634765625,0.0415496826171875
1751013515872950500,5.928950439453125,-0.9730072021484375,-0.2405853271484375,0.039306640625
1751013515882893600,5.9388935546875,-0.9739227294921875,-0.240509033203125,0.0426788330078125
1751013515892837600,5.948837646484375,-0.9765167236328125,-0.243377685546875,0.041778564453125
1751013515902780400,5.958780517578125,-0.9801177978515625,-0.245391845703125,0.0410919189453125
1751013515912723500,5.968723388671875,-0.9815521240234375,-0.245361328125,0.0416107177734375
1751013515922667500,5.97866748046875,-0.9825897216796875,-0.244049072265625,0.043731689453125
1751013515932610600,5.988610595703125,-0.9825592041015625,-0.2447509765625,0.0429229736328125
1751013515942553600,5.9985537109375,-0.98291015625,-0.24493408203125,0.0411529541015625
1751013515952497400,6.008497314453125,-0.9838714599609375,-0.2422332763671875,0.0442657470703125
1751013515962440400,6.0184404296875,-0.9847564697265625,-0.239959716796875,0.044677734375
1751013515972383500,6.028383544921875,-0.9878387451171875,-0.23883056640625,0.043975830078125
1751013515982327600,6.03832763671875,-0.989410400390625,-0.2384033203125,0.0466156005859375
1751013515992270600,6.0482705078125,-0.9905853271484375,-0.2363128662109375,0.0483245849609375
1751013516002213400,6.05821337890625,-0.991180419921875,-0.2349395751953125,0.0475006103515625
1751013516012157400,6.068157470703125,-0.9914398193359375,-0.2352142333984375,0.0478515625
1751013516022100500,6.0781005859375,-0.9906768798828125,-0.2357635498046875,0.0473480224609375
1751013516032044300,6.088044189453125,-0.9894561767578125,-0.2337493896484375,0.0466156005859375
1751013516041987300,6.0979873046875,-0.98712158203125,-0.2338714599609375,0.044677734375
1751013516051930400,6.107930419921875,-0.98541259765625,-0.2353668212890625,0.0441741943359375
1751013516061874400,6.11787451171875,-0.9845733642578125,-0.2354278564453125,0.0439910888671875
1751013516071817500,6.1278173828125,-0.98388671875,-0.23870849609375,0.044158935546875
1751013516081760500,6.137760498046875,-0.9836883544921875,-0.2408447265625,0.04644775390625
1751013516091704300,6.147704345703125,-0.9811248779296875,-0.2427520751953125,0.0475006103515625
1751013516101647400,6.1576474609375,-0.9800872802734375,-0.244720458984375,0.044921875
1751013516111590400,6.16759033203125,-0.9770965576171875,-0.244140625,0.0438079833984375
1751013516121534500,6.177534423828125,-0.978302001953125,-0.242431640625,0.0448150634765625
1751013516131477200,6.187477294921875,-0.9825286865234375,-0.2404022216796875,0.045196533203125
1751013516141421600,6.197421630859375,-0.9845733642578125,-0.240631103515625,0.0440673828125
1751013516151364600,6.207364501953125,-0.9835662841796875,-0.24053955078125,0.0429840087890625
1751013516161307600,6.2173076171875,-0.9837646484375,-0.240081787109375,0.042144775390625
1751013516171251500,6.22725146484375,-0.9854583740234375,-0.2392578125,0.0436248779296875
1751013516181194500,6.237194580078125,-0.9893646240234375,-0.237457275390625,0.045654296875
1751013516191137500,6.247137451171875,-0.9915618896484375,-0.2374725341796875,0.0460968017578125
1751013516201081600,6.25708154296875,-0.9897918701171875,-0.2364959716796875,0.044189453125
1751013516211024600,6.267024658203125,-0.9906768798828125,-0.2341766357421875,0.044891357421875
1751013516220967400,6.276967529296875,-0.9908905029296875,-0.23504638671875,0.045928955078125
1751013516230911500,6.286911376953125,-0.987762451171875,-0.2378692626953125,0.0460357666015625
1751013516240854500,6.2968544921875,-0.9848175048828125,-0.237548828125,0.0439910888671875
1751013516250797600,6.306797607421875,-0.98455810546875,-0.2371063232421875,0.043792724609375
1751013516260741400,6.316741455078125,-0.9851837158203125,-0.238739013671875,0.0468292236328125
1751013516270684400,6.326684326171875,-0.9842681884765625,-0.2403717041015625,0.0482940673828125
1751013516280628500,6.33662841796875,-0.9830169677734375,-0.23858642578125,0.0483245849609375
1751013516290571500,6.346571533203125,-0.98138427734375,-0.23577880859375,0.048614501953125
1751013516300514600,6.3565146484375,-0.979766845703125,-0.23468017578125,0.0466156005859375
1751013516310458400,6.366458251953125,-0.9785308837890625,-0.2347564697265625,0.0454254150390625
1751013516320401400,6.3764013671875,-0.979461669921875,-0.2337799072265625,0.0450439453125
1751013516330344400,6.386344482421875,-0.9802093505859375,-0.233428955078125,0.043304443359375
1751013516340288500,6.39628857421875,-0.97845458984375,-0.2333221435546875,0.0435638427734375
1751013516350231300,6.406231201171875,-0.979339599609375,-0.2353057861328125,0.0469970703125
1751013516360174300,6.41617431640625,-0.983734130859375,-0.234771728515625,0.0489959716796875
1751013516370118400,6.426118408203125,-0.9842376708984375,-0.2337646484375,0.0457763671875
1751013516380061400,6.4360615234375,-0.9830169677734375,-0.233428955078125,0.0442047119140625
1751013516390004500,6.44600439453125,-0.9854888916015625,-0.2360687255859375,0.042327880859375
1751013516399948300,6.4559482421875,-0.9877166748046875,-0.240264892578125,0.040283203125
1751013516409891300,6.465891357421875,-0.986358642578125,-0.2413787841796875,0.0376739501953125
1751013516419830300,6.475830322265625,-0.9856719970703125,-0.2439117431640625,0.03753662109375
1751013516429774300,6.4857744140625,-0.9873199462890625,-0.2460174560546875,0.040252685546875
1751013516439717400,6.49571728515625,-0.9888763427734375,-0.2466888427734375,0.0450286865234375
1751013516449661200,6.5056611328125,-0.98974609375,-0.243804931640625,0.04656982421875
1751013516459604200,6.515604248046875,-0.98876953125,-0.24200439453125,0.0443572998046875
1751013516469547300,6.52554736328125,-0.988922119140625,-0.239227294921875,0.041595458984375
1751013516479491300,6.5354912109375,-0.987152099609375,-0.2365264892578125,0.0381011962890625
1751013516489434400,6.545434326171875,-0.9876556396484375,-0.2353057861328125,0.0371551513671875
1751013516499377200,6.555377197265625,-0.988677978515625,-0.2384796142578125,0.0365447998046875
1751013516509321200,6.5653212890625,-0.9876556396484375,-0.2400360107421875,0.039764404296875
1751013516519264300,6.57526416015625,-0.9866790771484375,-0.2405242919921875,0.043304443359375
1751013516529207300,6.585207275390625,-0.985382080078125,-0.2407989501953125,0.0465240478515625
1751013516539151000,6.595151123046875,-0.98480224609375,-0.240234375,0.0489959716796875
1751013516549094100,6.60509423828125,-0.984588623046875,-0.240203857421875,0.0490875244140625
1751013516559038500,6.61503857421875,-0.9829559326171875,-0.2390289306640625,0.0486297607421875
1751013516568981500,6.6249814453125,-0.9806671142578125,-0.2376556396484375,0.047882080078125
1751013516578924500,6.634924560546875,-0.9792633056640625,-0.2389984130859375,0.046783447265625
1751013516588868400,6.644868408203125,-0.9796600341796875,-0.2409820556640625,0.04644775390625
1751013516598811400,6.654811279296875,-0.9807891845703125,-0.24163818359375,0.04620361328125
1751013516608754400,6.66475439453125,-0.979400634765625,-0.239227294921875,0.045074462890625
1751013516618698200,6.6746982421875,-0.98065185546875,-0.2391510009765625,0.0475921630859375
1751013516628641300,6.684641357421875,-0.981964111328125,-0.2403564453125,0.04833984375
1751013516638584300,6.694584228515625,-0.982818603515625,-0.2397003173828125,0.0483245849609375
1751013516648528400,6.7045283203125,-0.9840240478515625,-0.239501953125,0.0479736328125
1751013516658471400,6.714471435546875,-0.983184814453125,-0.2413177490234375,0.049102783203125
1751013516668414500,6.72441455078125,-0.982940673828125,-0.242645263671875,0.0488433837890625
1751013516678358300,6.734358154296875,-0.983795166015625,-0.2430267333984375,0.0481719970703125
1751013516688301300,6.74430126953125,-0.9824371337890625,-0.243011474609375,0.0496978759765625
1751013516698245400,6.754245361328125,-0.9822845458984375,-0.2427978515625,0.052154541015625
1751013516708188400,6.7641884765625,-0.9818878173828125,-0.242218017578125,0.0524749755859375
1751013516718131200,6.774131103515625,-0.9821319580078125,-0.240509033203125,0.053314208984375
1751013516728075300,6.7840751953125,-0.9844970703125,-0.23895263671875,0.0527496337890625
1751013516738018300,6.794018310546875,-0.9835205078125,-0.237274169921875,0.0527191162109375
1751013516747961300,6.80396142578125,-0.985321044921875,-0.2358245849609375,0.0502777099609375
1751013516757905200,6.8139052734375,-0.988555908203125,-0.2351837158203125,0.0481719970703125
1751013516767848200,6.82384814453125,-0.991546630859375,-0.23626708984375,0.0453643798828125
1751013516777791200,6.833791259765625,-0.99664306640625,-0.236053466796875,0.0430145263671875
1751013516787735300,6.8437353515625,-0.9984130859375,-0.2358856201171875,0.0425262451171875
1751013516797678300,6.85367822265625,-0.9984588623046875,-0.236114501953125,0.0403289794921875
1751013516807622100,6.8636220703125,-0.9983367919921875,-0.2374725341796875,0.038330078125
1751013516817565200,6.873565185546875,-0.995269775390625,-0.2368927001953125,0.036865234375
1751013516827508200,6.88350830078125,-0.995635986328125,-0.2350616455078125,0.035369873046875
1751013516837452300,6.893452392578125,-0.9973907470703125,-0.237213134765625,0.03375244140625
1751013516847395300,6.903395263671875,-0.9913787841796875,-0.2389068603515625,0.03350830078125
1751013516857338000,6.913338134765625,-0.9838409423828125,-0.238189697265625,0.0366363525390625
1751013516867282400,6.923282470703125,-0.9817352294921875,-0.2375640869140625,0.0395050048828125
1751013516877225500,6.9332255859375,-0.9824371337890625,-0.239105224609375,0.0395965576171875
1751013516887168500,6.94316845703125,-0.976593017578125,-0.2400665283203125,0.041778564453125
1751013516897112300,6.9531123046875,-0.9708709716796875,-0.241455078125,0.0462646484375
1751013516907055400,6.963055419921875,-0.9686279296875,-0.244232177734375,0.0527496337890625
1751013516916998400,6.972998291015625,-0.9653167724609375,-0.2453155517578125,0.05340576171875
1751013516926942500,6.9829423828125,-0.9654541015625,-0.243377685546875,0.05230712890625
1751013516936885200,6.99288525390625,-0.9686431884765625,-0.2429656982421875,0.054931640625
1751013516946829300,7.002829345703125,-0.9685211181640625,-0.242584228515625,0.0556182861328125
1751013516956772400,7.0127724609375,-0.9667816162109375,-0.24066162109375,0.052642822265625
1751013516966715400,7.02271533203125,-0.967376708984375,-0.237823486328125,0.047882080078125
1751013516976659200,7.0326591796875,-0.9567718505859375,-0.2452392578125,0.0555419921875
1751013516986602200,7.042602294921875,-0.94549560546875,-0.24468994140625,0.0572357177734375
1751013516996545300,7.052545166015625,-0.9443359375,-0.241912841796875,0.0540924072265625
1751013517006489300,7.0624892578125,-0.953277587890625,-0.2457275390625,0.05682373046875
1751013517016432400,7.072432373046875,-0.9645233154296875,-0.2512969970703125,0.063018798828125
1751013517026375200,7.082375244140625,-0.97247314453125,-0.254058837890625,0.0670013427734375
1751013517036319200,7.0923193359375,-0.97186279296875,-0.2559356689453125,0.0664215087890625
1751013517046262300,7.10226220703125,-0.9719390869140625,-0.256500244140625,0.065948486328125
1751013517056206300,7.112206298828125,-0.9730072021484375,-0.2571563720703125,0.0650482177734375
1751013517066149000,7.122149169921875,-0.9742584228515625,-0.255523681640625,0.062896728515625
1751013517076092200,7.132092041015625,-0.971893310546875,-0.2522125244140625,0.0608673095703125
1751013517086036200,7.1420361328125,-0.973480224609375,-0.251068115234375,0.0605010986328125
1751013517095979300,7.151979248046875,-0.977569580078125,-0.2486419677734375,0.059326171875
1751013517105922300,7.16192236328125,-0.9831390380859375,-0.2490234375,0.0608673095703125
1751013517115866000,7.1718662109375,-0.988922119140625,-0.2480316162109375,0.0613250732421875
1751013517125809200,7.18180908203125,-0.996429443359375,-0.2452850341796875,0.0596923828125
1751013517135752200,7.191752197265625,-1.0030975341796875,-0.2432403564453125,0.0560455322265625
1751013517145696500,7.201696533203125,-1.0067901611328125,-0.241424560546875,0.05072021484375
1751013517155639300,7.211639404296875,-1.0087890625,-0.2373504638671875,0.0473480224609375
1751013517165583400,7.221583251953125,-1.00787353515625,-0.2355804443359375,0.0440673828125
1751013517175526400,7.2315263671875,-1.0052642822265625,-0.236328125,0.0413055419921875
1751013517185469400,7.241469482421875,-1.000518798828125,-0.237030029296875,0.0404052734375
1751013517195413200,7.251413330078125,-0.99334716796875,-0.237030029296875,0.0409393310546875
1751013517205356300,7.261356201171875,-0.988311767578125,-0.23870849609375,0.044158935546875
1751013517215299300,7.27129931640625,-0.9830474853515625,-0.2410888671875,0.0486297607421875
1751013517225243400,7.281243408203125,-0.980499267578125,-0.2438201904296875,0.0501708984375
1751013517235186400,7.2911865234375,-0.97906494140625,-0.2446136474609375,0.04827880859375
1751013517245129500,7.30112939453125,-0.979339599609375,-0.2440948486328125,0.045623779296875
1751013517255073300,7.3110732421875,-0.9813079833984375,-0.2431793212890625,0.0417327880859375
1751013517265016300,7.321016357421875,-0.9815826416015625,-0.2422332763671875,0.0398101806640625
1751013517274960400,7.33096044921875,-0.982452392578125,-0.2423858642578125,0.0369110107421875
1751013517284903200,7.340903076171875,-0.9832000732421875,-0.242919921875,0.036346435546875
1751013517294846200,7.35084619140625,-0.9837646484375,-0.24420166015625,0.037689208984375
1751013517304790300,7.360790283203125,-0.98712158203125,-0.244720458984375,0.039154052734375
1751013517314733300,7.3707333984375,-0.9890289306640625,-0.2425689697265625,0.0403289794921875
1751013517324676400,7.38067626953125,-0.986968994140625,-0.2412109375,0.039520263671875
1751013517334620200,7.3906201171875,-0.9861297607421875,-0.239349365234375,0.0407257080078125
1751013517344563200,7.400563232421875,-0.9858856201171875,-0.23883056640625,0.041961669921875
1751013517354506200,7.41050634765625,-0.9867095947265625,-0.238922119140625,0.04071044921875
1751013517364450300,7.4204501953125,-0.9899139404296875,-0.2399749755859375,0.041900634765625
1751013517374393300,7.430393310546875,-0.993927001953125,-0.2406005859375,0.04315185546875
1751013517384336100,7.440336181640625,-0.9980926513671875,-0.240447998046875,0.044586181640625
1751013517394280200,7.4502802734375,-0.9989776611328125,-0.2397003173828125,0.0449371337890625
1751013517404223200,7.46022314453125,-0.996002197265625,-0.2384185791015625,0.044403076171875
1751013517414167300,7.470167236328125,-0.9965667724609375,-0.2397613525390625,0.04681396484375
1751013517424110300,7.4801103515625,-0.9958953857421875,-0.23828125,0.049163818359375
1751013517434053400,7.490053466796875,-0.9937286376953125,-0.235076904296875,0.048248291015625
1751013517443997400,7.49999755859375,-0.992889404296875,-0.23284912109375,0.048675537109375
1751013517453940500,7.5099404296875,-0.994354248046875,-0.23291015625,0.05029296875
1751013517463883500,7.519883544921875,-0.9949493408203125,-0.23455810546875,0.0525054931640625
1751013517473827300,7.529827392578125,-0.9918212890625,-0.2345123291015625,0.0541839599609375
1751013517483770400,7.539770263671875,-0.9884185791015625,-0.2346954345703125,0.0541534423828125
1751013517493713400,7.54971337890625,-0.983184814453125,-0.23431396484375,0.05517578125
1751013517503657200,7.5596572265625,-0.9808807373046875,-0.2337646484375,0.06158447265625
1751013517513600300,7.569600341796875,-0.9794158935546875,-0.2350006103515625,0.0654296875
1751013517523544300,7.57954443359375,-0.976470947265625,-0.2363433837890625,0.065399169921875
1751013517533487400,7.5894873046875,-0.9738311767578125,-0.23828125,0.0627288818359375
1751013517543430400,7.599430419921875,-0.9712677001953125,-0.239532470703125,0.063873291015625
1751013517553374500,7.60937451171875,-0.9698638916015625,-0.240753173828125,0.064483642578125
1751013517563317500,7.6193173828125,-0.96820068359375,-0.2417449951171875,0.066925048828125
1751013517573260500,7.629260498046875,-0.9678192138671875,-0.2433624267578125,0.0673675537109375
1751013517583204600,7.63920458984375,-0.9720001220703125,-0.2436676025390625,0.0666351318359375
1751013517593147400,7.6491474609375,-0.97760009765625,-0.243316650390625,0.0645599365234375
1751013517603090400,7.65909033203125,-0.981414794921875,-0.2418975830078125,0.0638580322265625
1751013517613034500,7.669034423828125,-0.986114501953125,-0.2408905029296875,0.06243896484375
1751013517622977500,7.6789775390625,-0.9902191162109375,-0.2397918701171875,0.0608673095703125
1751013517632921300,7.68892138671875,-0.989776611328125,-0.23828125,0.05908203125
1751013517642864400,7.698864501953125,-0.9905242919921875,-0.2373199462890625,0.06011962890625
1751013517652807400,7.708807373046875,-0.9928131103515625,-0.237457275390625,0.061553955078125
1751013517662751500,7.71875146484375,-0.991851806640625,-0.2374725341796875,0.064697265625
1751013517672694500,7.728694580078125,-0.9884185791015625,-0.235595703125,0.065948486328125
1751013517682637600,7.738637451171875,-0.9873809814453125,-0.237274169921875,0.0675201416015625
1751013517692581400,7.748581298828125,-0.987152099609375,-0.24078369140625,0.0682373046875
1751013517702524400,7.7585244140625,-0.9877166748046875,-0.2430419921875,0.066009521484375
1751013517712467500,7.768467529296875,-0.9868621826171875,-0.2415771484375,0.06085205078125
1751013517722411500,7.77841162109375,-0.9853057861328125,-0.238677978515625,0.0557403564453125
1751013517732354300,7.788354248046875,-0.9828338623046875,-0.2382659912109375,0.0523681640625
1751013517742298400,7.79829833984375,-0.97784423828125,-0.23724365234375,0.05023193359375
1751013517752241400,7.808241455078125,-0.9793853759765625,-0.23504638671875,0.04736328125
1751013517762184400,7.818184326171875,-0.981781005859375,-0.235626220703125,0.0489349365234375
1751013517772128300,7.828128173828125,-0.982513427734375,-0.240997314453125,0.0551910400390625
1751013517782071300,7.8380712890625,-0.978607177734375,-0.2441253662109375,0.0574188232421875
1751013517792014300,7.848014404296875,-0.9747314453125,-0.243438720703125,0.0565032958984375
1751013517801958400,7.85795849609375,-0.9739837646484375,-0.242523193359375,0.0547637939453125
1751013517811901400,7.8679013671875,-0.97589111328125,-0.2406463623046875,0.0521087646484375
1751013517821844200,7.87784423828125,-0.976470947265625,-0.2368011474609375,0.0499420166015625
1751013517831788500,7.88778857421875,-0.9760589599609375,-0.236328125,0.04888916015625
1751013517841731300,7.8977314453125,-0.9747467041015625,-0.238128662109375,0.0458526611328125
1751013517851675400,7.90767529296875,-0.9715576171875,-0.243133544921875,0.04400634765625
1751013517861618400,7.917618408203125,-0.9701385498046875,-0.2465972900390625,0.0419921875
1751013517871561500,7.9275615234375,-0.9688568115234375,-0.2475738525390625,0.0421295166015625
1751013517881505500,7.937505615234375,-0.969085693359375,-0.249298095703125,0.0411224365234375
1751013517891448600,7.947448486328125,-0.9712371826171875,-0.251251220703125,0.0385589599609375
1751013517901391600,7.9573916015625,-0.975494384765625,-0.2530670166015625,0.0391998291015625
1751013517911335400,7.96733544921875,-0.9793853759765625,-0.25360107421875,0.036956787109375
1751013517921278500,7.977278564453125,-0.9825286865234375,-0.252899169921875,0.03619384765625
1751013517931221500,7.987221435546875,-0.9847412109375,-0.252288818359375,0.038421630859375
1751013517941165600,7.99716552734375,-0.9865570068359375,-0.2527008056640625,0.036895751953125
1751013517951108400,8.0071083984375,-0.9897613525390625,-0.250396728515625,0.036224365234375
1751013517961052400,8.017052490234375,-0.9868621826171875,-0.2499542236328125,0.037200927734375
1751013517970995500,8.026995361328124,-0.9797515869140625,-0.2507781982421875,0.036712646484375
1751013517980938500,8.0369384765625,-0.972015380859375,-0.24896240234375,0.0371551513671875
1751013517990882300,8.04688232421875,-0.968109130859375,-0.248931884765625,0.04266357421875
1751013518000825300,8.056825439453124,-0.9686279296875,-0.250732421875,0.047576904296875
1751013518010768400,8.066768310546875,-0.9705963134765625,-0.250823974609375,0.0504913330078125
1751013518020712400,8.07671240234375,-0.970062255859375,-0.247100830078125,0.052093505859375
1751013518030655500,8.086655517578125,-0.972015380859375,-0.2406005859375,0.0498809814453125
1751013518040598300,8.096598388671875,-0.976715087890625,-0.23675537109375,0.0470123291015625
1751013518050542300,8.106542236328124,-0.9801025390625,-0.2329559326171875,0.045501708984375
1751013518060485400,8.1164853515625,-0.981292724609375,-0.2258758544921875,0.0453643798828125
1751013518070429400,8.126429443359376,-0.9822235107421875,-0.221282958984375,0.043212890625
1751013518080372200,8.136372314453125,-0.9844512939453125,-0.2189788818359375,0.04339599609375
1751013518090315300,8.146315185546875,-0.9885101318359375,-0.2183380126953125,0.0439910888671875
1751013518100259600,8.156259521484374,-0.985137939453125,-0.2188720703125,0.043670654296875
1751013518110202400,8.166202392578125,-0.9783935546875,-0.221954345703125,0.0432586669921875
1751013518120145400,8.1761455078125,-0.9771575927734375,-0.22540283203125,0.0455474853515625
1751013518130089500,8.18608935546875,-0.9795379638671875,-0.227935791015625,0.04974365234375
1751013518140032500,8.196032470703125,-0.9781951904296875,-0.2318572998046875,0.0512542724609375
1751013518149975600,8.2059755859375,-0.9736480712890625,-0.231842041015625,0.051513671875
1751013518159919600,8.215919677734375,-0.9734344482421875,-0.232696533203125,0.0509033203125
1751013518169862400,8.2258623046875,-0.9782257080078125,-0.234832763671875,0.0507659912109375
1751013518179806500,8.235806396484374,-0.983978271484375,-0.2354736328125,0.0476837158203125
1751013518189749500,8.24574951171875,-0.9856414794921875,-0.23577880859375,0.0435028076171875
1751013518199692500,8.255692626953126,-0.9856719970703125,-0.236907958984375,0.0394744873046875
1751013518209636400,8.26563623046875,-0.989532470703125,-0.2367706298828125,0.040191650390625
1751013518219579400,8.275579345703125,-0.9969024658203125,-0.2380523681640625,0.0410308837890625
1751013518229522400,8.2855224609375,-0.99859619140625,-0.23931884765625,0.0428314208984375
1751013518239466500,8.295466552734375,-0.996246337890625,-0.2377471923828125,0.044189453125
1751013518249409500,8.305409423828126,-0.994293212890625,-0.2368621826171875,0.0450439453125
1751013518259352300,8.315352294921874,-0.9946136474609375,-0.23699951171875,0.044891357421875
1751013518269296400,8.32529638671875,-0.9950408935546875,-0.23626708984375,0.044921875
1751013518279239400,8.335239501953126,-0.9946441650390625,-0.236358642578125,0.0430908203125
1751013518289183500,8.34518359375,-0.9946136474609375,-0.236083984375,0.039215087890625
1751013518299126300,8.355126220703125,-0.99560546875,-0.236572265625,0.0341796875
1751013518309069300,8.3650693359375,-0.9971160888671875,-0.2364349365234375,0.034149169921875
1751013518319013400,8.375013427734375,-0.99517822265625,-0.237823486328125,0.0352783203125
1751013518328956400,8.384956298828126,-0.993072509765625,-0.237152099609375,0.034912109375
1751013518338899500,8.3948994140625,-0.9909820556640625,-0.235443115234375,0.035491943359375
1751013518348843300,8.40484326171875,-0.9875335693359375,-0.2353973388671875,0.0358428955078125
1751013518358786300,8.414786376953124,-0.9868621826171875,-0.2347564697265625,0.0364837646484375
1751013518368729300,8.424729248046875,-0.9871826171875,-0.2352752685546875,0.0384063720703125
1751013518378673400,8.43467333984375,-0.9901123046875,-0.2356109619140625,0.041015625
1751013518388616400,8.444616455078124,-0.991363525390625,-0.233489990234375,0.0419769287109375
1751013518398560500,8.454560546875,-0.9906768798828125,-0.2317047119140625,0.0437469482421875
1751013518408503600,8.464503662109376,-0.990753173828125,-0.2310333251953125,0.0455169677734375
1751013518418446600,8.474446533203125,-0.990570068359375,-0.22882080078125,0.044921875
1751013518428390400,8.484390380859375,-0.9892425537109375,-0.2283172607421875,0.0451812744140625
1751013518438333400,8.49433349609375,-0.988311767578125,-0.229339599609375,0.04864501953125
1751013518448276500,8.5042763671875,-0.988677978515625,-0.229095458984375,0.0496826171875
1751013518458220500,8.514220458984376,-0.9894561767578125,-0.22857666015625,0.05084228515625
1751013518468163600,8.52416357421875,-0.99017333984375,-0.2283477783203125,0.0513763427734375
1751013518478106600,8.534106689453125,-0.9940643310546875,-0.2257080078125,0.049713134765625
1751013518488050400,8.544050537109374,-0.99755859375,-0.223724365234375,0.0491790771484375
1751013518497993500,8.553993408203125,-0.9966278076171875,-0.2235565185546875,0.0501556396484375
1751013518507937500,8.5639375,-0.9945220947265625,-0.22430419921875,0.048126220703125
1751013518517880300,8.57388037109375,-0.9915008544921875,-0.226898193359375,0.0452117919921875
1751013518527823400,8.5838232421875,-0.988983154296875,-0.2278289794921875,0.0420379638671875
1751013518537767400,8.593767333984376,-0.9873809814453125,-0.2279205322265625,0.0430450439453125
1751013518547710500,8.60371044921875,-0.989837646484375,-0.22930908203125,0.04638671875
1751013518557653500,8.613653564453125,-0.9879150390625,-0.232330322265625,0.0484161376953125
1751013518567597300,8.623597412109374,-0.981903076171875,-0.2306060791015625,0.049102783203125
1751013518577540400,8.633540283203125,-0.9788360595703125,-0.229827880859375,0.0508575439453125
1751013518587483400,8.6434833984375,-0.9787139892578125,-0.2298431396484375,0.052001953125
1751013518597427500,8.653427490234375,-0.97747802734375,-0.2277374267578125,0.0525360107421875
1751013518607370500,8.66337060546875,-0.9766693115234375,-0.2266387939453125,0.0510101318359375
1751013518617314300,8.673314208984374,-0.9767913818359375,-0.228851318359375,0.04833984375
1751013518627257300,8.68325732421875,-0.979461669921875,-0.2289581298828125,0.0475006103515625
1751013518637200400,8.693200439453125,-0.978485107421875,-0.2295684814453125,0.047515869140625
1751013518647144200,8.703144287109374,-0.976531982421875,-0.227783203125,0.049468994140625
1751013518657087200,8.713087158203125,-0.976959228515625,-0.2275390625,0.0509185791015625
1751013518667030300,8.7230302734375,-0.976104736328125,-0.2253875732421875,0.0519866943359375
1751013518676974600,8.732974609375,-0.976776123046875,-0.224334716796875,0.0527496337890625
1751013518686917600,8.742917724609375,-0.9766693115234375,-0.222686767578125,0.05047607421875
1751013518696860400,8.7528603515625,-0.9733734130859375,-0.22015380859375,0.0473480224609375
1751013518706804500,8.762804443359375,-0.97119140625,-0.221405029296875,0.0443878173828125
1751013518716747500,8.77274755859375,-0.9746246337890625,-0.2227630615234375,0.0430908203125
1751013518726691600,8.782691650390625,-0.9772491455078125,-0.2254638671875,0.0446929931640625
1751013518736634400,8.79263427734375,-0.9802398681640625,-0.2293853759765625,0.0471343994140625
1751013518746577400,8.802577392578126,-0.9822235107421875,-0.2294921875,0.04998779296875
1751013518756521500,8.812521484375,-0.9848785400390625,-0.2279510498046875,0.0506439208984375
1751013518766464500,8.822464599609376,-0.9839935302734375,-0.22796630859375,0.050140380859375
1751013518776407600,8.832407470703124,-0.9827423095703125,-0.22882080078125,0.048736572265625
1751013518786351400,8.842351318359375,-0.9829559326171875,-0.2282562255859375,0.0471038818359375
1751013518796294400,8.85229443359375,-0.9851837158203125,-0.22760009765625,0.0488739013671875
1751013518806237400,8.862237548828125,-0.9866485595703125,-0.2275848388671875,0.0511016845703125
1751013518816181500,8.872181396484375,-0.98895263671875,-0.2263336181640625,0.0521697998046875
1751013518826124500,8.88212451171875,-0.9942626953125,-0.224151611328125,0.0525360107421875
1751013518836068400,8.892068359375,-0.997802734375,-0.2244110107421875,0.05096435546875
1751013518846011400,8.902011474609376,-0.99774169921875,-0.2225341796875,0.0521697998046875
1751013518855954400,8.911954345703125,-1.0066375732421875,-0.2200164794921875,0.0502166748046875
1751013518865898500,8.9218984375,-1.013092041015625,-0.2227020263671875,0.045166015625
1751013518875841300,8.93184130859375,-1.0060272216796875,-0.22100830078125,0.039703369140625
1751013518885784300,8.941784423828125,-1.0061798095703125,-0.218658447265625,0.042205810546875
1751013518895728400,8.951728271484376,-1.0103912353515625,-0.2187042236328125,0.04351806640625
1751013518905671400,8.96167138671875,-1.0099639892578125,-0.218841552734375,0.04364013671875
1751013518915614500,8.971614501953125,-1.0059814453125,-0.2174530029296875,0.04473876953125
1751013518925558300,8.981558349609376,-1.00091552734375,-0.2162017822265625,0.0478973388671875
1751013518935501300,8.991501220703125,-0.9974365234375,-0.2201385498046875,0.0499267578125
1751013518945445600,9.001445556640626,-0.99237060546875,-0.2227783203125,0.0489959716796875
1751013518955388700,9.011388671875,-0.9877166748046875,-0.2225494384765625,0.0479583740234375
1751013518965331200,9.021331298828125,-0.9859161376953125,-0.2224578857421875,0.0461883544921875
1751013518975275500,9.031275634765626,-0.9871368408203125,-0.2238311767578125,0.0458526611328125
1751013518985218600,9.041218505859375,-0.984466552734375,-0.224395751953125,0.046966552734375
1751013518995161600,9.05116162109375,-0.983551025390625,-0.224029541015625,0.047454833984375
1751013519005105400,9.06110546875,-0.98773193359375,-0.224639892578125,0.0449981689453125
1751013519015048400,9.07104833984375,-0.9874420166015625,-0.2283477783203125,0.04144287109375
1751013519024991500,9.080991455078125,-0.9871978759765625,-0.23150634765625,0.04302978515625
1751013519034935600,9.090935546875,-0.989715576171875,-0.2300567626953125,0.0448150634765625
1751013519044878600,9.100878662109375,-0.9896087646484375,-0.2290802001953125,0.046722412109375
1751013519054822400,9.110822509765624,-0.98675537109375,-0.2310028076171875,0.0456695556640625
1751013519064765400,9.120765380859375,-0.98394775390625,-0.2313079833984375,0.047607421875
1751013519074708500,9.13070849609375,-0.9848175048828125,-0.2284088134765625,0.0471649169921875
1751013519084652500,9.140652587890624,-0.9872894287109375,-0.226409912109375,0.0460205078125
1751013519094595300,9.15059521484375,-0.9881439208984375,-0.2272186279296875,0.0456695556640625
1751013519104538400,9.160538330078126,-0.9879608154296875,-0.22650146484375,0.0440673828125
1751013519114482400,9.170482421875,-0.9836883544921875,-0.2249908447265625,0.044158935546875
1751013519124425500,9.180425537109375,-0.9797821044921875,-0.2224884033203125,0.0443572998046875
1751013519134368500,9.190368408203126,-0.98193359375,-0.2226409912109375,0.0446929931640625
1751013519144312300,9.200312255859375,-0.985382080078125,-0.2218017578125,0.04766845703125
1751013519154255400,9.21025537109375,-0.9830169677734375,-0.2206573486328125,0.0489654541015625
1751013519164199400,9.220199462890625,-0.9772491455078125,-0.219970703125,0.0476837158203125
1751013519174142500,9.230142578125,-0.9747161865234375,-0.2237701416015625,0.045623779296875
1751013519184085200,9.240085205078126,-0.973876953125,-0.2271728515625,0.0439605712890625
1751013519194029300,9.250029296875,-0.976593017578125,-0.2306060791015625,0.04443359375
1751013519203972400,9.259972412109375,-0.977020263671875,-0.2354736328125,0.0438690185546875
1751013519213915400,9.269915283203124,-0.973175048828125,-0.23870849609375,0.042510986328125
1751013519223859200,9.279859130859375,-0.9696197509765625,-0.2389678955078125,0.0397491455078125
1751013519233802200,9.28980224609375,-0.9698333740234375,-0.2379302978515625,0.038604736328125
1751013519243745300,9.299745361328124,-0.96807861328125,-0.23529052734375,0.035888671875
1751013519253689600,9.309689697265625,-0.968170166015625,-0.2336883544921875,0.0327301025390625
1751013519263632600,9.319632568359374,-0.9673004150390625,-0.233734130859375,0.031463623046875
1751013519273576400,9.329576416015625,-0.9641571044921875,-0.2330322265625,0.0303955078125
1751013519283519500,9.33951953125,-0.96295166015625,-0.2335357666015625,0.0341033935546875
1751013519293462500,9.349462646484374,-0.9654998779296875,-0.2311553955078125,0.0334014892578125
1751013519303406600,9.359406494140625,-0.97418212890625,-0.228271484375,0.0330963134765625
1751013519313349400,9.369349365234376,-0.983856201171875,-0.2282562255859375,0.033203125
1751013519323292400,9.37929248046875,-0.9898529052734375,-0.2292938232421875,0.032470703125
1751013519333236500,9.389236572265625,-0.9910736083984375,-0.2286834716796875,0.0308837890625
1751013519343179500,9.399179443359374,-0.9974822998046875,-0.2269744873046875,0.029296875
1751013519353122600,9.40912255859375,-1.0019378662109375,-0.2246246337890625,0.0281982421875
1751013519363066400,9.41906640625,-0.9968414306640625,-0.221282958984375,0.029083251953125
1751013519373009400,9.429009521484375,-0.99114990234375,-0.2160491943359375,0.0304107666015625
1751013519382953500,9.438953369140625,-0.9907989501953125,-0.212066650390625,0.0310821533203125
1751013519392896500,9.448896484375,-0.9932708740234375,-0.2155914306640625,0.0340728759765625
1751013519402839300,9.45883935546875,-0.9949798583984375,-0.220611572265625,0.034515380859375
1751013519412783400,9.468783447265626,-1.000579833984375,-0.2233734130859375,0.0348052978515625
1751013519422726400,9.478726318359374,-1.0093994140625,-0.2241668701171875,0.0390167236328125
1751013519432670000,9.488669921875,-1.0175933837890625,-0.2251129150390625,0.0389862060546875
1751013519442613800,9.49861376953125,-1.0167083740234375,-0.225250244140625,0.038787841796875
1751013519452556800,9.508556884765625,-1.011505126953125,-0.22491455078125,0.036163330078125
1751013519462499800,9.518499755859375,-1.0073699951171875,-0.2236785888671875,0.037811279296875
1751013519472444000,9.52844384765625,-0.9976806640625,-0.21990966796875,0.0401763916015625
1751013519482387000,9.538386962890625,-0.9971923828125,-0.214569091796875,0.037994384765625
1751013519492331000,9.5483310546875,-0.9929962158203125,-0.219024658203125,0.0439605712890625
1751013519502274000,9.558274169921875,-0.985015869140625,-0.2211151123046875,0.0527496337890625
1751013519512217000,9.568217041015625,-0.9808807373046875,-0.2216644287109375,0.0559539794921875
1751013519522161000,9.578160888671874,-0.9812469482421875,-0.2242279052734375,0.052398681640625
1751013519532104000,9.58810400390625,-0.983551025390625,-0.2274017333984375,0.0477447509765625
1751013519542047000,9.598046875,-0.9863739013671875,-0.2256927490234375,0.0487213134765625
1751013519551991000,9.607990966796875,-0.9915008544921875,-0.2227783203125,0.0487213134765625
1751013519561934000,9.61793408203125,-0.9943389892578125,-0.2223052978515625,0.0489501953125
1751013519571877000,9.627877197265626,-0.99090576171875,-0.22216796875,0.0472412109375
1751013519581821000,9.637821044921875,-0.989410400390625,-0.2177581787109375,0.0442352294921875
1751013519591764000,9.647763916015625,-0.9890289306640625,-0.21466064453125,0.0441741943359375
1751013519601708000,9.6577080078125,-0.985687255859375,-0.2150421142578125,0.0466766357421875
1751013519611650800,9.66765087890625,-0.984130859375,-0.2142333984375,0.04937744140625
1751013519621593900,9.67759375,-0.9832763671875,-0.2138519287109375,0.047454833984375
1751013519631538000,9.687537841796875,-0.9844970703125,-0.2144622802734375,0.0465545654296875
1751013519641481000,9.69748095703125,-0.9875946044921875,-0.2153167724609375,0.0470428466796875
1751013519651424000,9.707424072265624,-0.987518310546875,-0.2167816162109375,0.0461273193359375
1751013519661367800,9.717367919921875,-0.9869842529296875,-0.216796875,0.0437774658203125
1751013519671310800,9.727310791015626,-0.98736572265625,-0.2189483642578125,0.0435638427734375
1751013519681254000,9.73725390625,-0.984130859375,-0.2219085693359375,0.0432586669921875
1751013519691198000,9.747197998046875,-0.9811553955078125,-0.219940185546875,0.0439453125
1751013519701141000,9.75714111328125,-0.9837799072265625,-0.218780517578125,0.0452728271484375
1751013519711084800,9.767084716796875,-0.9845733642578125,-0.218505859375,0.0465087890625
1751013519721027800,9.77702783203125,-0.985076904296875,-0.215667724609375,0.0451507568359375
1751013519730971000,9.786970947265624,-0.9878082275390625,-0.214202880859375,0.044219970703125
1751013519740915000,9.7969150390625,-0.9918365478515625,-0.2136383056640625,0.045196533203125
1751013519750857700,9.806857666015626,-0.988983154296875,-0.212158203125,0.0448760986328125
1751013519760800800,9.81680078125,-0.9873809814453125,-0.2115325927734375,0.0423126220703125
1751013519770745000,9.8267451171875,-0.991546630859375,-0.2115020751953125,0.038299560546875
1751013519780688000,9.83668798828125,-0.991455078125,-0.213714599609375,0.0386505126953125
1751013519790631000,9.846630859375,-0.99444580078125,-0.2157440185546875,0.04071044921875
1751013519800575000,9.856574951171876,-0.9950408935546875,-0.21728515625,0.04498291015625
1751013519810518000,9.86651806640625,-0.9926910400390625,-0.2187957763671875,0.0457916259765625
1751013519820462000,9.876462158203125,-0.99005126953125,-0.2202606201171875,0.0434722900390625
1751013519830405000,9.886405029296874,-0.9905853271484375,-0.2215423583984375,0.04193115234375
1751013519840348000,9.896347900390625,-0.9884490966796875,-0.22332763671875,0.041046142578125
1751013519850292000,9.9062919921875,-0.984375,-0.2220611572265625,0.041412353515625
1751013519860235000,9.916235107421874,-0.978790283203125,-0.2214813232421875,0.043548583984375
1751013519870178000,9.926177978515625,-0.9794769287109375,-0.2211151123046875,0.042724609375
1751013519880121900,9.936121826171876,-0.9852294921875,-0.2232818603515625,0.0445556640625
1751013519890065000,9.94606494140625,-0.9906768798828125,-0.224822998046875,0.04656982421875
1751013519900008000,9.956008056640625,-0.9965667724609375,-0.2227783203125,0.04449462890625
1751013519909952000,9.965951904296874,-0.9988861083984375,-0.2197418212890625,0.0415802001953125
1751013519919895000,9.97589501953125,-0.999755859375,-0.21881103515625,0.039764404296875
1751013519929838800,9.9858388671875,-0.99993896484375,-0.2169647216796875,0.036956787109375
1751013519939782000,9.995781982421875,-0.9999542236328125,-0.216461181640625,0.03826904296875
1751013519949725000,10.005724853515625,-0.9988250732421875,-0.2158966064453125,0.0393218994140625
1751013519959669000,10.0156689453125,-0.9957275390625,-0.2158203125,0.0424041748046875
1751013519969611800,10.02561181640625,-0.991485595703125,-0.2159423828125,0.0468902587890625
1751013519979554800,10.035554931640625,-0.993011474609375,-0.217376708984375,0.049530029296875
1751013519989499000,10.045498779296874,-0.992828369140625,-0.21923828125,0.049957275390625
1751013519999442000,10.05544189453125,-0.9923095703125,-0.22222900390625,0.0508575439453125
1751013520009385000,10.065385009765626,-0.9900054931640625,-0.2199859619140625,0.0507354736328125
1751013520019328800,10.075328857421875,-0.9889068603515625,-0.2178955078125,0.05126953125
1751013520029271800,10.085271728515625,-0.9868316650390625,-0.216339111328125,0.0512847900390625
1751013520039216000,10.095216064453124,-0.98675537109375,-0.2164306640625,0.04852294921875
1751013520049159000,10.105158935546875,-0.9885406494140625,-0.2123870849609375,0.0442962646484375
1751013520059101700,10.115101806640626,-0.990325927734375,-0.210296630859375,0.042449951171875
1751013520069046000,10.1250458984375,-0.9904632568359375,-0.212066650390625,0.04376220703125
1751013520078989000,10.134989013671875,-0.9882659912109375,-0.2135162353515625,0.0454864501953125
1751013520088932000,10.14493212890625,-0.9892578125,-0.214752197265625,0.0459136962890625
1751013520098876000,10.1548759765625,-0.986572265625,-0.2169952392578125,0.047332763671875
1751013520108819000,10.16481884765625,-0.9838409423828125,-0.2165985107421875,0.0470123291015625
1751013520118762000,10.174761962890624,-0.9862213134765625,-0.216033935546875,0.043853759765625
1751013520128706000,10.1847060546875,-0.986358642578125,-0.2176361083984375,0.0423126220703125
1751013520138649000,10.194649169921876,-0.9855194091796875,-0.218505859375,0.042724609375
1751013520148593000,10.204593017578125,-0.984375,-0.2177581787109375,0.0439300537109375
1751013520158536000,10.214535888671875,-0.9851531982421875,-0.21673583984375,0.0472259521484375
1751013520168479000,10.22447900390625,-0.9856109619140625,-0.2153778076171875,0.0476531982421875
1751013520178423000,10.234423095703125,-0.984893798828125,-0.21490478515625,0.04681396484375
1751013520188365800,10.24436572265625,-0.9858245849609375,-0.213226318359375,0.045654296875
1751013520198308900,10.254308837890624,-0.984039306640625,-0.2135162353515625,0.0502777099609375
1751013520208253000,10.2642529296875,-0.983642578125,-0.213531494140625,0.053497314453125
1751013520218196000,10.274196044921876,-0.9862213134765625,-0.212982177734375,0.053131103515625
1751013520228139000,10.284138916015625,-0.9856719970703125,-0.2145843505859375,0.050811767578125
1751013520238082800,10.294082763671875,-0.9891357421875,-0.21533203125,0.04949951171875
1751013520248025900,10.30402587890625,-0.996856689453125,-0.214752197265625,0.0489501953125
1751013520257970000,10.313969970703125,-0.999542236328125,-0.2162322998046875,0.04949951171875
1751013520267913000,10.323912841796876,-0.9998016357421875,-0.2169342041015625,0.0509185791015625
1751013520277856000,10.33385595703125,-1.0015411376953125,-0.2169647216796875,0.04962158203125
1751013520287799800,10.3437998046875,-1.0006561279296875,-0.2170867919921875,0.0491180419921875
1751013520297742800,10.353742919921874,-0.997222900390625,-0.2147369384765625,0.0484619140625
1751013520307686000,10.363685791015625,-0.99298095703125,-0.2137298583984375,0.04913330078125
1751013520317629700,10.373629638671876,-0.9880523681640625,-0.2135772705078125,0.051513671875
1751013520327572700,10.38357275390625,-0.9888458251953125,-0.21343994140625,0.052398681640625
1751013520337515800,10.393515869140625,-0.9901885986328125,-0.216064453125,0.0524139404296875
1751013520347460000,10.403460205078124,-0.991180419921875,-0.218902587890625,0.0522308349609375
1751013520357403100,10.413403076171875,-0.990966796875,-0.2175445556640625,0.0515899658203125
1751013520367347000,10.423346923828126,-0.984710693359375,-0.2168121337890625,0.048614501953125
1751013520377290000,10.4332900390625,-0.9806365966796875,-0.214141845703125,0.048492431640625
1751013520387233000,10.44323291015625,-0.9835205078125,-0.2134857177734375,0.046844482421875
1751013520397177000,10.453177001953126,-0.9853363037109375,-0.214019775390625,0.046539306640625
1751013520407120000,10.463119873046875,-0.98492431640625,-0.2144622802734375,0.0422821044921875
1751013520417063000,10.47306298828125,-0.9870147705078125,-0.216064453125,0.0415191650390625
1751013520427007500,10.483007568359374,-0.9879302978515625,-0.218414306640625,0.0459747314453125
1751013520436950500,10.492950439453125,-0.988494873046875,-0.2188873291015625,0.051025390625
1751013520446893600,10.5028935546875,-0.9882659912109375,-0.2170867919921875,0.0496673583984375
1751013520456837600,10.512837646484375,-0.98675537109375,-0.2165679931640625,0.045623779296875
1751013520466780700,10.52278076171875,-0.9874267578125,-0.2166900634765625,0.0429229736328125
1751013520476724700,10.532724853515624,-0.990447998046875,-0.2162322998046875,0.040252685546875
1751013520486667500,10.54266748046875,-0.991607666015625,-0.21600341796875,0.0383453369140625
1751013520496610600,10.552610595703126,-0.992034912109375,-0.2198944091796875,0.0435943603515625
1751013520506554600,10.5625546875,-0.98944091796875,-0.2184906005859375,0.045806884765625
1751013520516497700,10.57249755859375,-0.9962158203125,-0.2158660888671875,0.049285888671875
1751013520526440700,10.582440673828126,-1.0205841064453125,-0.20880126953125,0.073455810546875
1751013520536384500,10.592384521484375,-0.9987335205078125,-0.2032318115234375,0.0682220458984375
1751013520546327600,10.60232763671875,-0.931671142578125,-0.2048187255859375,0.0548858642578125
1751013520556270600,10.6122705078125,-0.94464111328125,-0.2133331298828125,0.05908203125
1751013520566214700,10.622214599609375,-1.0031280517578125,-0.207000732421875,0.086151123046875
1751013520576157700,10.63215771484375,-1.01129150390625,-0.21240234375,0.05877685546875
1751013520586101500,10.6421015625,-0.9976654052734375,-0.2173309326171875,0.0586395263671875
1751013520596044500,10.65204443359375,-0.996551513671875,-0.212921142578125,0.0631103515625
1751013520605987600,10.661987548828124,-1.0128021240234375,-0.2145843505859375,0.0591278076171875
1751013520615931400,10.671931396484375,-1.0351715087890625,-0.2196502685546875,0.0531463623046875
1751013520625874400,10.68187451171875,-1.0333709716796875,-0.2200164794921875,0.061737060546875
1751013520635817500,10.6918173828125,-1.014190673828125,-0.2075653076171875,0.063385009765625
