time,seconds_elapsed,z,y,x
1751013510066026200,0.122026123046875,0.012752813287079334,-0.1177721694111824,0.22244878113269806
1751013510075970000,0.131969970703125,0.005703425966203213,-0.1359700858592987,0.191016286611557
1751013510085913000,0.1419130859375,-0.010824418626725674,-0.1611582636833191,0.13565397262573242
1751013510095856000,0.151856201171875,-0.030947262421250343,-0.18327714502811432,0.0825878232717514
1751013510105800200,0.16180029296875,-0.041906170547008514,-0.17387671768665314,0.04742930084466934
1751013510115743200,0.1717431640625,-0.04710066691040993,-0.15386013686656952,0.03712553158402443
1751013510125686300,0.181686279296875,-0.0426768884062767,-0.16146452724933624,0.029651636257767677
1751013510135630000,0.191630126953125,-0.036068789660930634,-0.1650075912475586,0.03165885806083679
1751013510145573000,0.201572998046875,-0.026585005223751068,-0.1487780213356018,0.029199430719017982
1751013510155516200,0.21151611328125,-0.020918598398566246,-0.13079023361206055,0.02063763327896595
1751013510165460200,0.221460205078125,-0.019639747217297554,-0.11041279137134552,0.0015699334908276796
1751013510175403000,0.231403076171875,-0.019242137670516968,-0.08165784180164337,-0.01471769344061613
1751013510185346000,0.241345947265625,-0.017414942383766174,-0.0457933209836483,-0.03245141729712486
1751013510195290000,0.2512900390625,-0.013253221288323402,-0.01618003472685814,-0.05198676884174347
1751013510205233200,0.261233154296875,-0.003933755215257406,0.0041284323669970036,-0.05762361362576485
1751013510215177000,0.271177001953125,0.011411911807954311,0.019829630851745605,-0.06142128258943558
1751013510225120000,0.2811201171875,0.023556990548968315,0.017049023881554604,-0.07840399444103241
1751013510235063000,0.29106298828125,0.030822893604636192,0.00039867521263659,-0.10104326158761978
1751013510245007400,0.30100732421875,0.025645175948739052,-0.03777986764907837,-0.11604191362857819
1751013510254950400,0.310950439453125,0.0043987431563436985,-0.06502347439527512,-0.12562477588653564
1751013510264893200,0.32089306640625,-0.014344850555062294,0.01715981215238571,-0.12113840878009796
1751013510274837200,0.330837158203125,0.00839668046683073,0.15120096504688263,-0.13526807725429535
1751013510284780300,0.3407802734375,0.024655012413859367,0.19913120567798615,-0.15169206261634827
1751013510294723300,0.350723388671875,0.0277357567101717,0.1962110549211502,-0.15838351845741272
1751013510304667100,0.360667236328125,0.01642078533768654,0.17592522501945496,-0.15489903092384338
1751013510314610200,0.370610107421875,-0.0014375743921846151,0.14803633093833923,-0.12738512456417084
1751013510324553200,0.38055322265625,-0.03160559758543968,0.13129650056362152,-0.07575175166130066
1751013510334497300,0.390497314453125,-0.054664842784404755,0.11927046626806259,-0.008803611621260643
1751013510344440300,0.4004404296875,-0.06790953874588013,0.10741087794303894,0.06195924058556557
1751013510354383000,0.410383056640625,-0.07107444107532501,0.0898372083902359,0.11404880881309509
1751013510364327200,0.4203271484375,-0.06888186186552048,0.062651127576828,0.13838210701942444
1751013510374270200,0.430270263671875,-0.05980314686894417,0.037032585591077805,0.13303980231285095
1751013510384213200,0.440213134765625,-0.04386119917035103,0.020988373085856438,0.11246529221534729
1751013510394157000,0.450156982421875,-0.021560419350862503,0.020593691617250443,0.08247623592615128
1751013510404100000,0.46010009765625,-0.0005299690528772771,0.01594407856464386,0.045466285198926926
1751013510414043000,0.47004296875,0.030942736193537712,-0.001868207473307848,0.013704360462725163
1751013510423987000,0.479987060546875,0.046842873096466064,-0.006091182120144367,0.0041430797427892685
1751013510433930000,0.489929931640625,0.0316639207303524,0.024207334965467453,0.016952086240053177
1751013510443873000,0.499873046875,0.005044293589890003,0.053280264139175415,0.04120149835944176
1751013510453816800,0.50981689453125,-0.02552054077386856,0.06302530318498611,0.07444920390844345
1751013510463760000,0.519759765625,-0.05132310837507248,0.047744885087013245,0.10746520757675171
1751013510473703000,0.529702880859375,-0.07977685332298279,0.004437359049916267,0.1292131096124649
1751013510483647000,0.53964697265625,-0.10635945945978165,-0.05772694572806358,0.14185567200183868
1751013510493589800,0.54958984375,-0.13352636992931366,-0.10363425314426422,0.15401379764080048
1751013510503533800,0.559533935546875,-0.15697389841079712,-0.1179727092385292,0.16886119544506073
1751013510513476900,0.569476806640625,-0.16654716432094574,-0.10735628008842468,0.1923673152923584
1751013510523420000,0.579419921875,-0.16821324825286865,-0.07560394704341888,0.21940718591213226
1751013510533363700,0.58936376953125,-0.1639186292886734,-0.040290165692567825,0.2329312562942505
1751013510543306800,0.599306640625,-0.15047818422317505,-0.010884072631597519,0.222452774643898
1751013510553249800,0.609249755859375,-0.12809965014457703,0.012105132453143597,0.20208492875099182
1751013510563194000,0.619194091796875,-0.11112012714147568,0.03404025733470917,0.16949741542339325
1751013510573137200,0.62913720703125,-0.10201770812273026,0.045155495405197144,0.1357266753911972
1751013510583080000,0.639079833984375,-0.10410243272781372,0.036430977284908295,0.09890527278184891
1751013510593024000,0.64902392578125,-0.10817653685808182,0.001580053474754095,0.06816573441028595
1751013510602967000,0.658967041015625,-0.10691899061203003,-0.03563283011317253,0.049186453223228455
1751013510612910000,0.66891015625,-0.09493982791900635,-0.04671850427985191,0.045581597834825516
1751013510622854000,0.67885400390625,-0.07506652176380157,-0.042270757257938385,0.04398423433303833
1751013510632797000,0.688796875,-0.05632052943110466,-0.042211636900901794,0.04790973663330078
1751013510642740000,0.698739990234375,-0.0401812419295311,-0.05242352560162544,0.04791053384542465
1751013510652684000,0.70868408203125,-0.032159268856048584,-0.07193411141633987,0.04074103757739067
1751013510662627000,0.718626953125,-0.0321909599006176,-0.08801427483558655,0.022177474573254585
1751013510672570000,0.728570068359375,-0.042507246136665344,-0.10411308705806732,0.0041340249590575695
1751013510682514000,0.738513916015625,-0.05145040899515152,-0.11806059628725052,-0.01438106968998909
1751013510692457000,0.74845703125,-0.06174725294113159,-0.12103641033172607,-0.025606293231248856
1751013510702400000,0.75839990234375,-0.06157867610454559,-0.1098782941699028,-0.027600469067692757
1751013510712343800,0.76834375,-0.03935353085398674,-0.09349027276039124,-0.028424717485904694
1751013510722286800,0.778286865234375,-0.006455236114561558,-0.07738080620765686,-0.020590495318174362
1751013510732230000,0.78822998046875,0.023094933480024338,-0.062197595834732056,-0.017972875386476517
1751013510742174000,0.798174072265625,0.05276041477918625,-0.054665375500917435,-0.014825818128883839
1751013510752117000,0.808116943359375,0.06593214720487595,-0.061096642166376114,-0.020177971571683884
1751013510762060000,0.81806005859375,0.06902726739645004,-0.06732231378555298,-0.029095567762851715
1751013510772003800,0.82800390625,0.06555983424186707,-0.0744587853550911,-0.023664049804210663
1751013510781947000,0.83794677734375,0.06301731616258621,-0.08666565269231796,-0.004796885885298252
1751013510791890000,0.847889892578125,0.05341741815209389,-0.09379307180643082,0.03250974044203758
1751013510801834000,0.857833984375,0.04163213074207306,-0.09931007772684097,0.07498183101415634
1751013510811776800,0.86777685546875,0.03001941740512848,-0.09881499409675598,0.12379943579435349
1751013510821720800,0.877720947265625,0.0158332921564579,-0.08896555751562119,0.16824813187122345
1751013510831663900,0.887663818359375,0.012463327497243881,-0.09107664972543716,0.19571571052074432
1751013510841607000,0.89760693359375,0.010549313388764858,-0.10638849437236786,0.20773428678512573
1751013510851550700,0.90755078125,0.005920207127928734,-0.11709599941968918,0.20543651282787323
1751013510861493800,0.91749365234375,-0.004536428488790989,-0.1130320131778717,0.1906953752040863
1751013510871436800,0.927436767578125,-0.01811295747756958,-0.1069733202457428,0.17795082926750183
1751013510881381000,0.937381103515625,-0.02004028670489788,-0.0902385488152504,0.15567295253276825
1751013510891324200,0.94732421875,-0.018310297280550003,-0.07347048819065094,0.14418087899684906
1751013510901266700,0.9572666015625,-0.026910975575447083,-0.059834036976099014,0.1389339119195938
1751013510911211000,0.9672109375,-0.03676547110080719,-0.029405558481812477,0.14258190989494324
1751013510921154000,0.977154052734375,-0.04670705273747444,0.017491109669208527,0.14808960258960724
1751013510931097000,0.98709716796875,-0.061109960079193115,0.06351159512996674,0.14456064999103546
1751013510941041000,0.997041015625,-0.0731370598077774,0.09608925133943558,0.12462155520915985
1751013510950984000,1.00698388671875,-0.07591234147548676,0.12111630290746689,0.10246805101633072
1751013510960927000,1.016927001953125,-0.07856485247612,0.14597265422344208,0.07481911033391953
1751013510970871000,1.02687109375,-0.084757499396801,0.1457872986793518,0.04850361868739128
1751013510980814000,1.03681396484375,-0.10202277451753616,0.10896190255880356,0.027527764439582825
1751013510990756900,1.0467568359375,-0.11523790657520294,0.05804945528507233,0.0111059146001935
1751013511000701000,1.056700927734375,-0.12727433443069458,0.00863077212125063,0.008190818130970001
1751013511010644000,1.06664404296875,-0.13082006573677063,-0.029400499537587166,0.01683783531188965
1751013511020587000,1.0765869140625,-0.12911111116409302,-0.04969005659222603,0.034152112901210785
1751013511030530800,1.08653076171875,-0.127469003200531,-0.056174855679273605,0.0423024483025074
1751013511040473900,1.096473876953125,-0.13246136903762817,-0.06011180579662323,0.038491733372211456
1751013511050417000,1.1064169921875,-0.14432574808597565,-0.06713562458753586,0.015935556963086128
1751013511060361000,1.11636083984375,-0.15793024003505707,-0.0616934560239315,-0.007188937161117792
1751013511070304000,1.126303955078125,-0.16167998313903809,-0.06007452309131622,-0.03910985216498375
1751013511080247000,1.1362470703125,-0.15662848949432373,-0.05619216710329056,-0.057311758399009705
1751013511090190800,1.14619091796875,-0.14143382012844086,-0.053213685750961304,-0.06714281439781189
1751013511100134000,1.1561337890625,-0.12444232404232025,-0.05241580307483673,-0.06434330344200134
1751013511110077000,1.166076904296875,-0.1142464131116867,-0.05686035379767418,-0.05251913517713547
1751013511120021000,1.17602099609375,-0.10400496423244476,-0.06602296233177185,-0.03819718584418297
1751013511129963800,1.1859638671875,-0.09796357899904251,-0.07806390523910522,-0.0233527272939682
1751013511139906800,1.19590673828125,-0.09842830151319504,-0.08731839060783386,-0.013671337626874447
1751013511149851000,1.205850830078125,-0.11034062504768372,-0.09044148027896881,-0.011126154102385044
1751013511159794000,1.2157939453125,-0.12302632629871368,-0.07159269601106644,-0.011499529704451561
1751013511169737700,1.22573779296875,-0.12345588952302933,-0.03626985847949982,-0.004765726625919342
1751013511179680800,1.2356806640625,-0.11819881200790405,0.0016021577175706625,-0.003200586885213852
1751013511189623800,1.245623779296875,-0.09992819279432297,0.025479260832071304,-0.008263789117336273
1751013511199568100,1.255568115234375,-0.07575361430644989,0.04467266425490379,-0.010291519574820995
1751013511209511200,1.26551123046875,-0.05456018075346947,0.054005444049835205,-0.01631186157464981
1751013511219453700,1.27545361328125,-0.036731913685798645,0.04984026029706001,-0.02430533990263939
1751013511229398000,1.28539794921875,-0.021395036950707436,0.030358171090483665,-0.03441523015499115
1751013511239341000,1.295341064453125,-0.01061908807605505,0.014768026769161224,-0.03641393408179283
1751013511249284000,1.3052841796875,-0.003953728824853897,0.00863077212125063,-0.036682646721601486
1751013511259228000,1.315227783203125,-0.005906891077756882,0.015497466549277306,-0.03340456262230873
1751013511269171000,1.3251708984375,-0.005197425372898579,0.019193135201931,-0.03333771601319313
1751013511279114000,1.335114013671875,-0.008927715010941029,0.016582438722252846,-0.039914924651384354
1751013511289058000,1.34505810546875,-0.006719954311847687,0.018439726904034615,-0.038429148495197296
1751013511299001000,1.3550009765625,0.00011851066665258259,0.015364841558039188,-0.031067105010151863
1751013511308944000,1.36494384765625,0.007993211969733238,0.00720678037032485,-0.022463230416178703
1751013511318888000,1.374887939453125,0.013026585802435875,0.00678227236494422,-0.004968659486621618
1751013511328831000,1.3848310546875,0.017495103180408478,-0.0032434638123959303,0.008736765943467617
1751013511338774000,1.39477392578125,0.017063139006495476,-0.01792760193347931,0.019349996000528336
1751013511348717800,1.4047177734375,0.016113722696900368,-0.032330241054296494,0.02123631350696087
1751013511358660900,1.414660888671875,0.01601465232670307,-0.04050588235259056,0.01618216559290886
1751013511368604000,1.42460400390625,0.021762020885944366,-0.03406555950641632,0.008129565045237541
1751013511378548000,1.4345478515625,0.026452379301190376,-0.022403309121727943,-0.009023322723805904
1751013511388491000,1.444490966796875,0.03591565787792206,-0.009410812519490719,-0.025416942313313484
1751013511398434800,1.454434814453125,0.043237220495939255,-0.0070794811472296715,-0.045884400606155396
1751013511408377900,1.4643779296875,0.04689347371459007,-0.007199855986982584,-0.05763506516814232
1751013511418321000,1.47432080078125,0.056402821093797684,-0.002941993996500969,-0.060740843415260315
1751013511428265000,1.484264892578125,0.06431160867214203,0.008036887273192406,-0.058221492916345596
1751013511438207700,1.494207763671875,0.0767965093255043,0.0050099384970963,-0.050996869802474976
1751013511448150800,1.50415087890625,0.08617643266916275,-0.004228034522384405,-0.04788443446159363
1751013511458094800,1.5140947265625,0.0921616181731224,-0.018281802535057068,-0.04548359662294388
1751013511468038000,1.524037841796875,0.09079381823539734,-0.041011616587638855,-0.04834090173244476
1751013511477981000,1.53398095703125,0.08371087908744812,-0.06216297298669815,-0.05182724446058273
1751013511487924700,1.5439248046875,0.0707537978887558,-0.07326941937208176,-0.05487469956278801
1751013511497867800,1.55386767578125,0.05678205564618111,-0.07270456105470657,-0.06378164142370224
1751013511507810800,1.563810791015625,0.04764927923679352,-0.06405914574861526,-0.07159855216741562
1751013511517755100,1.573755126953125,0.04520582780241966,-0.04024329409003258,-0.07864953577518463
1751013511527698000,1.583697998046875,0.05732587352395058,-0.020307401195168495,-0.08048339188098907
1751013511537640700,1.593640625,0.06873432546854019,-0.006053365301340818,-0.07828548550605774
1751013511547585000,1.6035849609375,0.07524308562278748,0.007669903803616762,-0.060327522456645966
1751013511557528000,1.613528076171875,0.07939335703849792,0.021154021844267845,-0.03193369880318642
1751013511567471000,1.62347119140625,0.08068206161260605,0.030060697346925735,-0.0046725161373615265
1751013511577415000,1.633414794921875,0.07508596032857895,0.032814137637615204,0.023193735629320145
1751013511587358000,1.64335791015625,0.06927840411663055,0.03604055941104889,0.03942596912384033
1751013511597301000,1.653301025390625,0.05802122503519058,0.02810194157063961,0.04319940134882927
1751013511607245000,1.6632451171875,0.044973332434892654,0.022549783810973167,0.04271497204899788
1751013511617188000,1.67318798828125,0.031629566103219986,0.016323579475283623,0.03013473190367222
1751013511627131000,1.683130859375,0.02599831111729145,0.005390238016843796,0.017401626333594322
1751013511637075000,1.693074951171875,0.025116804987192154,-0.006395581178367138,-0.0021350563038140535
1751013511647018000,1.70301806640625,0.026694994419813156,-0.009357549250125885,-0.018040252849459648
1751013511656961800,1.7129619140625,0.03624535724520683,-0.00899855513125658,-0.034334804862737656
1751013511666904800,1.72290478515625,0.04543086513876915,-0.012863334268331528,-0.04295599088072777
1751013511676847900,1.732847900390625,0.0504210963845253,-0.020680777728557587,-0.04796033352613449
1751013511686792000,1.7427919921875,0.047683365643024445,-0.015047659166157246,-0.05178702995181084
1751013511696735000,1.75273486328125,0.04361698403954506,-0.004779575392603874,-0.055860601365566254
1751013511706678000,1.762677978515625,0.038596928119659424,0.007411044556647539,-0.06270705908536911
1751013511716621800,1.772621826171875,0.03345463052392006,0.020894896239042282,-0.06256138533353806
1751013511726564900,1.78256494140625,0.028114192187786102,0.03206339478492737,-0.05776795744895935
1751013511736508000,1.7925078125,0.02437618002295494,0.04578959196805954,-0.0493832603096962
1751013511746452000,1.802451904296875,0.0222693532705307,0.054913051426410675,-0.03572870418429375
1751013511756394800,1.812394775390625,0.02046159841120243,0.05489600449800491,-0.022839801385998726
1751013511766337800,1.822337890625,0.019398199394345284,0.053701844066381454,0.002775812754407525
1751013511776281900,1.83228173828125,0.019872507080435753,0.06357604265213013,0.0308721624314785
1751013511786225000,1.842224853515625,0.022945528849959373,0.06469696760177612,0.05164375156164169
1751013511796168000,1.85216796875,0.02213699370622635,0.06064523756504059,0.06794549524784088
1751013511806111700,1.86211181640625,0.022910108789801598,0.0535614937543869,0.0689857229590416
1751013511816054800,1.8720546875,0.02478018030524254,0.05300303176045418,0.0643124133348465
1751013511825997800,1.881997802734375,0.014825818128883839,0.05121205374598503,0.05560360848903656
1751013511835942100,1.891942138671875,0.010329869575798512,0.04268008470535278,0.04608919844031334
1751013511845885000,1.901885009765625,0.0036522590089589357,0.025919482111930847,0.03151371702551842
1751013511855829000,1.9118291015625,0.004611796233803034,0.01570226438343525,0.011273160576820374
1751013511865772000,1.92177197265625,0.00487358495593071,0.01011149026453495,-0.008371380157768726
1751013511875715000,1.931715087890625,0.018387796357274055,0.006650179624557495,-0.01870977133512497
1751013511885659000,1.941658935546875,0.0243170578032732,0.009951434098184109,-0.018940135836601257
1751013511895602000,1.951601806640625,0.029321404173970222,0.01782187446951866,-0.011178351938724518
1751013511905545000,1.961544921875,0.038789741694927216,0.014256699942052364,-0.008539958856999874
1751013511915489000,1.971489013671875,0.04409449175000191,-0.005103149451315403,-0.009983391501009464
1751013511925432000,1.98143212890625,0.05038141459226608,-0.024760739877820015,-0.0070251524448394775
1751013511935374800,1.991374755859375,0.050396859645843506,-0.03742513433098793,0.00013022858183830976
1751013511945319000,2.00131884765625,0.05170314013957977,-0.03374597802758217,0.01053440012037754
1751013511955262000,2.011261962890625,0.04848790541291237,-0.025612153112888336,0.020897025242447853
1751013511965205000,2.021205078125,0.04175649955868721,-0.012194348499178886,0.020665064454078674
1751013511975148800,2.031148681640625,0.033315081149339676,-0.0011739213950932026,0.018561966717243195
1751013511985091800,2.041091796875,0.016393886879086494,0.0031795480754226446,0.0009185242815874517
1751013511995035000,2.051034912109375,0.0016847157385200262,0.0010138654615730047,-0.024690965190529823
1751013512004979000,2.06097900390625,-0.007004646118730307,0.0026043052785098553,-0.0352565236389637
1751013512014922000,2.070921875,-0.01016794890165329,0.0017960357945412397,-0.04368569701910019
1751013512024865000,2.080864990234375,-0.010466489009559155,-0.0038418760523200035,-0.045404497534036636
1751013512034808800,2.090808837890625,-0.00749173853546381,-0.0025800704024732113,-0.027946678921580315
1751013512044752000,2.100751953125,-0.003534547286108136,0.01139992754906416,-0.01649029366672039
1751013512054696000,2.110696044921875,-0.005125786177814007,0.01943308673799038,0.0010181264951825142
1751013512064639000,2.120638916015625,-0.008165251463651657,0.014209295623004436,0.014538195915520191
1751013512074581800,2.130581787109375,-0.010541058145463467,0.010865963064134121,0.019462380558252335
1751013512084525800,2.14052587890625,-0.008785235695540905,0.005998237524181604,0.025921078398823738
1751013512094468900,2.15046875,-0.00759906368330121,0.0065015750005841255,0.027635889127850533
1751013512104412000,2.160411865234375,-0.007546333130449057,0.011424162425100803,0.02737995982170105
1751013512114356000,2.17035595703125,-0.007728226948529482,0.019394204020500183,0.02161235176026821
1751013512124298800,2.180298828125,-0.008583367802202702,0.021340709179639816,0.012112855911254883
1751013512134241800,2.19024169921875,-0.005804093088954687,0.02641296572983265,0.0038932752795517445
1751013512144186000,2.20018603515625,-0.003808053908869624,0.03193502873182297,-0.005313538946211338
1751013512154129200,2.210129150390625,-0.005535114090889692,0.033250629901885986,-0.0178128182888031
1751013512164072000,2.220072021484375,-0.005087969359010458,0.036372654139995575,-0.026934411376714706
1751013512174016000,2.23001611328125,-0.017664747312664986,0.038055505603551865,-0.03338538855314255
1751013512183959000,2.239958984375,-0.027425765991210938,0.03935486450791359,-0.03900519013404846
1751013512193902000,2.249902099609375,-0.03495878353714943,0.03822754696011543,-0.04025687649846077
1751013512203846000,2.259845947265625,-0.04073065146803856,0.030529147014021873,-0.04063770920038223
1751013512213789000,2.269788818359375,-0.04674060642719269,0.014485998079180717,-0.030052173882722855
1751013512223733000,2.27973291015625,-0.03912582993507385,0.010821488685905933,-0.01341540738940239
1751013512233676000,2.289676025390625,-0.032153140753507614,0.009928264655172825,0.003721767570823431
1751013512243619000,2.299619140625,-0.02207307703793049,0.016597885638475418,0.008742891252040863
1751013512253563000,2.30956298828125,-0.00848829373717308,0.012223643250763416,0.007645402569323778
1751013512263506000,2.319505859375,0.005376656074076891,0.013583986088633537,-0.0017981663113459945
1751013512273449000,2.329448974609375,0.009580189362168312,0.022307436913251877,-0.01667884550988674
1751013512283393000,2.33939306640625,0.010326939634978771,0.028008731082081795,-0.03627997636795044
1751013512293335800,2.349335693359375,0.010615359991788864,0.02556687965989113,-0.05621906369924545
1751013512303278800,2.35927880859375,0.006521016359329224,0.016154468059539795,-0.0767831951379776
1751013512313223000,2.369222900390625,-0.0006628608098253608,0.003870371961966157,-0.09205029904842377
1751013512323166000,2.379166015625,-0.004965463653206825,-0.0006271744496189058,-0.10144779831171036
1751013512333109000,2.38910888671875,-0.008194546215236187,0.004733768757432699,-0.10105764120817184
1751013512343052800,2.399052734375,-0.014789865352213383,0.020899955183267593,-0.10052740573883057
1751013512352995800,2.408995849609375,-0.018988871946930885,0.009923204779624939,-0.10162383317947388
1751013512362940000,2.41893994140625,-0.015849269926548004,-0.0000428768944402691,-0.09022976458072662
1751013512372883000,2.428883056640625,-0.01136983372271061,0.004618720151484013,-0.06577421724796295
1751013512382825700,2.43882568359375,-0.003783819265663624,0.01950312778353691,-0.03189721331000328
1751013512392769800,2.448769775390625,-0.003718838095664978,0.02863830327987671,0.005593170877546072
1751013512402712800,2.458712890625,-0.006329268682748079,0.02997254580259323,0.02623559907078743
1751013512412655900,2.46865576171875,-0.010584999807178974,0.024506941437721252,0.033723343163728714
1751013512422599700,2.478599609375,-0.01381088700145483,0.010480337776243687,0.024579377844929695
1751013512432542700,2.488542724609375,-0.01092455256730318,0.007285609841346741,0.0111032510176301
1751013512442485800,2.49848583984375,0.0034149715211242437,0.011456918902695179,-0.003938282374292612
1751013512452429800,2.508429931640625,0.012344816699624062,0.03142423555254936,-0.02046426199376583
1751013512462372900,2.518372802734375,0.011110708117485046,0.05261394381523132,-0.04205663874745369
1751013512472316000,2.52831591796875,0.006137787364423275,0.060504622757434845,-0.06657077372074127
1751013512482259700,2.538259765625,-0.010272877290844917,0.04246729984879494,-0.0908832997083664
1751013512492202800,2.54820263671875,-0.027060113847255707,0.00011052118497900665,-0.11232946813106537
1751013512502145800,2.558145751953125,-0.040524255484342575,-0.04970310628414154,-0.13791152834892273
1751013512512089900,2.56808984375,-0.04382684454321861,-0.0910007432103157,-0.13862977921962738
1751013512522032600,2.57803271484375,-0.043179962784051895,-0.10997257381677628,-0.12279196828603745
1751013512531976700,2.587976806640625,-0.02659805491566658,-0.09380345791578293,-0.09258425980806351
1751013512541919700,2.597919677734375,-0.006390787661075592,-0.06798703968524933,-0.05594742298126221
1751013512551862800,2.60786279296875,0.019567308947443962,-0.042159438133239746,-0.03128654882311821
1751013512561806800,2.617806884765625,0.041303232312202454,-0.024754349142313004,-0.01967783086001873
1751013512571749600,2.62774951171875,0.05768460035324097,-0.017122793942689896,-0.025052089244127274
1751013512581692700,2.637692626953125,0.0674794390797615,-0.017890317365527153,-0.033253028988838196
1751013512591637000,2.647636962890625,0.07197379320859909,-0.018371284008026123,-0.04488145560026169
1751013512601580000,2.657580078125,0.06757478415966034,-0.01306200586259365,-0.047636762261390686
1751013512611522800,2.667522705078125,0.05655701830983162,-0.005072522908449173,-0.041297636926174164
1751013512621467000,2.677466796875,0.05373060703277588,0.008649414405226707,-0.027464114129543304
1751013512631410000,2.687409912109375,0.05043894052505493,0.0201561339199543,-0.010273676365613937
1751013512641353700,2.697353759765625,0.051180098205804825,0.03205007687211037,0.013165337033569813
1751013512651296800,2.707296875,0.05764651671051979,0.05210874229669571,0.041795648634433746
1751013512661239800,2.71723974609375,0.06691458821296692,0.0761919692158699,0.06533719599246979
1751013512671184000,2.727183837890625,0.060319531708955765,0.08630798757076263,0.07166433334350586
1751013512681127000,2.737126953125,0.04764341935515404,0.08434470742940903,0.057443585246801376
1751013512691070000,2.747070068359375,0.030713437125086784,0.0754108652472496,0.031675104051828384
1751013512701013800,2.757013671875,0.027750138193368912,0.06857133656740189,-0.000041278995922766626
1751013512710956800,2.766956787109375,0.018726283684372902,0.0690605565905571,-0.031015174463391304
1751013512720899800,2.77689990234375,0.016226107254624367,0.06694947183132172,-0.06877213716506958
1751013512730844000,2.786843994140625,0.016502011567354202,0.06922274827957153,-0.10365182906389236
1751013512740786700,2.79678662109375,0.01872335374355316,0.06217522174119949,-0.11901906132698059
1751013512750729700,2.806729736328125,0.021812621504068375,0.03924300894141197,-0.11626642197370529
1751013512760673800,2.816673828125,0.0222104974091053,0.03526824340224266,-0.08484964072704315
1751013512770616800,2.826616943359375,0.024890968576073647,0.030298251658678055,-0.040099747478961945
1751013512780560600,2.836560546875,0.032874058932065964,0.020131899043917656,-0.005468534771353006
1751013512790503700,2.846503662109375,0.0459778793156147,0.010996458120644093,0.026703782379627228
1751013512800446700,2.85644677734375,0.051965463906526566,0.005268265027552843,0.041318412870168686
1751013512810390800,2.866390869140625,0.04879097640514374,0.0009358347742818296,0.039381761103868484
1751013512820333800,2.876333740234375,0.031194403767585754,-0.013881460763514042,0.030913174152374268
1751013512830276600,2.886276611328125,0.015417305752635002,-0.02847079001367092,0.01625007577240467
1751013512840220700,2.896220703125,0.00814847368746996,-0.034448254853487015,0.003652791725471616
1751013512850163700,2.906163818359375,0.0070619042962789536,-0.02063284069299698,0.008344216272234917
1751013512860106800,2.916106689453125,0.013286776840686798,0.010576478205621243,0.026512300595641136
1751013512870050800,2.92605078125,0.00589730404317379,0.03157736733555794,0.05693225935101509
1751013512879993900,2.935993896484375,0.005907690152525902,0.03773592785000801,0.07963517308235168
1751013512889936600,2.9459365234375,0.001752093667164445,0.04513658583164215,0.08705580234527588
1751013512899881000,2.955880859375,-0.0022234732750803232,0.0479627326130867,0.08475137501955032
1751013512909824000,2.965823974609375,-0.010703510604798794,0.04917340353131294,0.07299724221229553
1751013512919767800,2.975767822265625,-0.011442537419497967,0.05385337769985199,0.055747684091329575
1751013512929710800,2.9857109375,-0.012613795697689056,0.0631941482424736,0.04236982762813568
1751013512939654000,2.99565380859375,-0.005830724723637104,0.06922701001167297,0.027096865698695183
1751013512949598000,3.005597900390625,0.0016764599131420255,0.06707677245140076,0.011769840493798256
1751013512959540700,3.015540771484375,0.00808908510953188,0.07077217102050781,-0.0033518546260893345
1751013512969483800,3.02548388671875,0.011446266435086727,0.07526146620512009,-0.007920240983366966
1751013512979427800,3.035427734375,0.01098367478698492,0.08335081487894058,-0.0049675945192575455
1751013512989371000,3.045370849609375,0.006638461723923683,0.08664115518331528,0.0004324973560869694
1751013512999314000,3.05531396484375,0.009725331328809261,0.08218115568161011,0.0044291033409535885
1751013513009257700,3.0652578125,0.01503993570804596,0.07137484848499298,0.005346562247723341
1751013513019200800,3.07520068359375,0.021165473386645317,0.06377365440130234,0.004012851044535637
1751013513029143800,3.085143798828125,0.020011525601148605,0.0621991902589798,-0.0012309130979701877
1751013513039087900,3.095087890625,0.014359498396515846,0.05806782841682434,-0.010959174484014511
1751013513049030700,3.10503076171875,0.009824933484196663,0.05036090686917305,-0.02725931815803051
1751013513058974700,3.114974609375,0.008613994345068932,0.03548342362046242,-0.050459712743759155
1751013513068917800,3.124917724609375,0.0040948763489723206,0.021642977371811867,-0.07353466749191284
1751013513078860800,3.13486083984375,-0.00031851406674832106,0.014080931432545185,-0.09461545199155807
1751013513088804600,3.1448046875,0.0013675332302227616,0.012920858338475227,-0.1073986291885376
1751013513098747600,3.15474755859375,0.00166633992921561,0.015928100794553757,-0.10956644266843796
1751013513108690700,3.164690673828125,0.006601709872484207,0.017550231888890266,-0.10584254562854767
1751013513118634800,3.174634765625,0.009316003881394863,0.014633270911872387,-0.10238469392061234
1751013513128577800,3.184577880859375,0.01022627204656601,0.00893703568726778,-0.09209264069795609
1751013513138520800,3.194520751953125,0.005167597904801369,-0.0007691209320910275,-0.09032776206731796
1751013513148465000,3.20446484375,0.0011060107499361038,-0.007651527877897024,-0.08961989730596542
1751013513158407700,3.21440771484375,-0.0008950884221121669,-0.017223462462425232,-0.1012621745467186
1751013513168352000,3.22435205078125,-0.007050985470414162,-0.012624981813132763,-0.11589197814464569
1751013513178294800,3.234294677734375,-0.009274192154407501,-0.01690601371228695,-0.1352773904800415
1751013513188237800,3.24423779296875,-0.010060889646410942,-0.04244599491357803,-0.16119980812072754
1751013513198182000,3.254181884765625,-0.016032762825489044,-0.07847057282924652,-0.1715368628501892
1751013513208125000,3.264125,-0.017859159037470818,-0.08429330587387085,-0.15729667246341705
1751013513218068000,3.27406787109375,-0.02466326765716076,-0.055033423006534576,-0.12284176796674728
1751013513228011800,3.28401171875,-0.03179255127906799,-0.022792397066950798,-0.08777832239866257
1751013513237954800,3.293954833984375,-0.03767520561814308,0.003179814200848341,-0.05781935900449753
1751013513247897900,3.30389794921875,-0.03310602158308029,0.011140269227325916,-0.044137366116046906
1751013513257842000,3.313842041015625,-0.028256138786673546,0.02160302922129631,-0.036853622645139694
1751013513267785000,3.323784912109375,-0.02257215417921543,0.024565530940890312,-0.03972770646214485
1751013513277728800,3.333728759765625,-0.020013920962810516,0.024816399440169334,-0.05012388527393341
1751013513287671800,3.343671875,-0.015899870544672012,0.022456573322415352,-0.05504833906888962
1751013513297614800,3.35361474609375,-0.012987704016268253,0.02329626865684986,-0.05865878611803055
1751013513307558700,3.36355859375,-0.006650712341070175,0.03391695395112038,-0.05005917325615883
1751013513317501700,3.373501708984375,0.0010013486025854945,0.04996276646852493,-0.037393178790807724
1751013513327444700,3.38344482421875,0.009905361570417881,0.05597005784511566,-0.0241993460804224
1751013513337388800,3.393388916015625,0.01471529621630907,0.05771363154053688,-0.008729043416678905
1751013513347331800,3.403331787109375,0.014829013496637344,0.03810876980423927,-0.004230431281030178
1751013513357275000,3.41327490234375,0.018331602215766907,0.015531023032963276,-0.010440656915307045
1751013513367218700,3.42321875,0.0235894825309515,-0.011977300979197025,-0.013828463852405548
1751013513377161700,3.43316162109375,0.02395486831665039,-0.023617710918188095,-0.020727915689349174
1751013513387105800,3.443105712890625,0.028205538168549538,-0.022882945835590363,-0.021921277046203613
1751013513397048800,3.453048828125,0.03345835953950882,-0.008891229517757893,-0.015599732287228107
1751013513406991600,3.46299169921875,0.037642184644937515,0.001318264752626419,-0.015499331057071686
1751013513416936700,3.472936767578125,0.04200603812932968,0.007740743923932314,-0.011913384310901165
1751013513426879700,3.482879638671875,0.04243427515029907,0.011722702533006668,-0.003914047963917255
1751013513436822500,3.492822509765625,0.0448811873793602,0.016743825748562813,0.014582937583327293
1751013513446766600,3.5027666015625,0.0493859238922596,0.031023429706692696,0.027965055778622627
1751013513456709600,3.512709716796875,0.04899311065673828,0.04104543849825859,0.04138978570699692
1751013513466652700,3.522652587890625,0.049664758145809174,0.048472993075847626,0.04670758545398712
1751013513476596500,3.532596435546875,0.04854835942387581,0.05956266075372696,0.04742450639605522
1751013513486539500,3.54253955078125,0.05278944596648216,0.06584026664495468,0.04615018516778946
1751013513496483600,3.552483642578125,0.058578357100486755,0.058998070657253265,0.03287166357040405
1751013513506426600,3.562426513671875,0.0645182728767395,0.041067007929086685,0.02936454676091671
1751013513516369700,3.57236962890625,0.0705958753824234,0.034698326140642166,0.033254094421863556
1751013513526313700,3.582313720703125,0.07480819523334503,0.032282304018735886,0.04204811900854111
1751013513536256800,3.5922568359375,0.07597173005342484,0.04103105515241623,0.05239875987172127
1751013513546199600,3.602199462890625,0.07909508794546127,0.055515188723802567,0.05890779197216034
1751013513556143900,3.612143798828125,0.08114012330770493,0.0675303041934967,0.05826091021299362
1751013513566086700,3.622086669921875,0.0779094472527504,0.07864181697368622,0.053402505815029144
1751013513576029700,3.63202978515625,0.07500473409891129,0.08471595495939255,0.048116929829120636
1751013513585973800,3.641973876953125,0.07378314435482025,0.09310091286897659,0.0477139912545681
1751013513595916800,3.651916748046875,0.06143033877015114,0.09503410011529922,0.04449023678898811
1751013513605860600,3.661860595703125,0.04626123979687691,0.08458226174116135,0.04122253879904747
1751013513615803600,3.6718037109375,0.02918611466884613,0.06768131256103516,0.039328765124082565
1751013513625746700,3.68174658203125,0.01637551188468933,0.05004265904426575,0.03713618218898773
1751013513635690800,3.691690673828125,0.008332764729857445,0.04021559655666351,0.030120884999632835
1751013513645633800,3.7016337890625,0.008701079525053501,0.04285132512450218,0.01961977407336235
1751013513655576800,3.711576904296875,0.01420583389699459,0.05173270404338837,0.0065255435183644295
1751013513665520600,3.721520751953125,0.01944666914641857,0.06980038434267044,-0.012182097882032394
1751013513675463700,3.731463623046875,0.019934292882680893,0.09444208443164825,-0.02516287751495838
1751013513685406700,3.74140673828125,0.020853616297245026,0.10133753716945648,-0.037342045456171036
1751013513695350500,3.7513505859375,0.019185412675142288,0.08280433714389801,-0.04054529592394829
1751013513705293600,3.76129345703125,0.013521134853363037,0.04268061742186546,-0.04059243202209473
1751013513715237600,3.771237548828125,0.011038269847631454,0.00028096348978579044,-0.02689153514802456
1751013513725180700,3.7811806640625,0.008609733544290066,-0.03302213177084923,-0.008963934145867825
1751013513735123700,3.791123779296875,0.003884752979502082,-0.058152250945568085,0.004295945167541504
1751013513745067500,3.801067626953125,-0.005589442327618599,-0.06855296343564987,0.010546917095780373
1751013513755010600,3.811010498046875,-0.018751583993434906,-0.07448168843984604,0.003879160387441516
1751013513764953600,3.82095361328125,-0.026573553681373596,-0.06217282637953758,-0.01495418231934309
1751013513774897700,3.830897705078125,-0.03213050588965416,-0.046731818467378616,-0.03658038005232811
1751013513784840700,3.8408408203125,-0.031737424433231354,-0.022360965609550476,-0.04983067139983177
1751013513794783500,3.850783447265625,-0.029742449522018433,0.0014644722687080503,-0.057375941425561905
1751013513804727800,3.860727783203125,-0.023995080962777138,0.02497512474656105,-0.05692826211452484
1751013513814670600,3.870670654296875,-0.015096395276486874,0.03736415132880211,-0.05712240934371948
1751013513824614700,3.88061474609375,-0.010548514313995838,0.019883427768945694,-0.057317350059747696
1751013513834557700,3.8905576171875,-0.01570279709994793,0.0076158419251441956,-0.05890113487839699
1751013513844500700,3.900500732421875,-0.025362081825733185,-0.005640575196594,-0.06445355713367462
1751013513854444800,3.91044482421875,-0.04135835915803909,-0.013634852133691311,-0.05557777360081673
1751013513864387800,3.920387939453125,-0.06369295716285706,-0.015311045572161674,-0.04831986129283905
1751013513874331000,3.930330810546875,-0.08025249093770981,-0.011051585897803307,-0.030779484659433365
1751013513884274700,3.940274658203125,-0.08464378118515015,-0.007850999012589455,-0.01678936555981636
1751013513894217700,3.9502177734375,-0.07203264534473419,-0.0030075078830122948,-0.011330951005220413
1751013513904160800,3.960160888671875,-0.05271673947572708,0.001606685109436512,-0.017710020765662193
1751013513914104600,3.9701044921875,-0.028325913473963737,0.00038589202449657023,-0.028972795233130455
1751013513924047600,3.980047607421875,-0.004465854726731777,0.005240035708993673,-0.04283028841018677
1751013513933991700,3.98999169921875,0.021737519651651382,0.020318854600191116,-0.048720136284828186
1751013513943934700,3.999934814453125,0.0399378277361393,0.03360003978013992,-0.044676922261714935
1751013513953877800,4.009877685546875,0.05150420218706131,0.044059868901968,-0.036198217421770096
1751013513963821600,4.019821533203125,0.04464363306760788,0.036021117120981216,-0.027948809787631035
1751013513973764600,4.0297646484375,0.03009505197405815,0.016100406646728516,-0.019643209874629974
1751013513983707600,4.039707763671875,0.013704360462725163,-0.01709003746509552,-0.017850901931524277
1751013513993651700,4.049651611328125,-0.0015060176374390721,-0.048651427030563354,-0.016804812476038933
1751013514003594800,4.0595947265625,-0.003754258155822754,-0.06347617506980896,-0.018695389851927757
1751013514013537500,4.06953759765625,-0.0022559636272490025,-0.06586983054876328,-0.019815249368548393
1751013514023481600,4.079481689453125,0.008528773672878742,-0.06295260041952133,-0.019099924713373184
1751013514033424600,4.089424560546875,0.01913907378911972,-0.04669506847858429,-0.009107744321227074
1751013514043368700,4.09936865234375,0.032710541039705276,-0.026871828362345695,-0.009580722078680992
1751013514053311500,4.1093115234375,0.04037991166114807,-0.019710320979356766,-0.01913401298224926
1751013514063254500,4.119254638671875,0.03663976863026619,-0.040294159203767776,-0.034807249903678894
1751013514073198800,4.12919873046875,0.02852325327694416,-0.07194209843873978,-0.04264945909380913
1751013514083141600,4.1391416015625,0.008347677998244762,-0.09410945326089859,-0.04213174059987068
1751013514093084700,4.149084716796875,-0.005201419815421104,-0.09072510898113251,-0.03334890305995941
1751013514103028700,4.15902880859375,-0.002698581200093031,-0.051656004041433334,-0.014663631096482277
1751013514112971800,4.1689716796875,0.011972240172326565,0.0044352286495268345,-0.0003603257064241916
1751013514122915800,4.178915771484375,0.03015710413455963,0.07369978725910187,0.0021811288315802813
1751013514132859000,4.18885888671875,0.038901060819625854,0.13970011472702026,-0.0062821307219564915
1751013514142801700,4.1988017578125,0.052558284252882004,0.19389517605304718,-0.0318753756582737
1751013514152745700,4.208745849609375,0.0636327713727951,0.2261367291212082,-0.06719208508729935
1751013514162688800,4.218688720703125,0.06368150562047958,0.22706536948680878,-0.1021527349948883
1751013514172631800,4.2286318359375,0.04849882796406746,0.19885078072547913,-0.1197596937417984
1751013514182575600,4.23857568359375,0.022656576707959175,0.1793697625398636,-0.112572081387043
1751013514192518700,4.2485185546875,-0.0033015208318829536,0.15686258673667908,-0.08051934093236923
1751013514202461700,4.258461669921875,-0.030435670167207718,0.12694703042507172,-0.03671939671039581
1751013514212405800,4.26840576171875,-0.049074068665504456,0.10434531420469284,0.005856291390955448
1751013514222348800,4.278348876953125,-0.05324191600084305,0.07903143763542175,0.03344530984759331
1751013514232292600,4.288292724609375,-0.05056037753820419,0.051360659301280975,0.04344334825873375
1751013514242235600,4.298235595703125,-0.05402914807200432,0.022120481356978416,0.028069717809557915
1751013514252178700,4.3081787109375,-0.04560157284140587,-0.00726350536569953,0.006929012481123209
1751013514262122800,4.318122802734375,-0.03665228560566902,-0.036319125443696976,-0.014249242842197418
1751013514272065500,4.3280654296875,-0.0363907627761364,-0.05879194289445877,-0.029994649812579155
1751013514282008600,4.338008544921875,-0.04326597973704338,-0.06653987616300583,-0.03423280641436577
1751013514291952600,4.34795263671875,-0.04097326472401619,-0.056062471121549606,-0.0240161195397377
1751013514301895700,4.357895751953125,-0.04761119559407234,-0.03229588642716408,-0.0032357405871152878
1751013514311838700,4.367838623046875,-0.030057234689593315,-0.023622505366802216,0.01136690378189087
1751013514321782500,4.377782470703125,0.00009321063407696784,-0.009810819290578365,0.03298671171069145
1751013514331725600,4.3877255859375,0.017715081572532654,0.0017571536591276526,0.04869057238101959
1751013514341669600,4.397669677734375,0.018074607476592064,-0.006030728109180927,0.06180983781814575
1751013514351612700,4.40761279296875,0.01011122390627861,-0.02209065482020378,0.0722275897860527
1751013514361555500,4.417555419921875,0.0015507587231695652,-0.027666781097650528,0.081526018679142
1751013514371499800,4.427499755859375,-0.004905010107904673,-0.02520415559411049,0.08499425649642944
1751013514381442800,4.43744287109375,-0.002409628126770258,-0.022116754204034805,0.08548267930746078
1751013514391385900,4.4473857421875,0.0013177321525290608,-0.004992095287889242,0.0978623777627945
1751013514401329700,4.45732958984375,0.000023169501218944788,0.020171048119664192,0.10533015429973602
1751013514411272700,4.467272705078125,-0.011748002842068672,0.031501200050115585,0.10840397328138351
1751013514421214700,4.477214599609375,-0.029205288738012314,0.010437194257974625,0.09361889958381653
1751013514431159000,4.487158935546875,-0.049003761261701584,-0.020240556448698044,0.0742795541882515
1751013514441102000,4.49710205078125,-0.06358936429023743,-0.0471334233880043,0.0496935211122036
1751013514451045000,4.507045166015625,-0.07851478457450867,-0.0668482705950737,0.023300794884562492
1751013514460989000,4.516989013671875,-0.08711625635623932,-0.07795897871255875,0.007665643002837896
1751013514470932000,4.526931884765625,-0.08839617669582367,-0.09000153094530106,-0.004907673224806786
1751013514480876000,4.5368759765625,-0.09596195071935654,-0.09229131788015366,-0.005843774415552616
1751013514490819000,4.546819091796875,-0.10279055684804916,-0.07201693207025528,0.006930077914148569
1751013514500762000,4.55676220703125,-0.10220706462860107,-0.046128079295158386,0.014843926765024662
1751013514510706000,4.566705810546875,-0.10089918226003647,-0.02256682887673378,0.014542457647621632
1751013514520649000,4.57664892578125,-0.0836794525384903,-0.0020839234348386526,0.00027510453946888447
1751013514530592000,4.586592041015625,-0.0658290833234787,0.011843343265354633,-0.029873210936784744
1751013514540535800,4.596535888671875,-0.040824927389621735,0.0008263788768090308,-0.06831620633602142
1751013514550478800,4.606478759765625,-0.018739866092801094,-0.009820939041674137,-0.08936929702758789
1751013514560423000,4.6164228515625,0.005249623209238052,-0.01576191931962967,-0.09781844168901443
1751013514570366000,4.626365966796875,0.025489380583167076,-0.01142868958413601,-0.08673729002475739
1751013514580309000,4.63630908203125,0.03802914172410965,-0.004025900736451149,-0.05957837402820587
1751013514590252800,4.646252685546875,0.047029558569192886,-0.002511893631890416,-0.03190014138817787
1751013514600195800,4.65619580078125,0.04332323744893074,0.002403236459940672,-0.004849616438150406
1751013514610139000,4.666138916015625,0.030605845153331757,0.002043709857389331,0.010969560593366623
1751013514620083000,4.6760830078125,0.011984490789473057,0.00013528858835343271,0.017916683107614517
1751013514630026000,4.68602587890625,0.0038746329955756664,0.005647233221679926,0.018330005928874016
1751013514639968800,4.69596875,0.008847021497786045,0.0033505228348076344,0.01321061048656702
1751013514649912800,4.705912841796875,0.027898741886019707,0.01483194250613451,0.01595473103225231
1751013514659856000,4.71585595703125,0.03929653763771057,0.03449512645602226,0.01846236363053322
1751013514669799000,4.725798828125,0.04599066078662872,0.04278474673628807,0.01575339585542679
1751013514679742700,4.73574267578125,0.046238068491220474,0.02713015489280224,0.007781490217894316
1751013514689685800,4.745685791015625,0.042439334094524384,0.0006817692192271352,-0.0010953581659123302
1751013514699630000,4.755630126953125,0.039150599390268326,-0.01188302505761385,-0.006714361719787121
1751013514709573000,4.765572998046875,0.03407248109579086,-0.0037710361648350954,-0.005558816250413656
1751013514719516200,4.77551611328125,0.032589901238679886,0.015930762514472008,-0.00126766471657902
1751013514729460000,4.7854599609375,0.022457638755440712,0.03229775279760361,-0.0037824877072125673
1751013514739403000,4.795403076171875,0.002116147894412279,0.04384841397404671,-0.018980881199240685
1751013514749346000,4.805345947265625,-0.02238280326128006,0.03474120423197746,-0.03694843128323555
1751013514759289900,4.815289794921875,-0.04212135449051857,0.02317456156015396,-0.05067143216729164
1751013514769233000,4.82523291015625,-0.05193030834197998,0.021461348980665207,-0.05734691396355629
1751013514779176000,4.835176025390625,-0.05144854262471199,0.02550482749938965,-0.05261554196476936
1751013514789120000,4.8451201171875,-0.04439196735620499,0.03429006412625313,-0.050385408103466034
1751013514799063000,4.85506298828125,-0.025551166385412216,0.04813530296087265,-0.03820038214325905
1751013514809006000,4.865006103515625,-0.011608186177909374,0.06182155758142471,-0.022890934720635414
1751013514818950000,4.874949951171875,-0.00421285443007946,0.07835046201944351,-0.005222458858042955
1751013514828893000,4.884892822265625,-0.00030786142451688647,0.09205562621355057,0.01913214847445488
1751013514838837000,4.8948369140625,0.0020967067684978247,0.09832470864057541,0.03465065360069275
1751013514848780000,4.904780029296875,0.006946056615561247,0.09463542699813843,0.04989831894636154
1751013514858722800,4.914722900390625,0.015146728605031967,0.08211004734039307,0.052802760154008865
1751013514868667000,4.9246669921875,0.02040647156536579,0.06860516220331192,0.053609699010849
1751013514878610000,4.93460986328125,0.022395852953195572,0.053653374314308167,0.04345639795064926
1751013514888553000,4.944552978515625,0.0223255455493927,0.046417031437158585,0.02744227647781372
1751013514898496800,4.954496826171875,0.015625031664967537,0.041314151138067245,0.007620102725923061
1751013514908439800,4.964439697265625,0.010898720473051071,0.038112763315439224,-0.011959990486502647
1751013514918382800,4.9743828125,-0.0043960800394415855,0.03845817595720291,-0.0182943195104599
1751013514928327000,4.984326904296875,-0.01293417438864708,0.034689005464315414,-0.02244512178003788
1751013514938270000,4.99427001953125,-0.017363810911774635,0.03469965606927872,-0.014063354581594467
1751013514948213800,5.0042138671875,-0.017409617081284523,0.04174558073282242,-0.00119575927965343
1751013514958156800,5.01415673828125,-0.009905095212161541,0.04799468815326691,0.011757856234908104
1751013514968099800,5.024099853515625,-0.003570766421034932,0.05531678348779678,0.023310648277401924
1751013514978044200,5.034044189453125,-0.00387383415363729,0.0644138753414154,0.03160293400287628
1751013514987987000,5.043987060546875,-0.00817883387207985,0.059473179280757904,0.0404166653752327
1751013514997929700,5.0539296875,-0.016354205086827278,0.04761279374361038,0.03991226106882095
1751013515007874000,5.0638740234375,-0.02315618470311165,0.0475829653441906,0.03852662071585655
1751013515017817000,5.073817138671875,-0.028504611924290657,0.046842072159051895,0.03490951284766197
1751013515027760000,5.083760009765625,-0.030644727870821953,0.04349261522293091,0.03490898013114929
1751013515037704000,5.093703857421875,-0.031215976923704147,0.045101430267095566,0.03169534355401993
1751013515047647000,5.10364697265625,-0.03344770520925522,0.0557711198925972,0.03311081603169441
1751013515057591000,5.113591064453125,-0.035947881639003754,0.06331958621740341,0.041260089725255966
1751013515067534000,5.1235341796875,-0.04045448079705238,0.06988906860351562,0.04002145305275917
1751013515077476900,5.133476806640625,-0.046721167862415314,0.053109556436538696,0.04067392647266388
1751013515087421000,5.1434208984375,-0.05651520565152168,0.02592400833964348,0.041609495878219604
1751013515097364000,5.153364013671875,-0.059359464794397354,0.016920393332839012,0.041195373982191086
1751013515107307000,5.16330712890625,-0.05637113004922867,0.009928531013429165,0.03562643751502037
1751013515117250800,5.173250732421875,-0.046594664454460144,0.011871040798723698,0.020804613828659058
1751013515127193900,5.18319384765625,-0.037225931882858276,0.017614146694540977,-0.0028272117488086224
1751013515137137000,5.193136962890625,-0.03922037407755852,0.01804371550679207,-0.030644195154309273
1751013515147081000,5.2030810546875,-0.04387158527970314,0.025772741064429283,-0.044431913644075394
1751013515157024000,5.21302392578125,-0.04788683354854584,0.02755359746515751,-0.04502659663558006
1751013515166967000,5.222967041015625,-0.04304014518857002,0.02520868368446827,-0.03592417761683464
1751013515176910800,5.232910888671875,-0.03009851463139057,0.022720757871866226,-0.017522800713777542
1751013515186854000,5.24285400390625,-0.01525671686977148,0.007782555650919676,0.008971656672656536
1751013515196798000,5.2527978515625,-0.008917861618101597,0.000830107310321182,0.026094717904925346
1751013515206740700,5.26274072265625,-0.006430468522012234,0.0011592740193009377,0.036620862782001495
1751013515216683800,5.272683837890625,-0.011726164259016514,0.01366441324353218,0.0355614572763443
1751013515226627800,5.2826279296875,-0.014418620616197586,0.021685853600502014,0.024565264582633972
1751013515236571000,5.29257080078125,-0.021613681688904762,0.022765234112739563,0.007135673891752958
1751013515246514000,5.302513916015625,-0.01635926589369774,0.019107647240161896,-0.00893890019506216
1751013515256458000,5.3124580078125,-0.008193215355277061,0.010036388412117958,-0.018566759303212166
1751013515266400800,5.32240087890625,-0.0004122573300264776,0.0018128136871382594,-0.02381877973675728
1751013515276343800,5.33234375,0.005672000348567963,0.004198207054287195,-0.01791961118578911
1751013515286288100,5.3422880859375,0.011411112733185291,0.0049734534695744514,-0.008587895892560482
1751013515296231000,5.35223095703125,0.01137036643922329,0.006833671126514673,0.005694371182471514
1751013515306174000,5.362174072265625,0.01013785507529974,0.0018048242200165987,0.017557421699166298
1751013515316118000,5.372117919921875,0.005532983224838972,0.0026471822056919336,0.029405025765299797
1751013515326061000,5.38206103515625,0.0014293185668066144,-0.008701345883309841,0.033190444111824036
1751013515336004900,5.3920048828125,-0.0019824570044875145,-0.0059721386060118675,0.029861759394407272
1751013515345948000,5.401947998046875,-0.0009331716573797166,0.0011792477453127503,0.015895875170826912
1751013515355891000,5.411890869140625,-0.003192331176251173,0.00809041690081358,-0.002110022585839033
1751013515365835000,5.4218349609375,-0.0016724651213735342,0.024406805634498596,-0.02592454105615616
1751013515375778000,5.431778076171875,0.0029667613562196493,0.03368872031569481,-0.0441027469933033
1751013515385721000,5.44172119140625,0.01110644731670618,0.03539048135280609,-0.05308692157268524
1751013515395665000,5.451664794921875,0.022787338122725487,0.03868241608142853,-0.05026210471987724
1751013515405608000,5.46160791015625,0.03518648445606232,0.036663737148046494,-0.03382107987999916
1751013515415551000,5.471551025390625,0.04391526058316231,0.030473221093416214,-0.00942306313663721
1751013515425499400,5.48149951171875,0.04899657145142555,0.025831863284111023,0.012677712365984917
1751013515435442400,5.4914423828125,0.051359593868255615,0.02178465761244297,0.028797559440135956
1751013515445385500,5.501385498046875,0.05151858553290367,0.01062414888292551,0.028360268101096153
1751013515455329500,5.51132958984375,0.05621453747153282,0.005346295889467001,0.01895930990576744
1751013515465272300,5.521272216796875,0.06575797498226166,-0.003576891729608178,0.0024810009635984898
1751013515475216400,5.53121630859375,0.07373813539743423,-0.00634950865060091,-0.014568023383617401
1751013515485159400,5.541159423828125,0.07479407638311386,-0.002275937469676137,-0.03864193335175514
1751013515495102500,5.5511025390625,0.06528446078300476,0.00833889003843069,-0.0539199560880661
1751013515505046300,5.56104638671875,0.04953905567526817,0.029744846746325493,-0.058945074677467346
1751013515514989300,5.5709892578125,0.04255491867661476,0.03602218255400658,-0.06073871627449989
1751013515524932400,5.580932373046875,0.042443595826625824,0.03358379378914833,-0.049788862466812134
1751013515534876700,5.590876708984375,0.04616856202483177,0.02178305946290493,-0.03765470162034035
1751013515544819500,5.6008193359375,0.05290156230330467,0.017372598871588707,-0.01810869574546814
1751013515554762200,5.61076220703125,0.05892696604132652,0.01014051865786314,-0.0004953479510731995
1751013515564706600,5.62070654296875,0.04776033014059067,0.014609036035835743,0.0122441491112113
1751013515574649600,5.630649658203125,0.037697844207286835,0.02737862803041935,0.02478976920247078
1751013515584592600,5.640592529296875,0.02678793855011463,0.04717869684100151,0.03241759538650513
1751013515594536400,5.650536376953125,0.01967836357653141,0.07058708369731903,0.029330458492040634
1751013515604479500,5.6604794921875,0.014214355498552322,0.08511383086442947,0.019114572554826736
1751013515614423600,5.670423583984375,0.018334265798330307,0.08101655542850494,0.001734783174470067
1751013515624366600,5.68036669921875,0.019990485161542892,0.06936842203140259,-0.011025752872228622
1751013515634309600,5.6903095703125,0.02365712635219097,0.06374888867139816,-0.017076987773180008
1751013515644253400,5.70025341796875,0.01830364018678665,0.05679750069975853,-0.019167834892868996
1751013515654196500,5.710196533203125,0.0026349315885454416,0.03953329473733902,-0.02034468576312065
1751013515664139500,5.720139404296875,-0.017543306574225426,0.01623889058828354,-0.023970313370227814
1751013515674083600,5.73008349609375,-0.03177231177687645,0.0036706349346786737,-0.019881030544638634
1751013515684026400,5.7400263671875,-0.037029657512903214,0.0019768644124269485,-0.014231400564312935
1751013515693969400,5.749969482421875,-0.031320638954639435,0.0082483422011137,-0.009274991229176521
1751013515703913500,5.75991357421875,-0.018509767949581146,0.020101273432374,-0.00848296657204628
1751013515713856500,5.7698564453125,-0.010034524835646152,0.03542163968086243,-0.009521067142486572
1751013515723799600,5.779799560546875,0.0004013383586425334,0.04910416156053543,-0.010456369258463383
1751013515733743400,5.789743408203125,0.0013430321123450994,0.05595487728714943,-0.008825449272990227
1751013515743686400,5.799686279296875,0.008189486339688301,0.05781935900449753,-0.006677343975752592
1751013515753630500,5.80963037109375,0.016643159091472626,0.04555043950676918,-0.0010098706698045135
1751013515763573500,5.819573486328125,0.018379539251327515,0.03476330637931824,0.007177751511335373
1751013515773516500,5.8295166015625,0.024999892339110374,0.03623789921402931,0.015233014710247517
1751013515783460400,5.83946044921875,0.024115988984704018,0.038725823163986206,0.016226906329393387
1751013515793403400,5.8494033203125,0.02706916816532612,0.03928189352154732,0.014751248992979527
1751013515803346400,5.859346435546875,0.017719075083732605,0.040402017533779144,0.012826316058635712
1751013515813290200,5.869290283203125,0.02371118776500225,0.04627455398440361,0.009214270859956741
1751013515823233300,5.8792333984375,0.023237943649291992,0.04706684499979019,0.01176051888614893
1751013515833176300,5.88917626953125,0.023130087181925774,0.04374641552567482,0.011538944207131863
1751013515843120600,5.89912060546875,0.02407604083418846,0.03291160985827446,0.010010556317865849
1751013515853063700,5.909063720703125,0.01973189227283001,0.02142086997628212,0.012017514556646347
1751013515863007500,5.919007568359375,0.01625620201230049,0.013818610459566116,0.012944560497999191
1751013515872950500,5.928950439453125,0.014573083259165287,0.01053440012037754,0.015183214098215103
1751013515882893600,5.9388935546875,0.010567955672740936,0.010892328806221485,0.007737548090517521
1751013515892837600,5.948837646484375,0.011196994222700596,0.01683943346142769,0.000254331884207204
1751013515902780400,5.958780517578125,0.007505054119974375,0.016503343358635902,-0.018812304362654686
1751013515912723500,5.968723388671875,0.005613943561911583,0.023196132853627205,-0.02586355432868004
1751013515922667500,5.97866748046875,0.0011283813510090113,0.02877066098153591,-0.03367886692285538
1751013515932610600,5.988610595703125,0.0027624969370663166,0.0359305702149868,-0.03754684329032898
1751013515942553600,5.9985537109375,0.004303135443478823,0.03592950478196144,-0.03747360408306122
1751013515952497400,6.008497314453125,0.004840561654418707,0.026925357058644295,-0.031977638602256775
1751013515962440400,6.0184404296875,0.002457298804074526,0.01468466967344284,-0.030314495787024498
1751013515972383500,6.028383544921875,-0.0012120045721530914,0.008348477073013783,-0.02473357506096363
1751013515982327600,6.03832763671875,-0.004290885291993618,0.0028847360517829657,-0.013775200583040714
1751013515992270600,6.0482705078125,-0.004686364438384771,-0.0049556102603673935,-0.009475260972976685
1751013516002213400,6.05821337890625,0.002752110594883561,-0.00018136126163881272,-0.0044083306565880775
1751013516012157400,6.068157470703125,0.014049505814909935,0.007249390706419945,-0.004312456585466862
1751013516022100500,6.0781005859375,0.022055234760046005,0.012677179649472237,-0.005976133514195681
1751013516032044300,6.088044189453125,0.029276128858327866,0.018665563315153122,-0.0025129588320851326
1751013516041987300,6.0979873046875,0.03959960862994194,0.01563994586467743,-0.0041460092179477215
1751013516051930400,6.107930419921875,0.04314454272389412,0.01641678996384144,-0.007322094868868589
1751013516061874400,6.11787451171875,0.04111867398023605,0.020251475274562836,-0.003961185924708843
1751013516071817500,6.1278173828125,0.0358048677444458,0.01643143780529499,-0.004875182639807463
1751013516081760500,6.137760498046875,0.025301095098257065,0.014725150540471077,-0.003862116253003478
1751013516091704300,6.147704345703125,0.016150208190083504,0.012308331206440926,-0.00652687530964613
1751013516101647400,6.1576474609375,0.011536813341081142,0.007224889472126961,-0.003480218816548586
1751013516111590400,6.16759033203125,0.007109308615326881,0.007257912773638964,-0.009900568053126335
1751013516121534500,6.177534423828125,0.004003796260803938,0.0017158746486529708,-0.018602712079882622
1751013516131477200,6.187477294921875,0.002579537918791175,-0.010790063068270683,-0.026814570650458336
1751013516141421600,6.197421630859375,-0.0012295814231038094,-0.01654808409512043,-0.03136670961976051
1751013516151364600,6.207364501953125,0.001327053178101778,-0.00893890019506216,-0.028208201751112938
1751013516161307600,6.2173076171875,-0.00318913534283638,0.005181978922337294,-0.02016598917543888
1751013516171251500,6.22725146484375,-0.004270378965884447,0.013148026540875435,-0.011215636506676674
1751013516181194500,6.237194580078125,-0.008420382626354694,0.010244914330542088,-0.004400607198476791
1751013516191137500,6.247137451171875,-0.007722101639956236,0.01155758649110794,0.006095709279179573
1751013516201081600,6.25708154296875,-0.0041273669339716434,0.006674680393189192,0.013143232092261314
1751013516211024600,6.267024658203125,-0.0014684670604765415,0.0004822984628845006,0.01750442571938038
1751013516220967400,6.276967529296875,-0.00327275856398046,0.006485596299171448,0.02407817170023918
1751013516230911500,6.286911376953125,0.005811816547065973,0.015211443416774273,0.02532133460044861
1751013516240854500,6.2968544921875,0.004991828929632902,0.031126227229833603,0.018735071644186974
1751013516250797600,6.306797607421875,0.002969158347696066,0.03906963765621185,0.009254218079149723
1751013516260741400,6.316741455078125,0.0006428870838135481,0.043347738683223724,-0.010219614021480083
1751013516270684400,6.326684326171875,-0.0002580603177193552,0.032771263271570206,-0.02274046652019024
1751013516280628500,6.33662841796875,-0.0026051041204482317,0.025589516386389732,-0.03628982976078987
1751013516290571500,6.346571533203125,-0.003314303932711482,0.017976071685552597,-0.039514653384685516
1751013516300514600,6.3565146484375,0.0011728560784831643,0.016865532845258713,-0.0366421677172184
1751013516310458400,6.366458251953125,0.007056045345962048,0.016865799203515053,-0.02871127240359783
1751013516320401400,6.3764013671875,0.013979731127619743,0.016859406605362892,-0.015990950167179108
1751013516330344400,6.386344482421875,0.015599199570715427,0.015238074585795403,-0.008101335726678371
1751013516340288500,6.39628857421875,0.020298080518841743,0.012282499112188816,0.00010120012302650139
1751013516350231300,6.406231201171875,0.018874621018767357,0.0002697782183531672,0.003817907767370343
1751013516360174300,6.41617431640625,0.017138507217168808,-0.013468137942254543,0.008262457326054573
1751013516370118400,6.426118408203125,0.014584003016352654,-0.016588563099503517,0.014391722157597542
1751013516380061400,6.4360615234375,0.020429108291864395,-0.01884213089942932,0.013976003043353558
1751013516390004500,6.44600439453125,0.027967186644673347,-0.015135809779167175,0.011921906843781471
1751013516399948300,6.4559482421875,0.03925153240561485,-0.0026224146131426096,0.0040794298984110355
1751013516409891300,6.465891357421875,0.04357011243700981,0.025776736438274384,-0.006696252152323723
1751013516419830300,6.475830322265625,0.036016590893268585,0.04842931777238846,-0.019424565136432648
1751013516429774300,6.4857744140625,0.01732785813510418,0.05542810633778572,-0.03658144548535347
1751013516439717400,6.49571728515625,-0.00336197461001575,0.03945073485374451,-0.041255827993154526
1751013516449661200,6.5056611328125,-0.015292403288185596,0.013492639176547527,-0.04703595116734505
1751013516459604200,6.515604248046875,-0.024175111204385757,-0.007531419396400452,-0.03744404390454292
1751013516469547300,6.52554736328125,-0.017718011513352394,-0.015392804518342018,-0.022708240896463394
1751013516479491300,6.5354912109375,-0.01034451648592949,-0.00569996377453208,0.002731071785092354
1751013516489434400,6.545434326171875,-0.0002609897928778082,0.015030348673462868,0.018258899450302124
1751013516499377200,6.555377197265625,0.005849367007613182,0.03441842645406723,0.03243357315659523
1751013516509321200,6.5653212890625,0.011037470772862434,0.0521090067923069,0.03472309187054634
1751013516519264300,6.57526416015625,0.009972206316888332,0.06079544126987457,0.02918425016105175
1751013516529207300,6.585207275390625,0.01287558488547802,0.05013374239206314,0.01673184148967266
1751013516539151000,6.595151123046875,0.012059592641890049,0.026376213878393173,0.0014919028617441654
1751013516549094100,6.60509423828125,0.01642983965575695,0.003400590270757675,-0.01016608439385891
1751013516559038500,6.61503857421875,0.012398879043757915,-0.011320564895868301,-0.01570039987564087
1751013516568981500,6.6249814453125,0.010779676958918571,-0.015059909783303738,-0.019026421010494232
1751013516578924500,6.634924560546875,0.009818808175623417,-0.004221909213811159,-0.009822803549468517
1751013516588868400,6.644868408203125,0.01047181524336338,0.005566006526350975,-0.00098217383492738
1751013516598811400,6.654811279296875,0.013275858014822006,0.013144031167030334,0.0034466630313545465
1751013516608754400,6.66475439453125,0.014918229542672634,0.016519587486982346,0.006146575789898634
1751013516618698200,6.6746982421875,0.014084394089877605,0.007281082216650248,0.00944782979786396
1751013516628641300,6.684641357421875,0.018033329397439957,-0.0062126219272613525,0.009323992766439915
1751013516638584300,6.694584228515625,0.006081594619899988,-0.012294483371078968,0.009564743377268314
1751013516648528400,6.7045283203125,0.002091646660119295,-0.011349326930940151,0.009810819290578365
1751013516658471400,6.714471435546875,-0.0014721954939886928,0.00014807176194153726,0.012769324705004692
1751013516668414500,6.72441455078125,0.004495948553085327,0.013253487646579742,0.008094944059848785
1751013516678358300,6.734358154296875,0.006262955721467733,0.025375397875905037,-0.0036330842413008213
1751013516688301300,6.74430126953125,0.015740880742669106,0.03074513003230095,-0.01624927669763565
1751013516698245400,6.754245361328125,0.01655340939760208,0.03130625560879707,-0.024871528148651123
1751013516708188400,6.7641884765625,0.014516890980303288,0.028248416259884834,-0.03233477100729942
1751013516718131200,6.774131103515625,0.011183944530785084,0.01594594307243824,-0.03833673521876335
1751013516728075300,6.7840751953125,0.006404103245586157,0.005398760084062815,-0.03537610173225403
1751013516738018300,6.794018310546875,0.004193413536995649,0.00375958438962698,-0.025837456807494164
1751013516747961300,6.80396142578125,0.008982841856777668,0.0076240976341068745,-0.01332858856767416
1751013516757905200,6.8139052734375,0.01817953586578369,0.012237224727869034,-0.00577772781252861
1751013516767848200,6.82384814453125,0.03237844631075859,0.011169830337166786,0.003457848448306322
1751013516777791200,6.833791259765625,0.037160951644182205,0.013253487646579742,0.008757272735238075
1751013516787735300,6.8437353515625,0.03936684876680374,0.016933709383010864,0.012689696624875069
1751013516797678300,6.85367822265625,0.036430977284908295,0.01685781031847,0.02118784375488758
1751013516807622100,6.8636220703125,0.029028454795479774,0.028773590922355652,0.026328276842832565
1751013516817565200,6.873565185546875,0.025910958647727966,0.030663901939988136,0.028449485078454018
1751013516827508200,6.88350830078125,0.02491413801908493,0.02839994989335537,0.031991489231586456
1751013516837452300,6.893452392578125,0.023420637473464012,0.034145187586545944,0.03736068680882454
1751013516847395300,6.903395263671875,0.024273646995425224,0.056285642087459564,0.045395445078611374
1751013516857338000,6.913338134765625,0.022398782894015312,0.07818561792373657,0.05482489988207817
1751013516867282400,6.923282470703125,0.028392227366566658,0.0857311487197876,0.05559615045785904
1751013516877225500,6.9332255859375,0.030672958120703697,0.08941216766834259,0.05011749640107155
1751013516887168500,6.94316845703125,0.029889721423387527,0.09042816609144211,0.04653021693229675
1751013516897112300,6.9531123046875,0.023136477917432785,0.0871514156460762,0.03731328248977661
1751013516907055400,6.963055419921875,0.01016661711037159,0.06876201927661896,0.027761856094002724
1751013516916998400,6.972998291015625,-0.002025600289925933,0.05200807377696037,0.022191587835550308
1751013516926942500,6.9829423828125,-0.019164107739925385,0.035461053252220154,0.0181659534573555
1751013516936885200,6.99288525390625,-0.0399751141667366,0.022608106955885887,0.023023027926683426
1751013516946829300,7.002829345703125,-0.04567667469382286,0.01846848987042904,0.030524352565407753
1751013516956772400,7.0127724609375,-0.040822532027959824,0.004007791168987751,0.04676111415028572
1751013516966715400,7.02271533203125,-0.022939404472708702,-0.024269919842481613,0.06946323066949844
1751013516976659200,7.0326591796875,-0.006103698629885912,-0.00020719393796753138,0.09444741159677505
1751013516986602200,7.042602294921875,0.012750682421028614,0.04235491529107094,0.10462334752082825
1751013516996545300,7.052545166015625,0.036320190876722336,0.07168669998645782,0.08508959412574768
1751013517006489300,7.0624892578125,0.05278944596648216,0.07021184265613556,0.034636273980140686
1751013517016432400,7.072432373046875,0.05950354039669037,0.0519726537168026,-0.034384071826934814
1751013517026375200,7.082375244140625,0.056469932198524475,0.038550589233636856,-0.10329443216323853
1751013517036319200,7.0923193359375,0.05380144715309143,0.04505962133407593,-0.15731079876422882
1751013517046262300,7.10226220703125,0.04830654710531235,0.055755406618118286,-0.191181942820549
1751013517056206300,7.112206298828125,0.0421338714659214,0.06378217786550522,-0.19791734218597412
1751013517066149000,7.122149169921875,0.04692942649126053,0.07192638516426086,-0.1790802776813507
1751013517076092200,7.132092041015625,0.04989858344197273,0.06523200124502182,-0.14538303017616272
1751013517086036200,7.1420361328125,0.05914028361439705,0.042985815554857254,-0.10669262707233429
1751013517095979300,7.151979248046875,0.06372891366481781,0.014067615382373333,-0.06516595184803009
1751013517105922300,7.16192236328125,0.05709311366081238,-0.01395842619240284,-0.024582574144005775
1751013517115866000,7.1718662109375,0.04452192783355713,-0.03989894688129425,-0.007979363203048706
1751013517125809200,7.18180908203125,0.030912108719348907,-0.05577005445957184,-0.00355931487865746
1751013517135752200,7.191752197265625,0.02580629661679268,-0.0571541003882885,-0.013079582713544369
1751013517145696500,7.201696533203125,0.025080585852265358,-0.038238730281591415,-0.03080025687813759
1751013517155639300,7.211639404296875,0.030292391777038574,-0.0070158313028514385,-0.051237355917692184
1751013517165583400,7.221583251953125,0.047207459807395935,0.028920331969857216,-0.062192268669605255
1751013517175526400,7.2315263671875,0.06682297587394714,0.06990185379981995,-0.06854709982872009
1751013517185469400,7.241469482421875,0.08426907658576965,0.09406498074531555,-0.06319361925125122
1751013517195413200,7.251413330078125,0.0788029357790947,0.1035333126783371,-0.043354399502277374
1751013517205356300,7.261356201171875,0.070298932492733,0.08916023373603821,-0.020870395004749298
1751013517215299300,7.27129931640625,0.05300169810652733,0.05192098766565323,-0.00031664984999224544
1751013517225243400,7.281243408203125,0.03588476404547691,0.015095596201717854,0.02003016695380211
1751013517235186400,7.2911865234375,0.0218507032841444,-0.015047659166157246,0.027883829548954964
1751013517245129500,7.30112939453125,0.0062368568032979965,-0.030786940827965736,0.03153129294514656
1751013517255073300,7.3110732421875,0.0009534116834402084,-0.0356016680598259,0.02347097173333168
1751013517265016300,7.321016357421875,0.0013102752855047584,-0.029923010617494583,0.0018005631864070892
1751013517274960400,7.33096044921875,0.0113988621160388,-0.009669405408203602,-0.019215505570173264
1751013517284903200,7.340903076171875,0.015557654201984406,0.014495586045086384,-0.04013996198773384
1751013517294846200,7.35084619140625,0.01950632408261299,0.03255261853337288,-0.06163087487220764
1751013517304790300,7.360790283203125,0.013839116320014,0.041602037847042084,-0.07184968888759613
1751013517314733300,7.3707333984375,0.006430202629417181,0.03810637444257736,-0.0742766261100769
1751013517324676400,7.38067626953125,-0.004535363521426916,0.029103290289640427,-0.06191476806998253
1751013517334620200,7.3906201171875,-0.015177355147898197,0.013508351519703865,-0.03747307136654854
1751013517344563200,7.400563232421875,-0.027523769065737724,0.0010159959783777595,-0.008912800811231136
1751013517354506200,7.41050634765625,-0.03236646205186844,-0.009973271749913692,0.012259596027433872
1751013517364450300,7.4204501953125,-0.03804245591163635,-0.017972609028220177,0.026761306449770927
1751013517374393300,7.430393310546875,-0.04050401598215103,-0.019165439531207085,0.028742432594299316
1751013517384336100,7.440336181640625,-0.04338609054684639,-0.014929681085050106,0.023031815886497498
1751013517394280200,7.4502802734375,-0.04388356953859329,0.003976631909608841,0.010282198898494244
1751013517404223200,7.46022314453125,-0.03826909139752388,0.025122396647930145,0.0009717874927446246
1751013517414167300,7.470167236328125,-0.037471476942300797,0.036249615252017975,-0.008731173351407051
1751013517424110300,7.4801103515625,-0.031500667333602905,0.04030401259660721,-0.011168764904141426
1751013517434053400,7.490053466796875,-0.03313717991113663,0.044203948229551315,-0.010780209675431252
1751013517443997400,7.49999755859375,-0.0356283001601696,0.042029209434986115,-0.002293247962370515
1751013517453940500,7.5099404296875,-0.043224435299634933,0.03922543302178383,0.01062095258384943
1751013517463883500,7.519883544921875,-0.050573959946632385,0.035593681037425995,0.030118487775325775
1751013517473827300,7.529827392578125,-0.05295829102396965,0.03879799693822861,0.05415777862071991
1751013517483770400,7.539770263671875,-0.05283258855342865,0.04025581106543541,0.07155807316303253
1751013517493713400,7.54971337890625,-0.051113251596689224,0.04512007534503937,0.07810784876346588
1751013517503657200,7.5596572265625,-0.04291044920682907,0.04589638486504555,0.07208351790904999
1751013517513600300,7.569600341796875,-0.03473294526338577,0.04212668165564537,0.054913584142923355
1751013517523544300,7.57954443359375,-0.016142217442393303,0.03826083615422249,0.03383839130401611
1751013517533487400,7.5894873046875,-0.002290584845468402,0.03864752873778343,0.010191118344664574
1751013517543430400,7.599430419921875,0.002017078222706914,0.03404398635029793,-0.0014037522487342358
1751013517553374500,7.60937451171875,0.0048799761570990086,0.033837057650089264,-0.008706938475370407
1751013517563317500,7.6193173828125,-0.0015081481542438269,0.024060862138867378,-0.009863283485174179
1751013517573260500,7.629260498046875,-0.004010720644146204,0.011664379388093948,-0.00794234499335289
1751013517583204600,7.63920458984375,-0.006976683158427477,-0.015840215608477592,-0.006999586243182421
1751013517593147400,7.6491474609375,-0.011407383717596531,-0.03411828726530075,-0.0028900622855871916
1751013517603090400,7.65909033203125,-0.01782320626080036,-0.04410727322101593,-0.002769953804090619
1751013517613034500,7.669034423828125,-0.017245832830667496,-0.05240115523338318,-0.0011411645682528615
1751013517622977500,7.6789775390625,-0.01882748305797577,-0.03170360252261162,0.006986270658671856
1751013517632921300,7.68892138671875,-0.0121879568323493,0.0016921724891290069,0.012414591386914253
1751013517642864400,7.698864501953125,-0.0027196200098842382,0.021613948047161102,0.020298613235354424
1751013517652807400,7.708807373046875,0.014392521232366562,0.029205288738012314,0.021464545279741287
1751013517662751500,7.71875146484375,0.020655211061239243,0.03098800964653492,0.023266972973942757
1751013517672694500,7.728694580078125,0.023326627910137177,0.026699520647525787,0.01950659044086933
1751013517682637600,7.738637451171875,0.026510169729590416,0.014399711973965168,0.017957428470253944
1751013517692581400,7.748581298828125,0.021495172753930092,-0.0014857775531709194,0.015689214691519737
1751013517702524400,7.7585244140625,0.02268427424132824,-0.011859589256346226,0.01465617399662733
1751013517712467500,7.768467529296875,0.01918993890285492,-0.014808506704866886,0.014643923379480839
1751013517722411500,7.77841162109375,0.017478326335549355,-0.012053467333316803,0.01679442636668682
1751013517732354300,7.788354248046875,0.015964319929480553,0.006037119776010513,0.023876303806900978
1751013517742298400,7.79829833984375,0.016595488414168358,0.01980486325919628,0.022644592449069023
1751013517752241400,7.808241455078125,0.013365340419113636,0.020067185163497925,0.017077786847949028
1751013517762184400,7.818184326171875,0.012546950951218605,0.013611416332423687,0.0033388049341738224
1751013517772128300,7.828128173828125,0.009266735054552555,0.0027361316606402397,-0.007543137297034264
1751013517782071300,7.8380712890625,0.00968831405043602,-0.0016639430541545153,-0.014957644045352936
1751013517792014300,7.848014404296875,0.009472064673900604,-0.0025920546613633633,-0.01834598369896412
1751013517801958400,7.85795849609375,0.012356534600257874,-0.007441671099513769,-0.021698636934161186
1751013517811901400,7.8679013671875,0.011894742958247662,-0.014795724302530289,-0.020294087007641792
1751013517821844200,7.87784423828125,0.015557654201984406,-0.03527649864554405,-0.01847727783024311
1751013517831788500,7.88778857421875,0.02178572304546833,-0.04580610245466232,-0.009398561902344227
1751013517841731300,7.8977314453125,0.029324598610401154,-0.0490540936589241,0.003746002446860075
1751013517851675400,7.90767529296875,0.04030401259660721,-0.042510174214839935,0.017169665545225143
1751013517861618400,7.917618408203125,0.04260498285293579,-0.04152800142765045,0.030522223562002182
1751013517871561500,7.9275615234375,0.04270138964056969,-0.05105040222406387,0.031620778143405914
1751013517881505500,7.937505615234375,0.038060832768678665,-0.06507141143083572,0.02936907485127449
1751013517891448600,7.947448486328125,0.026999926194548607,-0.08280779421329498,0.016044480726122856
1751013517901391600,7.9573916015625,0.010868626646697521,-0.09776650369167328,-0.0043473439291119576
1751013517911335400,7.96733544921875,-0.008344748988747597,-0.10695494711399078,-0.024162327870726585
1751013517921278500,7.977278564453125,-0.027278492227196693,-0.09697900712490082,-0.037816885858774185
1751013517931221500,7.987221435546875,-0.04326917603611946,-0.07672833651304245,-0.053698647767305374
1751013517941165600,7.99716552734375,-0.04117140546441078,-0.0547599196434021,-0.058388207107782364
1751013517951108400,8.0071083984375,-0.03423360362648964,-0.03687173128128052,-0.0625896081328392
1751013517961052400,8.017052490234375,-0.017555290833115578,-0.01643436774611473,-0.05899274721741676
1751013517970995500,8.026995361328124,-0.00472577940672636,0.0011486213188618422,-0.03987311199307442
1751013517980938500,8.0369384765625,-0.0031284152064472437,0.01258024014532566,-0.024450480937957764
1751013517990882300,8.04688232421875,-0.019710853695869446,0.00743181724101305,-0.012914200313389301
1751013518000825300,8.056825439453124,-0.042816706001758575,-0.014583736658096313,-0.010131463408470154
1751013518010768400,8.066768310546875,-0.06722963601350784,-0.036501020193099976,-0.011630822904407978
1751013518020712400,8.07671240234375,-0.09155149012804031,-0.05452343076467514,-0.01624901033937931
1751013518030655500,8.086655517578125,-0.0970999151468277,-0.06781340390443802,-0.030718497931957245
1751013518040598300,8.096598388671875,-0.09439734369516373,-0.07414426654577255,-0.0406707301735878
1751013518050542300,8.106542236328124,-0.08526349812746048,-0.061640992760658264,-0.05452316254377365
1751013518060485400,8.1164853515625,-0.06995005905628204,-0.0349033884704113,-0.06776653230190277
1751013518070429400,8.126429443359376,-0.05945560336112976,-0.0008186557097360492,-0.0744718387722969
1751013518080372200,8.136372314453125,-0.04723222553730011,0.024049410596489906,-0.0867636576294899
1751013518090315300,8.146315185546875,-0.03765443339943886,0.041619881987571716,-0.08057340234518051
1751013518100259600,8.156259521484374,-0.030730482190847397,0.05636367201805115,-0.06538832932710648
1751013518110202400,8.166202392578125,-0.025256088003516197,0.06552521139383316,-0.04643647372722626
1751013518120145400,8.1761455078125,-0.020727116614580154,0.06403837352991104,-0.031858596950769424
1751013518130089500,8.18608935546875,-0.021469073370099068,0.04982934147119522,-0.02502705529332161
1751013518140032500,8.196032470703125,-0.02407737262547016,0.03278111666440964,-0.02027224749326706
1751013518149975600,8.2059755859375,-0.029993318021297455,0.015412245877087116,-0.02767024375498295
1751013518159919600,8.215919677734375,-0.03407461196184158,-0.0011709919199347496,-0.04459383338689804
1751013518169862400,8.2258623046875,-0.03702859207987785,-0.01521996594965458,-0.06930024176836014
1751013518179806500,8.235806396484374,-0.035831499844789505,-0.021989988163113594,-0.09454328566789627
1751013518189749500,8.24574951171875,-0.029750438407063484,-0.012325908057391644,-0.10995126515626907
1751013518199692500,8.255692626953126,-0.020921260118484497,0.015616510063409805,-0.11568904668092728
1751013518209636400,8.26563623046875,-0.011018296703696251,0.0372520312666893,-0.11280564218759537
1751013518219579400,8.275579345703125,0.0016370450612157583,0.04715579375624657,-0.10158947110176086
1751013518229522400,8.2855224609375,0.009314938448369503,0.04917926341295242,-0.08694954216480255
1751013518239466500,8.295466552734375,0.014405304566025734,0.04108139127492905,-0.06125883013010025
1751013518249409500,8.305409423828126,0.022417157888412476,0.024450214579701424,-0.043537624180316925
1751013518259352300,8.315352294921874,0.022845661267638206,-0.006848584860563278,-0.02618393301963806
1751013518269296400,8.32529638671875,0.020796624943614006,-0.03230494260787964,-0.012269715778529644
1751013518279239400,8.335239501953126,0.01581544801592827,-0.03518382087349892,-0.008217183873057365
1751013518289183500,8.34518359375,0.013733388856053352,-0.029734725132584572,-0.005949501879513264
1751013518299126300,8.355126220703125,0.010668623261153698,-0.005917011294513941,-0.006000102031975985
1751013518309069300,8.3650693359375,0.010400176979601383,0.012895558960735798,-0.009373794309794903
1751013518319013400,8.375013427734375,0.014534467831254005,0.026822825893759727,-0.017195764929056168
1751013518328956400,8.384956298828126,0.007981494069099426,0.030545126646757126,-0.020973192527890205
1751013518338899500,8.3948994140625,0.01068140659481287,0.030536603182554245,-0.0268891379237175
1751013518348843300,8.40484326171875,0.003358778776600957,0.026822293177247047,-0.027453994378447533
1751013518358786300,8.414786376953124,-0.00216568261384964,0.021009411662817,-0.031069502234458923
1751013518368729300,8.424729248046875,-0.013547234237194061,0.017660219222307205,-0.026262231171131134
1751013518378673400,8.43467333984375,-0.021314609795808792,0.015358449891209602,-0.024686969816684723
1751013518388616400,8.444616455078124,-0.031683892011642456,0.013188506476581097,-0.026081401854753494
1751013518398560500,8.454560546875,-0.0315408818423748,0.0116188395768404,-0.020052270963788033
1751013518408503600,8.464503662109376,-0.028664400801062584,0.016401609405875206,-0.022730879485607147
1751013518418446600,8.474446533203125,-0.02576475217938423,0.021391574293375015,-0.021434186026453972
1751013518428390400,8.484390380859375,-0.01954786852002144,0.029332322999835014,-0.014878015965223312
1751013518438333400,8.49433349609375,-0.012505938299000263,0.03834312781691551,-0.006339654792100191
1751013518448276500,8.5042763671875,-0.010276073589920998,0.039203595370054245,0.0018048242200165987
1751013518458220500,8.514220458984376,-0.006201436743140221,0.03804884850978851,0.0037561224307864904
1751013518468163600,8.52416357421875,0.0007009439868852496,0.027709126472473145,0.0040765004232525826
1751013518478106600,8.534106689453125,-0.0004892227007076144,0.013292902149260044,-0.0014759238110855222
1751013518488050400,8.544050537109374,-0.003739078063517809,0.0031068436801433563,-0.00566986994817853
1751013518497993500,8.553993408203125,-0.0017584852175787091,0.008636098355054855,-0.009184709750115871
1751013518507937500,8.5639375,0.0027838023379445076,0.026810841634869576,-0.007005977910012007
1751013518517880300,8.57388037109375,0.00897032581269741,0.05306481570005417,-0.001142229768447578
1751013518527823400,8.5838232421875,0.01696939580142498,0.07575148344039917,0.0025800704024732113
1751013518537767400,8.593767333984376,0.019394736737012863,0.08517561107873917,0.0017297230660915375
1751013518547710500,8.60371044921875,0.012626312673091888,0.07152558118104935,0.0009960222523659468
1751013518557653500,8.613653564453125,0.004731105640530586,0.056105080991983414,0.004372377879917622
1751013518567597300,8.623597412109374,-0.007962585426867008,0.044193025678396225,0.008562062866985798
1751013518577540400,8.633540283203125,-0.0165408942848444,0.03057548590004444,0.022229937836527824
1751013518587483400,8.6434833984375,-0.019870111718773842,0.013116600923240185,0.028540031984448433
1751013518597427500,8.653427490234375,-0.017484450712800026,0.004942560568451881,0.029108084738254547
1751013518607370500,8.66337060546875,-0.007970042526721954,0.004781972151249647,0.023863520473241806
1751013518617314300,8.673314208984374,-0.00020532972121145576,0.009302421472966671,0.013086240738630295
1751013518627257300,8.68325732421875,0.010576744563877583,0.020971061661839485,-0.0034461303148418665
1751013518637200400,8.693200439453125,0.00697774812579155,0.038065094500780106,-0.016113722696900368
1751013518647144200,8.703144287109374,0.004295945167541504,0.05041177570819855,-0.03465384989976883
1751013518657087200,8.713087158203125,-0.0015784555580466986,0.05102749913930893,-0.04844183474779129
1751013518667030300,8.7230302734375,-0.0037207023706287146,0.03821635991334915,-0.054541803896427155
1751013518676974600,8.732974609375,-0.004496214911341667,0.017103353515267372,-0.0598209910094738
1751013518686917600,8.742917724609375,0.002691923175007105,0.0016695356462150812,-0.05212631821632385
1751013518696860400,8.7528603515625,0.008461661636829376,0.0005928196478635073,-0.035232555121183395
1751013518706804500,8.762804443359375,0.009966880083084106,0.010187123902142048,-0.025289643555879593
1751013518716747500,8.77274755859375,0.008075237274169922,0.02141501009464264,-0.022110361605882645
1751013518726691600,8.782691650390625,0.002828276949003339,0.026224413886666298,-0.023735955357551575
1751013518736634400,8.79263427734375,-0.0029739518649876118,0.030480144545435905,-0.03453374281525612
1751013518746577400,8.802577392578126,-0.009879794903099537,0.0162974800914526,-0.05031323805451393
1751013518756521500,8.812521484375,-0.01040603592991829,0.004267981741577387,-0.06028038263320923
1751013518766464500,8.822464599609376,-0.006440588738769293,0.0002764361270237714,-0.07013807445764542
1751013518776407600,8.832407470703124,-0.0010879012988880277,0.0041489386931061745,-0.0737256184220314
1751013518786351400,8.842351318359375,-0.002769953804090619,0.006946589332073927,-0.07034207135438919
1751013518796294400,8.85229443359375,-0.006627542432397604,0.008982576429843903,-0.06921901553869247
1751013518806237400,8.862237548828125,-0.009221994318068027,0.012327239848673344,-0.06461600959300995
1751013518816181500,8.872181396484375,-0.007066431455314159,-0.0022567627020180225,-0.06292516738176346
1751013518826124500,8.88212451171875,-0.0028533106669783592,-0.018793927505612373,-0.06339068710803986
1751013518836068400,8.892068359375,0.0028423918411135674,-0.040591366589069366,-0.06195817515254021
1751013518846011400,8.902011474609376,0.01191231980919838,-0.0670168474316597,-0.058089401572942734
1751013518855954400,8.911954345703125,0.013705692254006863,-0.07503323256969452,-0.055023837834596634
1751013518865898500,8.9218984375,0.014361628331243992,-0.04891933873295784,-0.03766854852437973
1751013518875841300,8.93184130859375,0.013011139817535877,-0.001967010786756873,-0.014915299601852894
1751013518885784300,8.941784423828125,0.009309612214565277,0.02484835870563984,0.0002817624481394887
1751013518895728400,8.951728271484376,0.004621649626642466,0.03899133950471878,0.009817477315664291
1751013518905671400,8.96167138671875,0.008681905455887318,0.034627750515937805,0.013227388262748718
1751013518915614500,8.971614501953125,0.009353553876280785,0.030664967373013496,0.005880525801330805
1751013518925558300,8.981558349609376,0.014548849314451218,0.020498616620898247,0.002828543307259679
1751013518935501300,8.991501220703125,0.021348698064684868,0.011258780024945736,0.003952397499233484
1751013518945445600,9.001445556640626,0.03376542031764984,0.012747220695018768,0.008670720271766186
1751013518955388700,9.011388671875,0.038484275341033936,0.019418438896536827,0.02129889652132988
1751013518965331200,9.021331298828125,0.03994422033429146,0.02123657986521721,0.030536336824297905
1751013518975275500,9.031275634765626,0.03971359133720398,0.01618802547454834,0.04602448269724846
1751013518985218600,9.041218505859375,0.032815735787153244,0.00691942498087883,0.06312090903520584
1751013518995161600,9.05116162109375,0.02442757785320282,-0.0033127060160040855,0.06895829737186432
1751013519005105400,9.06110546875,0.02323528192937374,-0.007231014780700207,0.07112930715084076
1751013519015048400,9.07104833984375,0.027440145611763,-0.0034581145737320185,0.06136056408286095
1751013519024991500,9.080991455078125,0.027515513822436333,0.011742143891751766,0.04291258007287979
1751013519034935600,9.090935546875,0.023733824491500854,0.020302342250943184,0.024958079680800438
1751013519044878600,9.100878662109375,0.024570323526859283,0.023489346727728844,0.0002170476218452677
1751013519054822400,9.110822509765624,0.02821991965174675,0.030481476336717606,-0.013918745331466198
1751013519064765400,9.120765380859375,0.02605876512825489,0.02845853939652443,-0.0309323500841856
1751013519074708500,9.13070849609375,0.020725518465042114,0.015213574282824993,-0.0361204519867897
1751013519084652500,9.140652587890624,0.02208000235259533,0.005706089083105326,-0.034742534160614014
1751013519094595300,9.15059521484375,0.019466642290353775,-0.0015675366157665849,-0.027948543429374695
1751013519104538400,9.160538330078126,0.015103318728506565,0.0014780544443055987,-0.0037417414132505655
1751013519114482400,9.170482421875,0.006433397997170687,0.02107039839029312,0.02533678151667118
1751013519124425500,9.180425537109375,0.006902114488184452,0.036315664649009705,0.053216882050037384
1751013519134368500,9.190368408203126,0.001829591696150601,0.03819345682859421,0.06878519058227539
1751013519144312300,9.200312255859375,0.006229666527360678,0.02058650180697441,0.07227525860071182
1751013519154255400,9.21025537109375,0.015350726433098316,0.007305583450943232,0.06815934926271439
1751013519164199400,9.220199462890625,0.03563389554619789,-0.0033156354911625385,0.05752640962600708
1751013519174142500,9.230142578125,0.05488535389304161,-0.005281048361212015,0.04125875607132912
1751013519184085200,9.240085205078126,0.06695026904344559,-0.0041220407001674175,0.015922240912914276
1751013519194029300,9.250029296875,0.06574971973896027,-0.008008391596376896,-0.014448714442551136
1751013519203972400,9.259972412109375,0.05578070878982544,-0.004831773228943348,-0.034148916602134705
1751013519213915400,9.269915283203124,0.046128880232572556,0.006133792456239462,-0.04698321968317032
1751013519223859200,9.279859130859375,0.03086523711681366,0.008898686617612839,-0.04639146849513054
1751013519233802200,9.28980224609375,0.017733190208673477,0.009676596149802208,-0.037466682493686676
1751013519243745300,9.299745361328124,0.015748603269457817,-0.0038107172586023808,-0.02520468831062317
1751013519253689600,9.309689697265625,0.015956329181790352,-0.014867628924548626,-0.013524863868951797
1751013519263632600,9.319632568359374,0.01805649884045124,-0.02238067239522934,-0.005077849142253399
1751013519273576400,9.329576416015625,0.01673397235572338,-0.025238776579499245,-0.006609166972339153
1751013519283519500,9.33951953125,0.020780911669135094,-0.03244422748684883,-0.012235361151397228
1751013519293462500,9.349462646484374,0.015904132276773453,-0.04332403838634491,-0.030234867706894875
1751013519303406600,9.359406494140625,0.005440305452793837,-0.060505952686071396,-0.06366073340177536
1751013519313349400,9.369349365234376,-0.007949802093207836,-0.06187668442726135,-0.10039025545120239
1751013519323292400,9.37929248046875,-0.020499149337410927,-0.037996649742126465,-0.13578340411186218
1751013519333236500,9.389236572265625,-0.026705646887421608,-0.003946538548916578,-0.1662483662366867
1751013519343179500,9.399179443359374,-0.03062289021909237,0.022467225790023804,-0.18447476625442505
1751013519353122600,9.40912255859375,-0.021690648049116135,0.037164945155382156,-0.18345211446285248
1751013519363066400,9.41906640625,-0.003978762775659561,0.03297446295619011,-0.15337996184825897
1751013519373009400,9.429009521484375,0.010574347339570522,0.023301327601075172,-0.11235956102609634
1751013519382953500,9.438953369140625,0.02014894410967827,0.008284294977784157,-0.06788104772567749
1751013519392896500,9.448896484375,0.02219558320939541,-0.01008059736341238,-0.032518528401851654
1751013519402839300,9.45883935546875,0.01979181356728077,-0.011022823862731457,-0.014336595311760902
1751013519412783400,9.468783447265626,0.008078699000179768,-0.004479969386011362,-0.018387796357274055
1751013519422726400,9.478726318359374,-0.00004740426811622456,0.002986468840390444,-0.040340498089790344
1751013519432670000,9.488669921875,-0.009734652936458588,0.01329902745783329,-0.0688248723745346
1751013519442613800,9.49861376953125,-0.0101991081610322,0.03333904966711998,-0.09252913296222687
1751013519452556800,9.508556884765625,-0.0019140138756483793,0.05836397409439087,-0.10337938368320465
1751013519462499800,9.518499755859375,0.0014394385507330298,0.10389337688684464,-0.09232034534215927
1751013519472444000,9.52844384765625,0.012507535517215729,0.12344177812337875,-0.07034100592136383
1751013519482387000,9.538386962890625,0.021501297131180763,0.09699472039937973,-0.04006725922226906
1751013519492331000,9.5483310546875,0.023068035021424294,0.054964181035757065,-0.002811765531077981
1751013519502274000,9.558274169921875,0.00827843602746725,0.02148105762898922,0.03207724168896675
1751013519512217000,9.568217041015625,-0.002889529801905155,0.005590774118900299,0.05428827181458473
1751013519522161000,9.578160888671874,-0.005963616538792849,0.0015488944482058287,0.05721135810017586
1751013519532104000,9.58810400390625,-0.0007464840309694409,0.005002748221158981,0.03881237655878067
1751013519542047000,9.598046875,0.005841377656906843,0.00640756543725729,0.005786782596260309
1751013519551991000,9.607990966796875,0.012607404962182045,-0.0004010720585938543,-0.032050877809524536
1751013519561934000,9.61793408203125,0.01770070008933544,0.009404687210917473,-0.05837941914796829
1751013519571877000,9.627877197265626,0.02714187279343605,0.028302211314439774,-0.06827359646558762
1751013519581821000,9.637821044921875,0.0288753230124712,0.04521381855010986,-0.05736102908849716
1751013519591764000,9.647763916015625,0.03039066307246685,0.053820088505744934,-0.033186182379722595
1751013519601708000,9.6577080078125,0.026861442252993584,0.049846917390823364,0.0032495891209691763
1751013519611650800,9.66765087890625,0.02768036350607872,0.036615002900362015,0.03605973348021507
1751013519621593900,9.67759375,0.03165912628173828,0.020547885447740555,0.05708299204707146
1751013519631538000,9.687537841796875,0.03568662330508232,0.0002713761059567332,0.0652671530842781
1751013519641481000,9.69748095703125,0.03729943558573723,-0.015413844026625156,0.060145895928144455
1751013519651424000,9.707424072265624,0.041016142815351486,-0.015250857919454575,0.03840278089046478
1751013519661367800,9.717367919921875,0.038177479058504105,-0.013332849368453026,0.017885789275169373
1751013519671310800,9.727310791015626,0.042100049555301666,0.00138031633105129,-0.0029017801862210035
1751013519681254000,9.73725390625,0.037889592349529266,0.018087923526763916,-0.015391472727060318
1751013519691198000,9.747197998046875,0.03465171903371811,0.028070250526070595,-0.02676982805132866
1751013519701141000,9.75714111328125,0.03093261644244194,0.029625004157423973,-0.03338911384344101
1751013519711084800,9.767084716796875,0.02767636813223362,0.02534051053225994,-0.027038009837269783
1751013519721027800,9.77702783203125,0.026574352756142616,0.0232898760586977,-0.025425732135772705
1751013519730971000,9.786970947265624,0.028717398643493652,0.010642523877322674,-0.01381115335971117
1751013519740915000,9.7969150390625,0.030042586848139763,0.00595429539680481,0.00016937704640440643
1751013519750857700,9.806857666015626,0.032166723161935806,0.01456056721508503,0.020925521850585938
1751013519760800800,9.81680078125,0.041255027055740356,0.0246648658066988,0.03717053681612015
1751013519770745000,9.8267451171875,0.04268408194184303,0.0378645583987236,0.05007781460881233
1751013519780688000,9.83668798828125,0.04236423596739769,0.044507015496492386,0.05224855616688728
1751013519790631000,9.846630859375,0.0326082780957222,0.054254449903964996,0.04571502283215523
1751013519800575000,9.856574951171876,0.018008828163146973,0.06500802934169769,0.033907897770404816
1751013519810518000,9.86651806640625,0.014885205775499344,0.06924724578857422,0.012532569468021393
1751013519820462000,9.876462158203125,0.026022279635071754,0.06517767161130905,-0.00884755328297615
1751013519830405000,9.886405029296874,0.03873514384031296,0.05166718736290932,-0.025668345391750336
1751013519840348000,9.896347900390625,0.05125546455383301,0.039686426520347595,-0.03512576222419739
1751013519850292000,9.9062919921875,0.0583685003221035,0.032469794154167175,-0.03208203613758087
1751013519860235000,9.916235107421874,0.05488269031047821,0.03506051376461983,-0.022423284128308296
1751013519870178000,9.926177978515625,0.04506175220012665,0.027298199012875557,-0.016517458483576775
1751013519880121900,9.936121826171876,0.030974160879850388,0.016980314627289772,-0.016805877909064293
1751013519890065000,9.94606494140625,0.018329473212361336,-0.005024053156375885,-0.019937222823500633
1751013519900008000,9.956008056640625,0.006077866069972515,-0.02328774519264698,-0.02545369416475296
1751013519909952000,9.965951904296874,-0.0025592977181077003,-0.024691764265298843,-0.02430294267833233
1751013519919895000,9.97589501953125,-0.004042412154376507,-0.005149754695594311,-0.02058517001569271
1751013519929838800,9.9858388671875,0.002956907730549574,0.03327220305800438,-0.019693011417984962
1751013519939782000,9.995781982421875,0.010544253513216972,0.05850166082382202,-0.01991858147084713
1751013519949725000,10.005724853515625,0.02340785413980484,0.06799769401550293,-0.016648750752210617
1751013519959669000,10.0156689453125,0.035895414650440216,0.0701652392745018,-0.015835687518119812
1751013519969611800,10.02561181640625,0.0401516817510128,0.06744455546140671,-0.014022608287632465
1751013519979554800,10.035554931640625,0.03951651602983475,0.05717407166957855,-0.015720639377832413
1751013519989499000,10.045498779296874,0.03326341509819031,0.03452841565012932,-0.014710236340761185
1751013519999442000,10.05544189453125,0.021936990320682526,0.012867062352597713,-0.0073383403941988945
1751013520009385000,10.065385009765626,0.008438492193818092,-0.0065564364194869995,-0.0009528790251351893
1751013520019328800,10.075328857421875,-0.004745220299810171,-0.01876836083829403,0.00956873781979084
1751013520029271800,10.085271728515625,-0.00944916158914566,-0.016355004161596298,0.023261645808815956
1751013520039216000,10.095216064453124,-0.0031734227668493986,-0.010006827302277088,0.028311265632510185
1751013520049159000,10.105158935546875,0.00509995361790061,-0.0016463662032037973,0.029442843049764633
1751013520059101700,10.115101806640626,0.01181964110583067,0.0027108315844088793,0.02299506403505802
1751013520069046000,10.1250458984375,0.017652230337262154,0.006080795545130968,0.01341887004673481
1751013520078989000,10.134989013671875,0.01775635965168476,0.004544684197753668,0.005981992464512587
1751013520088932000,10.14493212890625,0.01429478358477354,-0.0014183996245265007,-0.003287405939772725
1751013520098876000,10.1548759765625,0.010998322628438473,0.005574528593569994,-0.007081611547619104
1751013520108819000,10.16481884765625,0.00714792450889945,0.013255883939564228,-0.012052668258547783
1751013520118762000,10.174761962890624,0.0012772521004080772,0.021462148055434227,-0.020064521580934525
1751013520128706000,10.1847060546875,-0.003085538512095809,0.029756831005215645,-0.024747956544160843
1751013520138649000,10.194649169921876,-0.00854501873254776,0.033914823085069656,-0.029763221740722656
1751013520148593000,10.204593017578125,-0.016712667420506477,0.03160613030195236,-0.030405575409531593
1751013520158536000,10.214535888671875,-0.01798645779490471,0.021708490327000618,-0.03611699119210243
1751013520168479000,10.22447900390625,-0.02474023401737213,0.018987007439136505,-0.03261147439479828
1751013520178423000,10.234423095703125,-0.024401746690273285,0.01876756176352501,-0.027090206742286682
1751013520188365800,10.24436572265625,-0.01823865808546543,0.018067684024572372,-0.016416257247328758
1751013520198308900,10.254308837890624,-0.012938168831169605,0.017496967688202858,-0.007123423274606466
1751013520208253000,10.2642529296875,-0.007465373259037733,0.006657902617007494,-0.0043502734042704105
1751013520218196000,10.274196044921876,0.003695135936141014,-0.005723665934056044,0.0005696501466445625
1751013520228139000,10.284138916015625,0.014074539765715599,-0.015535550191998482,0.00006950850365683436
1751013520238082800,10.294082763671875,0.02112152986228466,-0.03254089877009392,-0.0008364989189431071
1751013520248025900,10.30402587890625,0.01859658770263195,-0.03801342844963074,-0.008358864113688469
1751013520257970000,10.313969970703125,-0.00023089606838766485,-0.02352370135486126,-0.012031895108520985
1751013520267913000,10.323912841796876,-0.01486683078110218,0.0008559399866499007,-0.012471583671867847
1751013520277856000,10.33385595703125,-0.02617834135890007,0.01925225742161274,-0.013863883912563324
1751013520287799800,10.3437998046875,-0.01617683842778206,0.031007183715701103,-0.01465697307139635
1751013520297742800,10.353742919921874,-0.001169394003227353,0.03465065360069275,-0.013521667569875717
1751013520307686000,10.363685791015625,0.013289706781506538,0.032104939222335815,-0.005046956706792116
1751013520317629700,10.373629638671876,0.02954883687198162,0.02616795524954796,0.0006173207075335085
1751013520327572700,10.38357275390625,0.03525492548942566,0.018628811463713646,0.004857872147113085
1751013520337515800,10.393515869140625,0.03144793584942818,0.009702428244054317,0.005221926141530275
1751013520347460000,10.403460205078124,0.023015303537249565,0.008390821516513824,0.00791491474956274
1751013520357403100,10.413403076171875,0.011356251314282417,0.012447082437574863,0.007589742541313171
1751013520367347000,10.423346923828126,0.008524778299033642,0.02141554281115532,0.018393388018012047
1751013520377290000,10.4332900390625,0.005367867648601532,0.021440044045448303,0.01531663816422224
1751013520387233000,10.44323291015625,0.014494520612061024,0.012029232457280159,0.013832191936671734
1751013520397177000,10.453177001953126,0.02455168217420578,0.003543335711583495,0.007802795618772507
1751013520407120000,10.463119873046875,0.0291802566498518,-0.001181378262117505,0.0015704660909250379
1751013520417063000,10.47306298828125,0.021460816264152527,0.004363323096185923,0.0006780407857149839
1751013520427007500,10.483007568359374,0.011375692673027515,0.010102168656885624,0.000474575295811519
1751013520436950500,10.492950439453125,-0.008305600844323635,0.013199958018958569,0.003712979145348072
1751013520446893600,10.5028935546875,-0.010467820800840855,0.01667378470301628,0.0035273567773401737
1751013520456837600,10.512837646484375,-0.0049135321751236916,0.021341774612665176,0.00004953479583491571
1751013520466780700,10.52278076171875,0.0033715618774294853,0.029291309416294098,-0.014330203644931316
1751013520476724700,10.532724853515624,0.009888849221169949,0.0563863106071949,-0.028657477349042892
1751013520486667500,10.54266748046875,0.0020042951218783855,0.09596115350723267,-0.041856635361909866
1751013520496610600,10.552610595703126,-0.014879613183438778,0.1330062597990036,-0.05844387039542198
1751013520506554600,10.5625546875,-0.03519820049405098,0.14278139173984528,-0.05969049409031868
1751013520516497700,10.57249755859375,-0.08111855387687683,0.20278400182724,-0.10970199853181839
1751013520526440700,10.582440673828126,-0.1472991704940796,0.2410203367471695,-0.16631600260734558
1751013520536384500,10.592384521484375,-0.15596748888492584,0.3148817718029022,-0.20076186954975128
1751013520546327600,10.60232763671875,-0.1282823383808136,0.43870943784713745,-0.10407286882400513
1751013520556270600,10.6122705078125,-0.10893234610557556,0.3340908885002136,-0.04001239687204361
1751013520566214700,10.622214599609375,-0.07321642339229584,0.13978932797908783,0.023375097662210464
1751013520576157700,10.63215771484375,-0.018494589254260063,-0.0270683690905571,0.09095493704080582
1751013520586101500,10.6421015625,0.011738148517906666,-0.12472701817750931,0.1550700068473816
1751013520596044500,10.65204443359375,0.0264824740588665,-0.14423547685146332,0.17243941128253937
1751013520605987600,10.661987548828124,0.03684030473232269,-0.10960425436496735,0.12158608436584473
1751013520615931400,10.671931396484375,0.04412884637713432,-0.019457587972283363,0.021028053015470505
1751013520625874400,10.68187451171875,0.032635971903800964,0.07557544857263565,-0.08220645785331726
1751013520635817500,10.6918173828125,0.022242454811930656,0.15720640122890472,-0.15505748987197876
