time,seconds_elapsed,z,y,x
1751013379845143800,0.331143798828125,-1.0032196044921875,-0.1875,0.0549468994140625
1751013379855086800,0.3410869140625,-1.0070037841796875,-0.1889801025390625,0.056427001953125
1751013379865030000,0.35102978515625,-1.005828857421875,-0.191497802734375,0.055816650390625
1751013379874973000,0.360972900390625,-1.006256103515625,-0.190093994140625,0.0573272705078125
1751013379884915700,0.370915771484375,-1.002532958984375,-0.189971923828125,0.0549468994140625
1751013379894858000,0.38085791015625,-0.99609375,-0.188934326171875,0.0520782470703125
1751013379904800800,0.39080078125,-0.998138427734375,-0.18731689453125,0.0528106689453125
1751013379914743800,0.400743896484375,-0.9986419677734375,-0.18878173828125,0.052703857421875
1751013379924686800,0.410686767578125,-1.00054931640625,-0.1912994384765625,0.049530029296875
1751013379934630000,0.4206298828125,-1.007568359375,-0.19183349609375,0.0486297607421875
1751013379944573000,0.430572998046875,-1.0061187744140625,-0.192901611328125,0.04693603515625
1751013379954516000,0.440515869140625,-0.9952850341796875,-0.1958160400390625,0.041961669921875
1751013379964459000,0.450458984375,-0.9909210205078125,-0.197784423828125,0.037139892578125
1751013379974402000,0.460402099609375,-0.9904937744140625,-0.198516845703125,0.034332275390625
1751013379984344800,0.4703447265625,-0.988555908203125,-0.1984405517578125,0.03363037109375
1751013379994287900,0.480287841796875,-0.9895172119140625,-0.1986236572265625,0.0325775146484375
1751013380004231000,0.49023095703125,-0.991302490234375,-0.197418212890625,0.0319061279296875
1751013380014174000,0.500174072265625,-0.9927978515625,-0.1957244873046875,0.0319366455078125
1751013380024116700,0.51011669921875,-0.988189697265625,-0.196380615234375,0.0315399169921875
1751013380034059800,0.520059814453125,-0.98394775390625,-0.1963958740234375,0.0289154052734375
1751013380044001800,0.530001708984375,-0.9893798828125,-0.19586181640625,0.0275421142578125
1751013380053944800,0.53994482421875,-1.0015411376953125,-0.1937255859375,0.0292205810546875
1751013380063888000,0.549887939453125,-1.006866455078125,-0.1902313232421875,0.0289154052734375
1751013380073831000,0.559830810546875,-1.0049591064453125,-0.1893768310546875,0.0273590087890625
1751013380083774000,0.56977392578125,-1.0004730224609375,-0.1887664794921875,0.0269927978515625
1751013380093716700,0.579716796875,-0.9973907470703125,-0.1902008056640625,0.029876708984375
1751013380103659800,0.58965966796875,-0.9989013671875,-0.19189453125,0.03314208984375
1751013380113602800,0.599602783203125,-0.995147705078125,-0.19244384765625,0.0368499755859375
1751013380123545900,0.6095458984375,-0.9871826171875,-0.1972808837890625,0.03570556640625
1751013380133489000,0.619489013671875,-0.98248291015625,-0.2006378173828125,0.0347442626953125
1751013380143432000,0.629431884765625,-0.98663330078125,-0.201019287109375,0.0355987548828125
1751013380153375000,0.639375,-0.9910736083984375,-0.20123291015625,0.0387725830078125
1751013380163318000,0.649318115234375,-0.9909820556640625,-0.203094482421875,0.0430450439453125
1751013380173260800,0.6592607421875,-0.990325927734375,-0.206817626953125,0.0426483154296875
1751013380183203800,0.669203857421875,-0.9900054931640625,-0.2125091552734375,0.0394439697265625
1751013380193146000,0.67914599609375,-0.99365234375,-0.215057373046875,0.0379791259765625
1751013380203088600,0.689088623046875,-0.99957275390625,-0.2126007080078125,0.0453033447265625
1751013380213031700,0.69903173828125,-0.9962005615234375,-0.2077178955078125,0.04913330078125
1751013380222974700,0.708974609375,-0.984954833984375,-0.207611083984375,0.0451812744140625
1751013380232917800,0.718917724609375,-0.98101806640625,-0.207611083984375,0.0441741943359375
1751013380242860800,0.72886083984375,-0.9821929931640625,-0.2064971923828125,0.0424957275390625
1751013380252803800,0.738803955078125,-0.985870361328125,-0.2055206298828125,0.0408782958984375
1751013380262747000,0.748746826171875,-0.9902496337890625,-0.205963134765625,0.042236328125
1751013380272690000,0.75868994140625,-0.996795654296875,-0.204437255859375,0.0419921875
1751013380282632700,0.7686328125,-0.99945068359375,-0.205230712890625,0.040313720703125
1751013380292575200,0.7785751953125,-0.997802734375,-0.2069091796875,0.0389556884765625
1751013380302518300,0.788518310546875,-0.99755859375,-0.2112274169921875,0.0359954833984375
1751013380312461300,0.79846142578125,-0.9971466064453125,-0.21417236328125,0.036834716796875
1751013380322404400,0.808404296875,-0.997406005859375,-0.2136688232421875,0.03814697265625
1751013380332347400,0.818347412109375,-0.99560546875,-0.212982177734375,0.039703369140625
1751013380342290400,0.82829052734375,-0.990875244140625,-0.214141845703125,0.04180908203125
1751013380352232200,0.838232177734375,-0.983184814453125,-0.2154388427734375,0.042144775390625
1751013380362175200,0.84817529296875,-0.982666015625,-0.2162017822265625,0.044342041015625
1751013380372118300,0.8581181640625,-0.9848785400390625,-0.216156005859375,0.0454559326171875
1751013380382061300,0.868061279296875,-0.9840240478515625,-0.2139434814453125,0.0455322265625
1751013380392004400,0.87800439453125,-0.98101806640625,-0.2144775390625,0.0426483154296875
1751013380401947100,0.887947021484375,-0.979949951171875,-0.215606689453125,0.03955078125
1751013380411890200,0.89789013671875,-0.9832000732421875,-0.21588134765625,0.0389556884765625
1751013380421833200,0.907833251953125,-0.981475830078125,-0.2160186767578125,0.039398193359375
1751013380431776300,0.9177763671875,-0.98162841796875,-0.2147674560546875,0.0394439697265625
1751013380441719300,0.92771923828125,-0.984161376953125,-0.2136077880859375,0.0410003662109375
1751013380451662300,0.937662353515625,-0.9857177734375,-0.212554931640625,0.0413360595703125
1751013380461605400,0.94760546875,-0.9873809814453125,-0.211669921875,0.04119873046875
1751013380471548400,0.95754833984375,-0.9864349365234375,-0.2138519287109375,0.039703369140625
1751013380481491200,0.9674912109375,-0.98602294921875,-0.2147979736328125,0.0364532470703125
1751013380491434200,0.977434326171875,-0.9884033203125,-0.2141265869140625,0.0363311767578125
1751013380501377300,0.987377197265625,-0.9860687255859375,-0.215545654296875,0.036468505859375
1751013380511319300,0.9973193359375,-0.9834442138671875,-0.2166290283203125,0.0368194580078125
1751013380521262300,1.007262451171875,-0.983734130859375,-0.21929931640625,0.0361785888671875
1751013380531205000,1.017205078125,-0.984405517578125,-0.221038818359375,0.0392303466796875
1751013380541148200,1.027148193359375,-0.9857635498046875,-0.2204742431640625,0.043060302734375
1751013380551091200,1.03709130859375,-0.99005126953125,-0.219024658203125,0.045257568359375
1751013380561034200,1.0470341796875,-0.99102783203125,-0.21868896484375,0.042694091796875
1751013380570977300,1.056977294921875,-0.98895263671875,-0.2206573486328125,0.039215087890625
1751013380580920300,1.06692041015625,-0.9894256591796875,-0.220306396484375,0.0376434326171875
1751013380590863000,1.076863037109375,-0.9909210205078125,-0.219268798828125,0.0394134521484375
1751013380600806100,1.08680615234375,-0.992584228515625,-0.21807861328125,0.0416717529296875
1751013380610749200,1.096749267578125,-0.9944000244140625,-0.2178192138671875,0.04443359375
1751013380620692200,1.106692138671875,-0.9974365234375,-0.21783447265625,0.0468597412109375
1751013380630635300,1.11663525390625,-0.9954833984375,-0.217376708984375,0.046966552734375
1751013380640578300,1.126578369140625,-0.992218017578125,-0.2173309326171875,0.043792724609375
1751013380650521300,1.136521240234375,-0.9890289306640625,-0.2177734375,0.0442047119140625
1751013380660464400,1.14646435546875,-0.989593505859375,-0.2165069580078125,0.0473175048828125
1751013380670406400,1.156406494140625,-0.989593505859375,-0.21575927734375,0.0453338623046875
1751013380680349400,1.166349365234375,-0.9837188720703125,-0.216033935546875,0.041412353515625
1751013380690292500,1.17629248046875,-0.981903076171875,-0.216796875,0.03668212890625
1751013380700235300,1.1862353515625,-0.9822845458984375,-0.2187652587890625,0.0367431640625
1751013380710178300,1.19617822265625,-0.9825439453125,-0.2193603515625,0.0393218994140625
1751013380720121300,1.206121337890625,-0.9803466796875,-0.2188568115234375,0.039886474609375
1751013380730064400,1.216064453125,-0.981353759765625,-0.21844482421875,0.039459228515625
1751013380740007400,1.22600732421875,-0.982208251953125,-0.2160491943359375,0.04034423828125
1751013380749950200,1.2359501953125,-0.9841156005859375,-0.2134552001953125,0.0439910888671875
1751013380759893200,1.245893310546875,-0.985321044921875,-0.2126617431640625,0.0465087890625
1751013380769836300,1.255836181640625,-0.9893646240234375,-0.21319580078125,0.0443572998046875
1751013380779779000,1.265779052734375,-0.9884185791015625,-0.2142333984375,0.04150390625
1751013380789722000,1.27572216796875,-0.98370361328125,-0.215728759765625,0.039703369140625
1751013380799665200,1.2856650390625,-0.9805145263671875,-0.21697998046875,0.038848876953125
1751013380809608200,1.295608154296875,-0.98260498046875,-0.216552734375,0.0395660400390625
1751013380819551200,1.30555126953125,-0.9891510009765625,-0.215606689453125,0.0421600341796875
1751013380829494300,1.315494384765625,-0.9936981201171875,-0.2174835205078125,0.04583740234375
1751013380839436300,1.325436279296875,-0.9932403564453125,-0.2163848876953125,0.0461883544921875
1751013380849379300,1.33537939453125,-0.9932861328125,-0.2162322998046875,0.04498291015625
1751013380859322400,1.345322265625,-0.9946441650390625,-0.2161407470703125,0.044586181640625
1751013380869265400,1.355265380859375,-0.9930572509765625,-0.2161865234375,0.04412841796875
1751013380879208400,1.36520849609375,-0.990509033203125,-0.216400146484375,0.04315185546875
1751013380889151200,1.375151123046875,-0.9910888671875,-0.2158355712890625,0.041107177734375
1751013380899094300,1.38509423828125,-0.99224853515625,-0.2165679931640625,0.040618896484375
1751013380909037300,1.395037353515625,-0.992950439453125,-0.217437744140625,0.040679931640625
1751013380918980400,1.40498046875,-0.99456787109375,-0.2172088623046875,0.039581298828125
1751013380928923400,1.41492333984375,-0.99664306640625,-0.21649169921875,0.0428009033203125
1751013380938866400,1.424866455078125,-0.9964599609375,-0.21832275390625,0.042572021484375
1751013380948809500,1.4348095703125,-0.9946746826171875,-0.216552734375,0.0439605712890625
1751013380958752500,1.44475244140625,-0.9942169189453125,-0.2132568359375,0.045623779296875
1751013380968695300,1.4546953125,-0.99310302734375,-0.212066650390625,0.0448150634765625
1751013380978638000,1.46463818359375,-0.9922332763671875,-0.2122650146484375,0.0425262451171875
1751013380988581000,1.4745810546875,-0.9895477294921875,-0.210601806640625,0.0402069091796875
1751013380998524200,1.484524169921875,-0.9874725341796875,-0.20977783203125,0.04022216796875
1751013381008467200,1.49446728515625,-0.9847564697265625,-0.209869384765625,0.0409393310546875
1751013381018409200,1.5044091796875,-0.984893798828125,-0.2114410400390625,0.0395660400390625
1751013381028352300,1.514352294921875,-0.98675537109375,-0.212432861328125,0.0388641357421875
1751013381038295300,1.52429541015625,-0.988189697265625,-0.212615966796875,0.040985107421875
1751013381048238300,1.53423828125,-0.9878082275390625,-0.21307373046875,0.042816162109375
1751013381058181400,1.544181396484375,-0.9900665283203125,-0.2123870849609375,0.045928955078125
1751013381068124400,1.55412451171875,-0.990386962890625,-0.212890625,0.0449676513671875
1751013381078067200,1.564067138671875,-0.984710693359375,-0.214508056640625,0.0410614013671875
1751013381088010200,1.57401025390625,-0.9813079833984375,-0.2161407470703125,0.0390777587890625
1751013381097953300,1.583953369140625,-0.983673095703125,-0.2156982421875,0.0398101806640625
1751013381107896300,1.593896240234375,-0.984466552734375,-0.216827392578125,0.04071044921875
1751013381117839400,1.60383935546875,-0.984832763671875,-0.2183074951171875,0.040283203125
1751013381127782400,1.613782470703125,-0.9902191162109375,-0.21832275390625,0.0423583984375
1751013381137725400,1.623725341796875,-0.9928741455078125,-0.2168426513671875,0.0468902587890625
1751013381147668500,1.63366845703125,-0.993408203125,-0.214019775390625,0.0478973388671875
1751013381157611300,1.643611328125,-0.9944610595703125,-0.2118377685546875,0.04473876953125
1751013381167554300,1.65355419921875,-0.99749755859375,-0.2120208740234375,0.0421295166015625
1751013381177497300,1.663497314453125,-0.998443603515625,-0.213043212890625,0.0396881103515625
1751013381187440400,1.6734404296875,-0.9994049072265625,-0.2114715576171875,0.03729248046875
1751013381197382100,1.683382080078125,-0.998992919921875,-0.211334228515625,0.0367431640625
1751013381207325200,1.6933251953125,-0.997314453125,-0.2135162353515625,0.038848876953125
1751013381217268200,1.703268310546875,-0.9923095703125,-0.216033935546875,0.039093017578125
1751013381227211300,1.713211181640625,-0.989990234375,-0.2175445556640625,0.0395660400390625
1751013381237154300,1.723154296875,-0.990966796875,-0.218414306640625,0.037994384765625
1751013381247097300,1.733097412109375,-0.989288330078125,-0.2178497314453125,0.038177490234375
1751013381257040400,1.743040283203125,-0.9861297607421875,-0.2162933349609375,0.038604736328125
1751013381266983200,1.752983154296875,-0.9844512939453125,-0.216339111328125,0.0377960205078125
1751013381276926200,1.76292626953125,-0.9834747314453125,-0.2169342041015625,0.0371246337890625
1751013381286869200,1.772869140625,-0.9820556640625,-0.2186431884765625,0.0380859375
1751013381296812500,1.7828125,-0.98394775390625,-0.2199249267578125,0.03668212890625
1751013381306755600,1.792755615234375,-0.9867706298828125,-0.218841552734375,0.0376129150390625
1751013381316698600,1.80269873046875,-0.9901580810546875,-0.21380615234375,0.037139892578125
1751013381326641700,1.8126416015625,-0.9915008544921875,-0.2104339599609375,0.037841796875
1751013381336584400,1.82258447265625,-0.9904937744140625,-0.2144622802734375,0.037567138671875
1751013381346527500,1.832527587890625,-0.9852447509765625,-0.2186126708984375,0.0341949462890625
1751013381356470500,1.842470458984375,-0.985321044921875,-0.2207489013671875,0.0331573486328125
1751013381366413600,1.85241357421875,-0.983367919921875,-0.2205963134765625,0.03350830078125
1751013381376356600,1.862356689453125,-0.984710693359375,-0.2200164794921875,0.034576416015625
1751013381386299600,1.872299560546875,-0.9899749755859375,-0.2201995849609375,0.0363922119140625
1751013381396242700,1.88224267578125,-0.994110107421875,-0.218292236328125,0.039398193359375
1751013381406184400,1.892184326171875,-0.9970703125,-0.2152252197265625,0.0427398681640625
1751013381416127500,1.90212744140625,-1.000152587890625,-0.2163238525390625,0.0462646484375
1751013381426070500,1.912070556640625,-0.996551513671875,-0.2181854248046875,0.0462188720703125
1751013381436013600,1.922013671875,-0.993255615234375,-0.2195281982421875,0.0453948974609375
1751013381445956400,1.931956298828125,-0.9912567138671875,-0.2214508056640625,0.043548583984375
1751013381455899400,1.9418994140625,-0.9895477294921875,-0.222503662109375,0.0390777587890625
1751013381465842400,1.951842529296875,-0.9881439208984375,-0.2227935791015625,0.039276123046875
1751013381475785500,1.961785400390625,-0.9871673583984375,-0.2236480712890625,0.0388641357421875
1751013381485728500,1.971728515625,-0.9861297607421875,-0.2254638671875,0.039154052734375
1751013381495671600,1.981671630859375,-0.9859161376953125,-0.2288970947265625,0.0388336181640625
1751013381505614600,1.991614501953125,-0.9883270263671875,-0.2310943603515625,0.0391082763671875
1751013381515557600,2.0015576171875,-0.9897308349609375,-0.230560302734375,0.0396728515625
1751013381525500400,2.01150048828125,-0.98980712890625,-0.2279205322265625,0.04144287109375
1751013381535443500,2.021443359375,-0.9892730712890625,-0.225677490234375,0.0420684814453125
1751013381545386500,2.031386474609375,-0.9904937744140625,-0.224456787109375,0.043243408203125
1751013381555329500,2.04132958984375,-0.99169921875,-0.2228546142578125,0.0413360595703125
1751013381565272600,2.0512724609375,-0.9940032958984375,-0.22174072265625,0.0408477783203125
1751013381575215600,2.061215576171875,-0.993896484375,-0.2205352783203125,0.0400390625
1751013381585158700,2.07115869140625,-0.9890594482421875,-0.21978759765625,0.0381011962890625
1751013381595101700,2.081101806640625,-0.9830474853515625,-0.2204742431640625,0.0364227294921875
1751013381605044500,2.09104443359375,-0.9783935546875,-0.2222900390625,0.0333709716796875
1751013381614987500,2.100987548828125,-0.9784698486328125,-0.221099853515625,0.0326690673828125
1751013381624929500,2.110929443359375,-0.982452392578125,-0.219940185546875,0.034210205078125
1751013381634872300,2.120872314453125,-0.983612060546875,-0.2205047607421875,0.036102294921875
1751013381644815400,2.1308154296875,-0.9824676513671875,-0.219970703125,0.0390167236328125
1751013381654758400,2.14075830078125,-0.9819793701171875,-0.219696044921875,0.04132080078125
1751013381664701400,2.150701416015625,-0.9818572998046875,-0.220794677734375,0.0413055419921875
1751013381674644500,2.16064453125,-0.97857666015625,-0.2209930419921875,0.0383148193359375
1751013381684587500,2.17058740234375,-0.9757843017578125,-0.2216644287109375,0.0360565185546875
1751013381694530600,2.180530517578125,-0.975006103515625,-0.2213134765625,0.034393310546875
1751013381704473600,2.1904736328125,-0.971588134765625,-0.2225494384765625,0.0342254638671875
1751013381714416400,2.20041650390625,-0.971954345703125,-0.2237091064453125,0.0337677001953125
1751013381724359400,2.210359375,-0.975494384765625,-0.223602294921875,0.03466796875
1751013381734302500,2.220302490234375,-0.9811859130859375,-0.2234039306640625,0.038543701171875
1751013381744245500,2.23024560546875,-0.9868927001953125,-0.223907470703125,0.04107666015625
1751013381754188500,2.2401884765625,-0.99212646484375,-0.2235107421875,0.0406341552734375
1751013381764131600,2.250131591796875,-0.996826171875,-0.2225494384765625,0.0380401611328125
1751013381774074600,2.26007470703125,-0.9935150146484375,-0.2204132080078125,0.0372161865234375
1751013381784017700,2.270017578125,-0.98870849609375,-0.22161865234375,0.0362396240234375
1751013381793960400,2.27996044921875,-0.987030029296875,-0.2227935791015625,0.0346221923828125
1751013381803903500,2.289903564453125,-0.9906158447265625,-0.2242279052734375,0.037017822265625
1751013381813846500,2.299846435546875,-0.9898681640625,-0.224884033203125,0.0377960205078125
1751013381823789600,2.30978955078125,-0.989349365234375,-0.224945068359375,0.036407470703125
1751013381833732600,2.319732666015625,-0.9932403564453125,-0.2254791259765625,0.035186767578125
1751013381843675600,2.329675537109375,-0.997833251953125,-0.227294921875,0.036712646484375
1751013381853618700,2.33961865234375,-0.997100830078125,-0.22833251953125,0.0373992919921875
1751013381863560400,2.349560546875,-0.991943359375,-0.228973388671875,0.0347137451171875
1751013381873503500,2.35950341796875,-0.9911956787109375,-0.22894287109375,0.0345916748046875
1751013381883446500,2.369446533203125,-0.9910888671875,-0.227325439453125,0.036712646484375
1751013381893389600,2.3793896484375,-0.9893798828125,-0.225067138671875,0.0373687744140625
1751013381903332400,2.389332275390625,-0.986053466796875,-0.2258453369140625,0.0360260009765625
1751013381913275400,2.399275390625,-0.984375,-0.2265625,0.0377655029296875
1751013381923218400,2.409218505859375,-0.9810791015625,-0.2299957275390625,0.037689208984375
1751013381933161500,2.419161376953125,-0.97711181640625,-0.2327423095703125,0.03631591796875
1751013381943104500,2.4291044921875,-0.9767608642578125,-0.232879638671875,0.0357513427734375
1751013381953047600,2.439047607421875,-0.978118896484375,-0.231658935546875,0.0363311767578125
1751013381962990600,2.448990478515625,-0.9807586669921875,-0.2287139892578125,0.0369415283203125
1751013381972933600,2.45893359375,-0.9872894287109375,-0.22467041015625,0.0416259765625
1751013381982876400,2.46887646484375,-0.99169921875,-0.22174072265625,0.0450286865234375
1751013381992819500,2.4788193359375,-0.9921112060546875,-0.2184906005859375,0.0440216064453125
1751013382002762500,2.488762451171875,-0.992584228515625,-0.2184600830078125,0.040283203125
1751013382012705500,2.49870556640625,-0.994842529296875,-0.2195892333984375,0.0374755859375
1751013382022648600,2.508648681640625,-0.9916229248046875,-0.219573974609375,0.0347137451171875
1751013382032591600,2.518591552734375,-0.9851226806640625,-0.21881103515625,0.0352020263671875
1751013382042534700,2.52853466796875,-0.9853973388671875,-0.21978759765625,0.0346527099609375
1751013382052477700,2.538477783203125,-0.9871826171875,-0.2212371826171875,0.0359954833984375
1751013382062420500,2.54842041015625,-0.9886016845703125,-0.222137451171875,0.037261962890625
1751013382072363500,2.558363525390625,-0.9881134033203125,-0.2234039306640625,0.03875732421875
1751013382082306600,2.568306640625,-0.9841461181640625,-0.2260894775390625,0.0386810302734375
1751013382092249600,2.57824951171875,-0.98126220703125,-0.225067138671875,0.038970947265625
1751013382102192600,2.588192626953125,-0.9813079833984375,-0.2218475341796875,0.038787841796875
1751013382112135700,2.5981357421875,-0.98443603515625,-0.220977783203125,0.038238525390625
1751013382122078700,2.60807861328125,-0.986053466796875,-0.2218780517578125,0.03582763671875
1751013382132020500,2.6180205078125,-0.986114501953125,-0.222564697265625,0.034912109375
1751013382141963500,2.627963623046875,-0.9836273193359375,-0.221466064453125,0.035980224609375
1751013382151906600,2.637906494140625,-0.98089599609375,-0.2198028564453125,0.0396270751953125
1751013382161849600,2.647849609375,-0.9794158935546875,-0.2208709716796875,0.041473388671875
1751013382171792400,2.65779248046875,-0.9783172607421875,-0.2226104736328125,0.0408935546875
1751013382181735400,2.6677353515625,-0.9753265380859375,-0.223297119140625,0.0396575927734375
1751013382191678500,2.677678466796875,-0.9749755859375,-0.22430419921875,0.039642333984375
1751013382201621500,2.68762158203125,-0.9752197265625,-0.2243499755859375,0.0382080078125
1751013382211564500,2.697564453125,-0.97308349609375,-0.2254180908203125,0.0355377197265625
1751013382221507600,2.707507568359375,-0.9750518798828125,-0.22503662109375,0.0333099365234375
1751013382231450600,2.71745068359375,-0.9789886474609375,-0.226959228515625,0.0328216552734375
1751013382241393700,2.7273935546875,-0.9850921630859375,-0.2251434326171875,0.03680419921875
1751013382251336400,2.73733642578125,-0.996368408203125,-0.2222900390625,0.0407867431640625
1751013382261279500,2.747279541015625,-1.0018310546875,-0.2209014892578125,0.0388336181640625
1751013382271222500,2.757222412109375,-1.0037078857421875,-0.2205352783203125,0.0348358154296875
1751013382281165600,2.76716552734375,-1.0005645751953125,-0.2223358154296875,0.0333404541015625
1751013382291108900,2.77710888671875,-0.99542236328125,-0.2226409912109375,0.032745361328125
1751013382301052000,2.787052001953125,-0.993499755859375,-0.223541259765625,0.032501220703125
1751013382310995000,2.796994873046875,-0.9955596923828125,-0.2250823974609375,0.033355712890625
1751013382320938000,2.80693798828125,-0.996185302734375,-0.2266998291015625,0.0348052978515625
1751013382330880800,2.816880859375,-0.998138427734375,-0.2276763916015625,0.0347442626953125
1751013382340823800,2.82682373046875,-0.99957275390625,-0.228515625,0.0334930419921875
1751013382350766800,2.836766845703125,-0.9982147216796875,-0.2295379638671875,0.0334320068359375
1751013382360710000,2.8467099609375,-0.99365234375,-0.23046875,0.031463623046875
1751013382370652700,2.856652587890625,-0.9880523681640625,-0.2313385009765625,0.0298614501953125
1751013382380595700,2.866595703125,-0.9832916259765625,-0.231475830078125,0.0283203125
1751013382390538800,2.876538818359375,-0.982757568359375,-0.2285003662109375,0.0297393798828125
1751013382400481800,2.886481689453125,-0.985595703125,-0.2246246337890625,0.0312957763671875
1751013382410424800,2.8964248046875,-0.989105224609375,-0.22186279296875,0.0327301025390625
1751013382420366800,2.906366943359375,-0.988983154296875,-0.220367431640625,0.0334014892578125
1751013382430310000,2.916309814453125,-0.9882049560546875,-0.22235107421875,0.0308074951171875
1751013382440252700,2.926252685546875,-0.9876556396484375,-0.2238006591796875,0.027008056640625
1751013382450195700,2.93619580078125,-0.9853668212890625,-0.22308349609375,0.0262603759765625
1751013382460138800,2.946138671875,-0.98583984375,-0.2211761474609375,0.02679443359375
1751013382470081800,2.956081787109375,-0.9874725341796875,-0.221527099609375,0.03009033203125
1751013382480024800,2.96602490234375,-0.9875030517578125,-0.22369384765625,0.0314178466796875
1751013382489967900,2.9759677734375,-0.984710693359375,-0.22650146484375,0.03076171875
1751013382499911000,2.985910888671875,-0.98260498046875,-0.22760009765625,0.030548095703125
1751013382509854000,2.99585400390625,-0.979522705078125,-0.227386474609375,0.030731201171875
1751013382519796700,3.005796630859375,-0.976715087890625,-0.2254638671875,0.0285491943359375
1751013382529739800,3.01573974609375,-0.9772491455078125,-0.226104736328125,0.029388427734375
1751013382539682800,3.025682861328125,-0.9808197021484375,-0.22607421875,0.0318145751953125
1751013382549625900,3.0356259765625,-0.9888763427734375,-0.2252960205078125,0.0343170166015625
1751013382559569000,3.04556884765625,-0.9946136474609375,-0.223358154296875,0.0361480712890625
1751013382569512000,3.055511962890625,-0.9966888427734375,-0.2223052978515625,0.0352020263671875
1751013382579455000,3.065455078125,-0.9978485107421875,-0.22259521484375,0.0352630615234375
1751013382589398000,3.07539794921875,-0.9949951171875,-0.2226104736328125,0.036529541015625
1751013382599340800,3.0853408203125,-0.9884490966796875,-0.223297119140625,0.03570556640625
1751013382609283600,3.09528369140625,-0.9842529296875,-0.2259063720703125,0.0331268310546875
1751013382619226600,3.1052265625,-0.985321044921875,-0.2293853759765625,0.0323333740234375
1751013382629169700,3.115169677734375,-0.984466552734375,-0.231170654296875,0.0309295654296875
1751013382639112700,3.12511279296875,-0.9855804443359375,-0.22998046875,0.03167724609375
1751013382649055700,3.1350556640625,-0.99139404296875,-0.22998046875,0.0366058349609375
1751013382658998800,3.144998779296875,-0.9926605224609375,-0.2292633056640625,0.040069580078125
1751013382668941800,3.15494189453125,-0.9876251220703125,-0.2277374267578125,0.04071044921875
1751013382678884900,3.164884765625,-0.9850006103515625,-0.2273101806640625,0.039825439453125
1751013382688827600,3.17482763671875,-0.985260009765625,-0.2270050048828125,0.039093017578125
1751013382698770700,3.184770751953125,-0.9833831787109375,-0.2268829345703125,0.0385589599609375
1751013382708713700,3.194713623046875,-0.9794464111328125,-0.2268218994140625,0.0371246337890625
1751013382718656800,3.20465673828125,-0.9769439697265625,-0.227569580078125,0.036712646484375
1751013382728599800,3.214599853515625,-0.976318359375,-0.227508544921875,0.03692626953125
1751013382738542800,3.22454296875,-0.98101806640625,-0.22698974609375,0.0367584228515625
1751013382748484900,3.23448486328125,-0.985931396484375,-0.2268218994140625,0.0372772216796875
1751013382758428000,3.244427978515625,-0.9870452880859375,-0.2267608642578125,0.0385894775390625
1751013382768371000,3.254370849609375,-0.9846649169921875,-0.22509765625,0.0377960205078125
1751013382778314000,3.26431396484375,-0.982574462890625,-0.224639892578125,0.036712646484375
1751013382788256800,3.2742568359375,-0.982757568359375,-0.2268829345703125,0.03387451171875
1751013382798199800,3.28419970703125,-0.981201171875,-0.2267913818359375,0.033660888671875
1751013382808142800,3.294142822265625,-0.98138427734375,-0.2272186279296875,0.033935546875
1751013382818085600,3.304085693359375,-0.984771728515625,-0.2276611328125,0.0369873046875
1751013382828028700,3.314028564453125,-0.9881439208984375,-0.22674560546875,0.0395355224609375
1751013382837971700,3.3239716796875,-0.985931396484375,-0.22686767578125,0.03948974609375
1751013382847914800,3.333914794921875,-0.9863739013671875,-0.226409912109375,0.0380096435546875
1751013382857857800,3.34385791015625,-0.9876708984375,-0.2254638671875,0.0374908447265625
1751013382867800800,3.35380078125,-0.9899749755859375,-0.224609375,0.0380706787109375
1751013382877743600,3.36374365234375,-0.9909820556640625,-0.223541259765625,0.0385589599609375
1751013382887686700,3.373686767578125,-0.9930572509765625,-0.224884033203125,0.0360107421875
1751013382897629700,3.383629638671875,-0.9892120361328125,-0.2259674072265625,0.035400390625
1751013382907572700,3.39357275390625,-0.985260009765625,-0.2282867431640625,0.034912109375
1751013382917515800,3.403515869140625,-0.9824676513671875,-0.2275238037109375,0.0354766845703125
1751013382927458800,3.413458740234375,-0.9831390380859375,-0.2280426025390625,0.0381927490234375
1751013382937401900,3.42340185546875,-0.98175048828125,-0.228271484375,0.0388641357421875
1751013382947345000,3.433344970703125,-0.97705078125,-0.22857666015625,0.0367431640625
1751013382957287700,3.44328759765625,-0.9722900390625,-0.2287139892578125,0.03607177734375
1751013382967230700,3.453230712890625,-0.972686767578125,-0.2309722900390625,0.0364990234375
1751013382977173800,3.463173828125,-0.97503662109375,-0.2321624755859375,0.0352935791015625
1751013382987116800,3.47311669921875,-0.97882080078125,-0.2328033447265625,0.0367889404296875
1751013382997059800,3.483059814453125,-0.981964111328125,-0.2332305908203125,0.0388031005859375
1751013383007003000,3.4930029296875,-0.9798736572265625,-0.2355499267578125,0.0356292724609375
1751013383016946000,3.50294580078125,-0.9775238037109375,-0.2357025146484375,0.0330047607421875
1751013383026889000,3.512888916015625,-0.97857666015625,-0.2334747314453125,0.034759521484375
1751013383036831700,3.522831787109375,-0.979736328125,-0.233612060546875,0.0348358154296875
1751013383046774800,3.53277490234375,-0.9793701171875,-0.2375335693359375,0.0337677001953125
1751013383056717800,3.5427177734375,-0.9837799072265625,-0.2402801513671875,0.03369140625
1751013383066660900,3.552660888671875,-0.9879608154296875,-0.241241455078125,0.0357818603515625
1751013383076604000,3.56260400390625,-0.988983154296875,-0.240203857421875,0.0342254638671875
1751013383086547000,3.572546875,-0.99078369140625,-0.23785400390625,0.035736083984375
1751013383096490000,3.582489990234375,-0.9964141845703125,-0.2350616455078125,0.03790283203125
1751013383106431700,3.592431640625,-1.0015869140625,-0.2327423095703125,0.0401153564453125
1751013383116375800,3.602375732421875,-1.003936767578125,-0.2327423095703125,0.039642333984375
1751013383126317800,3.61231787109375,-1.0013580322265625,-0.2340240478515625,0.0396881103515625
1751013383136260900,3.6222607421875,-0.9941558837890625,-0.233306884765625,0.0380859375
1751013383146203600,3.63220361328125,-0.9918670654296875,-0.2303466796875,0.0345306396484375
1751013383156146700,3.642146728515625,-0.994598388671875,-0.227996826171875,0.03350830078125
1751013383166089700,3.65208984375,-0.9939117431640625,-0.226837158203125,0.033843994140625
1751013383176032800,3.66203271484375,-0.992889404296875,-0.2272796630859375,0.0363311767578125
1751013383185975800,3.671975830078125,-0.9901885986328125,-0.2292022705078125,0.0354156494140625
1751013383195918800,3.6819189453125,-0.9831390380859375,-0.2293548583984375,0.03472900390625
1751013383205862000,3.69186181640625,-0.9808349609375,-0.2290496826171875,0.0338592529296875
1751013383215805000,3.701804931640625,-0.9793548583984375,-0.2283172607421875,0.0336456298828125
1751013383225747700,3.711747802734375,-0.9818878173828125,-0.2295379638671875,0.0320587158203125
1751013383235690800,3.721690673828125,-0.9822540283203125,-0.2238616943359375,0.033538818359375
1751013383245633800,3.7316337890625,-0.985809326171875,-0.2209625244140625,0.0359954833984375
1751013383255576800,3.741576904296875,-0.9864959716796875,-0.2218170166015625,0.036895751953125
1751013383265519900,3.751519775390625,-0.9831390380859375,-0.221099853515625,0.0356292724609375
1751013383275463000,3.761462890625,-0.9774932861328125,-0.2198638916015625,0.0333709716796875
1751013383285406000,3.771406005859375,-0.9763031005859375,-0.218780517578125,0.03125
1751013383295349200,3.781349365234375,-0.9813690185546875,-0.2193145751953125,0.0317535400390625
1751013383305292000,3.7912919921875,-0.984893798828125,-0.21990966796875,0.0351409912109375
1751013383315235000,3.801235107421875,-0.9869232177734375,-0.2199554443359375,0.03790283203125
1751013383325178000,3.81117822265625,-0.9837799072265625,-0.221099853515625,0.0359954833984375
1751013383335121200,3.82112109375,-0.982330322265625,-0.2234344482421875,0.03253173828125
1751013383345064200,3.831064208984375,-0.984100341796875,-0.222808837890625,0.03106689453125
1751013383355007200,3.84100732421875,-0.9830169677734375,-0.223663330078125,0.02947998046875
1751013383364950300,3.8509501953125,-0.9792022705078125,-0.2229461669921875,0.0269317626953125
1751013383374893300,3.860893310546875,-0.980804443359375,-0.221923828125,0.028656005859375
1751013383384836000,3.870836181640625,-0.985015869140625,-0.2198333740234375,0.032135009765625
1751013383394779100,3.880779052734375,-0.98492431640625,-0.219451904296875,0.03466796875
1751013383404722200,3.89072216796875,-0.9857177734375,-0.2221832275390625,0.034423828125
1751013383414665200,3.900665283203125,-0.98382568359375,-0.22320556640625,0.0354156494140625
1751013383424608300,3.910608154296875,-0.9831695556640625,-0.222930908203125,0.0340728759765625
1751013383434551300,3.92055126953125,-0.984100341796875,-0.2244415283203125,0.0348968505859375
1751013383444494000,3.930494140625,-0.98516845703125,-0.22515869140625,0.0361328125
1751013383454437000,3.94043701171875,-0.9887847900390625,-0.2241668701171875,0.0393524169921875
1751013383464380000,3.9503798828125,-0.99224853515625,-0.2217254638671875,0.0412139892578125
1751013383474323000,3.960322998046875,-0.9933013916015625,-0.2195892333984375,0.03997802734375
1751013383484266000,3.970265869140625,-0.989837646484375,-0.219329833984375,0.0396881103515625
1751013383494209000,3.980208984375,-0.9903411865234375,-0.2187042236328125,0.03692626953125
1751013383504152000,3.990152099609375,-0.9921112060546875,-0.2182464599609375,0.038543701171875
1751013383514094000,4.000093994140625,-0.9940338134765625,-0.2178955078125,0.04193115234375
1751013383524037000,4.010037109375,-0.9949951171875,-0.2187652587890625,0.0435028076171875
1751013383533980200,4.019980224609375,-0.9930877685546875,-0.219635009765625,0.0421295166015625
1751013383543923200,4.029923095703125,-0.9915008544921875,-0.221038818359375,0.0382080078125
1751013383553866200,4.0398662109375,-0.98980712890625,-0.2245941162109375,0.03472900390625
1751013383563809300,4.049809326171875,-0.98748779296875,-0.2254180908203125,0.03228759765625
1751013383573752000,4.059751953125,-0.9870147705078125,-0.22418212890625,0.033172607421875
1751013383583695000,4.069695068359375,-0.9867706298828125,-0.2215118408203125,0.0343780517578125
1751013383593638100,4.07963818359375,-0.985382080078125,-0.2219390869140625,0.0353851318359375
1751013383603581200,4.089581298828125,-0.982391357421875,-0.223419189453125,0.037322998046875
1751013383613524200,4.099524169921875,-0.97991943359375,-0.2245635986328125,0.03826904296875
1751013383623467300,4.10946728515625,-0.978424072265625,-0.225555419921875,0.036651611328125
1751013383633410300,4.119410400390625,-0.97344970703125,-0.2275390625,0.0334014892578125
1751013383643353300,4.129353271484375,-0.9730224609375,-0.226959228515625,0.032989501953125
1751013383653296000,4.139296142578125,-0.9785919189453125,-0.2215423583984375,0.0357666015625
1751013383663239200,4.1492392578125,-0.9883575439453125,-0.2179107666015625,0.0379638671875
1751013383673182000,4.159181884765625,-0.995208740234375,-0.2167510986328125,0.04229736328125
1751013383683125000,4.169125,-1.0006256103515625,-0.2158050537109375,0.0451507568359375
1751013383693068000,4.179068115234375,-1.0035858154296875,-0.2154083251953125,0.0431365966796875
1751013383703011000,4.189010986328125,-0.9995880126953125,-0.2144927978515625,0.0416717529296875
1751013383712954000,4.1989541015625,-0.995819091796875,-0.214324951171875,0.0403900146484375
1751013383722897200,4.208897216796875,-0.9931793212890625,-0.215911865234375,0.0371856689453125
1751013383732840000,4.21883984375,-0.992919921875,-0.21820068359375,0.0347747802734375
1751013383742783000,4.228782958984375,-0.9949493408203125,-0.21990966796875,0.034393310546875
1751013383752726000,4.23872607421875,-0.9973602294921875,-0.2225799560546875,0.0366973876953125
1751013383762669000,4.2486689453125,-1.0004119873046875,-0.2219085693359375,0.03936767578125
1751013383772612000,4.258612060546875,-0.99884033203125,-0.22088623046875,0.0404205322265625
1751013383782555100,4.26855517578125,-0.9932403564453125,-0.218505859375,0.0399627685546875
1751013383792498200,4.278498291015625,-0.988311767578125,-0.21685791015625,0.039459228515625
1751013383802441200,4.288441162109375,-0.989654541015625,-0.2136383056640625,0.03863525390625
1751013383812384300,4.29838427734375,-0.9920806884765625,-0.2128753662109375,0.0358123779296875
1751013383822327000,4.3083271484375,-0.989501953125,-0.2145233154296875,0.032257080078125
1751013383832270000,4.31827001953125,-0.98626708984375,-0.2152099609375,0.0326385498046875
1751013383842213000,4.328213134765625,-0.984466552734375,-0.21502685546875,0.034210205078125
1751013383852156200,4.33815625,-0.9822540283203125,-0.2172393798828125,0.035369873046875
1751013383862099200,4.34809912109375,-0.9834442138671875,-0.2173309326171875,0.0354766845703125
1751013383872042200,4.358042236328125,-0.986114501953125,-0.218231201171875,0.03570556640625
1751013383881985300,4.3679853515625,-0.9864501953125,-0.216461181640625,0.0357513427734375
1751013383891928300,4.37792822265625,-0.98748779296875,-0.2164459228515625,0.0358428955078125
1751013383901871000,4.38787109375,-0.98919677734375,-0.2169036865234375,0.0364532470703125
1751013383911814100,4.397814208984375,-0.9869232177734375,-0.2181243896484375,0.0365142822265625
1751013383921757200,4.407757080078125,-0.9855194091796875,-0.2178192138671875,0.0358734130859375
1751013383931700200,4.4177001953125,-0.9860992431640625,-0.217742919921875,0.0361785888671875
1751013383941642000,4.42764208984375,-0.985748291015625,-0.2171478271484375,0.0375823974609375
1751013383951585000,4.4375849609375,-0.988525390625,-0.217437744140625,0.03826904296875
1751013383961528000,4.447528076171875,-0.990966796875,-0.2182464599609375,0.0399322509765625
1751013383971471000,4.45747119140625,-0.993072509765625,-0.218109130859375,0.0420989990234375
1751013383981414100,4.4674140625,-0.9964447021484375,-0.2180938720703125,0.0434722900390625
1751013383991357200,4.477357177734375,-0.9970245361328125,-0.2193756103515625,0.043243408203125
1751013384001300200,4.48730029296875,-1.0001983642578125,-0.2185821533203125,0.04296875
1751013384011243000,4.497242919921875,-1.002838134765625,-0.218109130859375,0.04193115234375
1751013384021186000,4.50718603515625,-1.004974365234375,-0.2167816162109375,0.042083740234375
1751013384031129000,4.517129150390625,-1.0032501220703125,-0.2162017822265625,0.040313720703125
1751013384041072000,4.527072021484375,-1.004302978515625,-0.2160797119140625,0.041015625
1751013384051015200,4.53701513671875,-1.0031890869140625,-0.2149658203125,0.0419921875
1751013384060958200,4.546958251953125,-1.000732421875,-0.215240478515625,0.0411224365234375
1751013384070901200,4.5569013671875,-0.9947509765625,-0.2135772705078125,0.039825439453125
1751013384080844300,4.56684423828125,-0.9882965087890625,-0.2122955322265625,0.038818359375
1751013384090787000,4.576787109375,-0.98687744140625,-0.21075439453125,0.0359954833984375
1751013384100730000,4.586730224609375,-0.9914703369140625,-0.207977294921875,0.036285400390625
1751013384110673200,4.596673095703125,-0.9952239990234375,-0.207427978515625,0.041351318359375
1751013384120616200,4.6066162109375,-0.9905853271484375,-0.20953369140625,0.043548583984375
1751013384130559200,4.616559326171875,-0.9822998046875,-0.2105712890625,0.0433197021484375
1751013384140502300,4.626502197265625,-0.98248291015625,-0.208221435546875,0.043731689453125
1751013384150445300,4.6364453125,-0.9846038818359375,-0.2097625732421875,0.0453643798828125
1751013384160388400,4.646388427734375,-0.986328125,-0.21246337890625,0.041961669921875
1751013384170331100,4.6563310546875,-0.989715576171875,-0.215789794921875,0.0364990234375
1751013384180274000,4.66627392578125,-0.9908447265625,-0.219024658203125,0.0321502685546875
1751013384190217000,4.676217041015625,-0.989410400390625,-0.22027587890625,0.03033447265625
1751013384200160000,4.686159912109375,-0.9864501953125,-0.223602294921875,0.0290069580078125
1751013384210103000,4.69610302734375,-0.9865570068359375,-0.226593017578125,0.0274658203125
1751013384220046000,4.706046142578125,-0.99151611328125,-0.2279815673828125,0.0242462158203125
1751013384229989000,4.715989013671875,-1.000732421875,-0.2322235107421875,0.02252197265625
1751013384239932200,4.72593212890625,-1.0096588134765625,-0.2355194091796875,0.0167694091796875
1751013384249875000,4.735875,-1.0122528076171875,-0.2364959716796875,0.013671875
1751013384259818000,4.74581787109375,-1.006561279296875,-0.2342376708984375,0.012969970703125
1751013384269761000,4.755760986328125,-1.0037078857421875,-0.230682373046875,0.0157318115234375
1751013384279704000,4.7657041015625,-0.9978179931640625,-0.2291717529296875,0.019287109375
1751013384289647000,4.775647216796875,-0.9971923828125,-0.22808837890625,0.0175628662109375
1751013384299589600,4.785589599609375,-0.9998779296875,-0.226898193359375,0.021392822265625
1751013384309532700,4.79553271484375,-0.99896240234375,-0.2260284423828125,0.0256195068359375
1751013384319475700,4.805475830078125,-0.9917144775390625,-0.2248687744140625,0.028564453125
1751013384329418800,4.815418701171875,-0.99078369140625,-0.2241363525390625,0.03082275390625
1751013384339361800,4.82536181640625,-0.9875640869140625,-0.2257537841796875,0.0304107666015625
1751013384349304600,4.8353046875,-0.979248046875,-0.224395751953125,0.0288238525390625
1751013384359247600,4.84524755859375,-0.972900390625,-0.224090576171875,0.0327606201171875
1751013384369190700,4.855190673828125,-0.9712677001953125,-0.226287841796875,0.03533935546875
1751013384379133700,4.8651337890625,-0.968475341796875,-0.2277984619140625,0.034637451171875
1751013384389076700,4.87507666015625,-0.9647674560546875,-0.2272796630859375,0.0353851318359375
1751013384399019800,4.885019775390625,-0.9642486572265625,-0.2269287109375,0.037353515625
1751013384408962800,4.894962890625,-0.96649169921875,-0.227203369140625,0.0406951904296875
1751013384418905900,4.90490576171875,-0.9672088623046875,-0.22662353515625,0.042449951171875
1751013384428847600,4.91484765625,-0.9657135009765625,-0.227294921875,0.0398101806640625
1751013384438790700,4.924790771484375,-0.9636383056640625,-0.228271484375,0.0425262451171875
1751013384448733700,4.934733642578125,-0.9625701904296875,-0.2273712158203125,0.041046142578125
1751013384458676500,4.944676513671875,-0.9645233154296875,-0.226593017578125,0.03631591796875
1751013384468619500,4.95461962890625,-0.96258544921875,-0.22930908203125,0.035888671875
1751013384478562600,4.9645625,-0.961029052734375,-0.2330474853515625,0.0313262939453125
1751013384488505600,4.974505615234375,-0.959075927734375,-0.2338104248046875,0.0294952392578125
1751013384498448600,4.98444873046875,-0.9598236083984375,-0.2353973388671875,0.0290679931640625
1751013384508391700,4.9943916015625,-0.9632110595703125,-0.2376861572265625,0.02777099609375
1751013384518334700,5.004334716796875,-0.968841552734375,-0.23736572265625,0.0237579345703125
1751013384528277800,5.01427783203125,-0.9735107421875,-0.2368927001953125,0.0214080810546875
1751013384538220500,5.024220458984375,-0.976715087890625,-0.23565673828125,0.0214691162109375
1751013384548163600,5.03416357421875,-0.978759765625,-0.2347564697265625,0.02215576171875
1751013384558106600,5.044106689453125,-0.981475830078125,-0.2339630126953125,0.0207672119140625
1751013384568049700,5.054049560546875,-0.9845733642578125,-0.2348480224609375,0.0215606689453125
1751013384577992700,5.06399267578125,-0.9860382080078125,-0.2357177734375,0.0226898193359375
1751013384587935700,5.073935791015625,-0.98388671875,-0.2352447509765625,0.0239410400390625
1751013384597878800,5.083878662109375,-0.9828643798828125,-0.233642578125,0.0248260498046875
1751013384607821800,5.09382177734375,-0.98394775390625,-0.234893798828125,0.024688720703125
1751013384617764600,5.1037646484375,-0.98406982421875,-0.2356109619140625,0.0250701904296875
1751013384627707600,5.113707763671875,-0.9878692626953125,-0.233123779296875,0.0305328369140625
1751013384637650700,5.123650634765625,-0.990570068359375,-0.23150634765625,0.0354461669921875
1751013384647593700,5.13359375,-0.9897003173828125,-0.23199462890625,0.039520263671875
1751013384657536500,5.14353662109375,-0.9874420166015625,-0.2303009033203125,0.038055419921875
1751013384667479600,5.1534794921875,-0.9857177734375,-0.228363037109375,0.035400390625
1751013384677422600,5.163422607421875,-0.98272705078125,-0.2267913818359375,0.033599853515625
1751013384687365600,5.17336572265625,-0.9815826416015625,-0.2252197265625,0.0309295654296875
1751013384697308400,5.183308349609375,-0.98175048828125,-0.22467041015625,0.029937744140625
1751013384707251500,5.19325146484375,-0.9864044189453125,-0.2219085693359375,0.03033447265625
1751013384717194500,5.203194580078125,-0.99505615234375,-0.2209930419921875,0.032958984375
1751013384727137500,5.213137451171875,-0.9925079345703125,-0.2208404541015625,0.0344085693359375
1751013384737080600,5.22308056640625,-0.9853668212890625,-0.2207794189453125,0.0345458984375
1751013384747023600,5.233023681640625,-0.9834136962890625,-0.221466064453125,0.0355377197265625
1751013384756966700,5.242966552734375,-0.981964111328125,-0.22265625,0.037841796875
1751013384766909700,5.25290966796875,-0.9820556640625,-0.221282958984375,0.040802001953125
1751013384776852500,5.2628525390625,-0.98358154296875,-0.218658447265625,0.0400390625
1751013384786795500,5.27279541015625,-0.98663330078125,-0.2194976806640625,0.039581298828125
1751013384796738600,5.282738525390625,-0.99102783203125,-0.2198028564453125,0.0382080078125
1751013384806681600,5.292681640625,-0.99639892578125,-0.2218170166015625,0.038055419921875
1751013384816624600,5.302624755859375,-0.9989471435546875,-0.2222747802734375,0.0359344482421875
1751013384826567700,5.312567626953125,-0.99810791015625,-0.2203521728515625,0.03668212890625
1751013384836510700,5.3225107421875,-0.9986114501953125,-0.219879150390625,0.034393310546875
1751013384846453800,5.332453857421875,-1.00030517578125,-0.2191314697265625,0.033538818359375
1751013384856396800,5.342396728515625,-1.0025482177734375,-0.2197265625,0.035980224609375
1751013384866339600,5.352339599609375,-1.00396728515625,-0.2200164794921875,0.0375213623046875
1751013384876282600,5.36228271484375,-1.0038299560546875,-0.2203826904296875,0.0384521484375
1751013384886225700,5.3722255859375,-1.000274658203125,-0.223114013671875,0.03515625
1751013384896168700,5.382168701171875,-0.9964599609375,-0.2256011962890625,0.034210205078125
1751013384906111700,5.39211181640625,-0.99151611328125,-0.22747802734375,0.033843994140625
1751013384916054800,5.4020546875,-0.9918212890625,-0.2265625,0.0310211181640625
1751013384925997800,5.411997802734375,-0.9933929443359375,-0.22393798828125,0.031280517578125
1751013384935940600,5.421940673828125,-0.9910736083984375,-0.219085693359375,0.03106689453125
1751013384945883400,5.43188330078125,-0.990631103515625,-0.2165374755859375,0.028961181640625
1751013384955826400,5.441826416015625,-0.9897003173828125,-0.2151336669921875,0.0277862548828125
1751013384965769500,5.45176953125,-0.9929962158203125,-0.2118377685546875,0.0254669189453125
1751013384975712500,5.46171240234375,-0.995147705078125,-0.208160400390625,0.023193359375
1751013384985655600,5.471655517578125,-0.997802734375,-0.207550048828125,0.0218353271484375
1751013384995598600,5.4815986328125,-1.001251220703125,-0.2093963623046875,0.0199432373046875
1751013385005541600,5.491541748046875,-0.9990386962890625,-0.2131195068359375,0.019439697265625
1751013385015484700,5.501484619140625,-0.993377685546875,-0.2175750732421875,0.0197296142578125
1751013385025427500,5.511427490234375,-0.989959716796875,-0.2193756103515625,0.0215606689453125
1751013385035370500,5.52137060546875,-0.988616943359375,-0.2221221923828125,0.024505615234375
1751013385045312800,5.531312744140625,-0.9895172119140625,-0.2261505126953125,0.0259857177734375
1751013385055255600,5.541255615234375,-0.987884521484375,-0.2289581298828125,0.028106689453125
1751013385065198600,5.551198486328125,-0.984405517578125,-0.2297515869140625,0.0289459228515625
1751013385075141600,5.5611416015625,-0.9839324951171875,-0.2303009033203125,0.0275421142578125
1751013385085084700,5.571084716796875,-0.9877166748046875,-0.2272491455078125,0.0262298583984375
1751013385095027700,5.58102783203125,-0.9949188232421875,-0.2243194580078125,0.025299072265625
1751013385104970800,5.590970703125,-1.0017852783203125,-0.223052978515625,0.025787353515625
1751013385114913800,5.600913818359375,-1.004791259765625,-0.22149658203125,0.0247955322265625
1751013385124856800,5.61085693359375,-1.005279541015625,-0.2207183837890625,0.0240325927734375
1751013385134799600,5.620799560546875,-1.00616455078125,-0.219879150390625,0.0216522216796875
1751013385144742700,5.63074267578125,-1.002410888671875,-0.2213592529296875,0.0211334228515625
1751013385154685700,5.640685791015625,-0.9954833984375,-0.22308349609375,0.0211944580078125
1751013385164628500,5.65062841796875,-0.991546630859375,-0.2234344482421875,0.021026611328125
1751013385174571500,5.660571533203125,-0.990966796875,-0.2221221923828125,0.0225830078125
1751013385184514600,5.6705146484375,-0.9934539794921875,-0.2211151123046875,0.0236053466796875
1751013385194457600,5.68045751953125,-0.9991302490234375,-0.2215423583984375,0.0242156982421875
1751013385204400600,5.690400634765625,-1.0045166015625,-0.2211761474609375,0.024383544921875
1751013385214343400,5.700343505859375,-1.0029144287109375,-0.2173919677734375,0.0203094482421875
1751013385224286500,5.710286376953125,-1.001190185546875,-0.2142333984375,0.0150909423828125
1751013385234229500,5.7202294921875,-1.0021820068359375,-0.2149200439453125,0.00958251953125
1751013385244172500,5.730172607421875,-1.0021209716796875,-0.21636962890625,0.0096588134765625
1751013385254115600,5.740115478515625,-1.0034637451171875,-0.213836669921875,0.0136260986328125
1751013385264058600,5.75005859375,-1.0036163330078125,-0.21435546875,0.01837158203125
1751013385274001700,5.760001708984375,-0.99786376953125,-0.2153472900390625,0.0242767333984375
1751013385283944700,5.76994482421875,-0.99456787109375,-0.2130584716796875,0.0306854248046875
1751013385293887500,5.779887451171875,-0.9920806884765625,-0.211700439453125,0.03790283203125
1751013385303830300,5.789830322265625,-0.9916839599609375,-0.21295166015625,0.0426788330078125
1751013385313773300,5.799773193359375,-0.9909820556640625,-0.2116851806640625,0.0507049560546875
1751013385323716400,5.80971630859375,-0.98504638671875,-0.207763671875,0.056854248046875
1751013385333659100,5.8196591796875,-0.9798126220703125,-0.20684814453125,0.0619354248046875
1751013385343602200,5.829602294921875,-0.9768524169921875,-0.2091827392578125,0.064056396484375
1751013385353545200,5.839545166015625,-0.968658447265625,-0.2074737548828125,0.0607757568359375
1751013385363488300,5.84948828125,-0.9610137939453125,-0.2094268798828125,0.0611419677734375
1751013385373431300,5.859431396484375,-0.9619140625,-0.214599609375,0.0516357421875
1751013385383374300,5.869374267578125,-0.9599456787109375,-0.2171783447265625,0.044189453125
1751013385393317000,5.879317138671875,-0.9607391357421875,-0.22210693359375,0.037811279296875
1751013385403260200,5.88926025390625,-0.96173095703125,-0.2258148193359375,0.0339508056640625
1751013385413203200,5.899203125,-0.962371826171875,-0.2240753173828125,0.0324554443359375
1751013385423146200,5.909146240234375,-0.9687042236328125,-0.2236328125,0.0321044921875
1751013385433089300,5.91908935546875,-0.9756927490234375,-0.224639892578125,0.0335845947265625
1751013385443032300,5.9290322265625,-0.9785003662109375,-0.2242889404296875,0.0339508056640625
1751013385452975400,5.938975341796875,-0.9786376953125,-0.22430419921875,0.033966064453125
1751013385462918400,5.94891845703125,-0.9784698486328125,-0.225860595703125,0.0329437255859375
1751013385472861200,5.958861083984375,-0.9769134521484375,-0.22955322265625,0.03131103515625
1751013385482804200,5.96880419921875,-0.978668212890625,-0.23199462890625,0.029052734375
1751013385492747300,5.978747314453125,-0.9838714599609375,-0.23370361328125,0.030059814453125
1751013385502690300,5.988690185546875,-0.9908294677734375,-0.2355499267578125,0.0291900634765625
1751013385512633300,5.99863330078125,-0.99322509765625,-0.2374267578125,0.0268402099609375
1751013385522576400,6.008576416015625,-0.99169921875,-0.239105224609375,0.0264892578125
1751013385532519400,6.01851953125,-0.9885711669921875,-0.242340087890625,0.02587890625
1751013385542462500,6.02846240234375,-0.9861602783203125,-0.2425689697265625,0.02520751953125
1751013385552405200,6.0384052734375,-0.984130859375,-0.2441558837890625,0.024322509765625
1751013385562348300,6.048348388671875,-0.982513427734375,-0.246917724609375,0.0262451171875
1751013385572291300,6.058291259765625,-0.9829864501953125,-0.250701904296875,0.029998779296875
1751013385582234400,6.068234375,-0.9854583740234375,-0.2519073486328125,0.0301361083984375
1751013385592177400,6.078177490234375,-0.989013671875,-0.25018310546875,0.0293731689453125
1751013385602120400,6.088120361328125,-0.994415283203125,-0.2486724853515625,0.0315704345703125
1751013385612063200,6.098063232421875,-0.9964752197265625,-0.248291015625,0.0337066650390625
1751013385622006300,6.10800634765625,-0.9930267333984375,-0.24810791015625,0.0339508056640625
1751013385631949300,6.11794921875,-0.9909515380859375,-0.245758056640625,0.0370941162109375
1751013385641892000,6.12789208984375,-0.9906158447265625,-0.2422637939453125,0.0408477783203125
1751013385651835100,6.137835205078125,-0.992431640625,-0.241973876953125,0.04449462890625
1751013385661778200,6.147778076171875,-0.99285888671875,-0.239959716796875,0.04681396484375
1751013385671721200,6.15772119140625,-0.9937896728515625,-0.2362823486328125,0.0486602783203125
1751013385681664300,6.167664306640625,-0.9988250732421875,-0.2342529296875,0.0485687255859375
1751013385691607300,6.177607177734375,-1.00079345703125,-0.234222412109375,0.0472259521484375
1751013385701550300,6.18755029296875,-0.9970855712890625,-0.2340545654296875,0.0469512939453125
1751013385711493400,6.197493408203125,-0.9900665283203125,-0.233489990234375,0.0456085205078125
1751013385721436200,6.207436279296875,-0.9840545654296875,-0.2329864501953125,0.04327392578125
1751013385731379200,6.217379150390625,-0.980194091796875,-0.235260009765625,0.04119873046875
1751013385741322200,6.227322265625,-0.97802734375,-0.237640380859375,0.0370330810546875
1751013385751265300,6.237265380859375,-0.976226806640625,-0.2378692626953125,0.033447265625
1751013385761208300,6.247208251953125,-0.9775543212890625,-0.2385101318359375,0.0323333740234375
1751013385771151400,6.2571513671875,-0.9797821044921875,-0.2375640869140625,0.0336151123046875
1751013385781094400,6.267094482421875,-0.981658935546875,-0.236907958984375,0.035186767578125
1751013385791037400,6.277037353515625,-0.983001708984375,-0.235565185546875,0.0348052978515625
1751013385800980200,6.286980224609375,-0.9833221435546875,-0.2359619140625,0.0358734130859375
1751013385810923300,6.29692333984375,-0.979888916015625,-0.2365875244140625,0.03631591796875
1751013385820866300,6.3068662109375,-0.970428466796875,-0.23724365234375,0.0335845947265625
1751013385830809300,6.316809326171875,-0.96148681640625,-0.239013671875,0.031494140625
1751013385840752400,6.32675244140625,-0.9575958251953125,-0.2379913330078125,0.0302734375
1751013385850695400,6.3366953125,-0.96307373046875,-0.2369232177734375,0.0327301025390625
1751013385860638500,6.346638427734375,-0.9703369140625,-0.236053466796875,0.035980224609375
1751013385870581500,6.35658154296875,-0.976593017578125,-0.238922119140625,0.0380096435546875
1751013385880524300,6.366524169921875,-0.97784423828125,-0.240234375,0.0384521484375
1751013385890467300,6.37646728515625,-0.9765472412109375,-0.2382354736328125,0.039947509765625
1751013385900410000,6.38641015625,-0.97161865234375,-0.2377777099609375,0.039886474609375
1751013385910353200,6.396353271484375,-0.9676513671875,-0.239166259765625,0.0399627685546875
1751013385920296200,6.406296142578125,-0.9680328369140625,-0.2388153076171875,0.0403594970703125
1751013385930239200,6.4162392578125,-0.973968505859375,-0.237579345703125,0.0411529541015625
1751013385940182300,6.426182373046875,-0.9811248779296875,-0.239654541015625,0.0429840087890625
1751013385950124300,6.436124267578125,-0.981231689453125,-0.240509033203125,0.0436553955078125
1751013385960067300,6.4460673828125,-0.979400634765625,-0.2405853271484375,0.043670654296875
1751013385970010400,6.45601025390625,-0.9787445068359375,-0.2397308349609375,0.044281005859375
1751013385979953400,6.465953369140625,-0.97894287109375,-0.2395172119140625,0.0459747314453125
1751013385989896200,6.475896240234375,-0.9795989990234375,-0.23687744140625,0.0460357666015625
1751013385999839200,6.485839111328125,-0.982177734375,-0.235687255859375,0.0453338623046875
1751013386009782300,6.4957822265625,-0.9850921630859375,-0.2343597412109375,0.0442047119140625
1751013386019725300,6.505725341796875,-0.9849700927734375,-0.2323455810546875,0.041259765625
1751013386029668400,6.51566845703125,-0.9837493896484375,-0.2312469482421875,0.0376129150390625
1751013386039611400,6.525611328125,-0.9836578369140625,-0.229644775390625,0.0359344482421875
1751013386049554400,6.535554443359375,-0.9834747314453125,-0.229949951171875,0.035888671875
1751013386059497500,6.54549755859375,-0.9842681884765625,-0.2301025390625,0.03570556640625
1751013386069440300,6.555440185546875,-0.9820556640625,-0.2310638427734375,0.0352020263671875
1751013386079383300,6.56538330078125,-0.9817352294921875,-0.2327117919921875,0.0340423583984375
1751013386089326300,6.575326416015625,-0.98388671875,-0.2337799072265625,0.035858154296875
1751013386099269400,6.585269287109375,-0.9817352294921875,-0.233795166015625,0.03778076171875
1751013386109212400,6.59521240234375,-0.97662353515625,-0.23370361328125,0.03729248046875
1751013386119155500,6.605155517578125,-0.975128173828125,-0.232879638671875,0.0377044677734375
1751013386129098200,6.61509814453125,-0.97882080078125,-0.233978271484375,0.0363006591796875
1751013386139041300,6.625041259765625,-0.9820556640625,-0.2340850830078125,0.03765869140625
1751013386148984300,6.634984375,-0.984405517578125,-0.2342071533203125,0.036376953125
1751013386158927000,6.644927001953125,-0.9865264892578125,-0.2340240478515625,0.037017822265625
1751013386168870100,6.6548701171875,-0.9854888916015625,-0.2332000732421875,0.0367279052734375
1751013386178813200,6.664813232421875,-0.9838714599609375,-0.235015869140625,0.0350189208984375
1751013386188756200,6.674756103515625,-0.9831695556640625,-0.235198974609375,0.0361328125
1751013386198699300,6.68469921875,-0.9830169677734375,-0.235595703125,0.0376739501953125
1751013386208642300,6.694642333984375,-0.9843597412109375,-0.2331085205078125,0.0378265380859375
1751013386218585300,6.70458544921875,-0.9893035888671875,-0.2317352294921875,0.0372772216796875
1751013386228528400,6.7145283203125,-0.99139404296875,-0.2328033447265625,0.0349578857421875
1751013386238471200,6.72447119140625,-0.99249267578125,-0.2318878173828125,0.0349884033203125
1751013386248414200,6.734414306640625,-0.99169921875,-0.2303314208984375,0.03619384765625
1751013386258357200,6.744357177734375,-0.992523193359375,-0.2309417724609375,0.0364990234375
1751013386268300300,6.75430029296875,-0.993988037109375,-0.23114013671875,0.0381317138671875
1751013386278243300,6.764243408203125,-0.9969482421875,-0.23248291015625,0.0391387939453125
1751013386288186400,6.774186279296875,-0.996368408203125,-0.232818603515625,0.0380859375
1751013386298130000,6.7841298828125,-0.993988037109375,-0.2295379638671875,0.03924560546875
1751013386308072700,6.79407275390625,-0.995635986328125,-0.2276611328125,0.04046630859375
1751013386318015700,6.804015625,-0.9962158203125,-0.227508544921875,0.0421600341796875
1751013386327958800,6.813958740234375,-0.9935760498046875,-0.225555419921875,0.0432586669921875
1751013386337901800,6.82390185546875,-0.9907073974609375,-0.225067138671875,0.0424652099609375
1751013386347844900,6.833844970703125,-0.9889984130859375,-0.226104736328125,0.0409698486328125
1751013386357788000,6.843787841796875,-0.9859771728515625,-0.2261505126953125,0.040252685546875
1751013386367731000,6.85373095703125,-0.983306884765625,-0.2259368896484375,0.0383453369140625
1751013386377674000,6.863674072265625,-0.98284912109375,-0.2264251708984375,0.0397186279296875
1751013386387616500,6.873616455078125,-0.97906494140625,-0.2282867431640625,0.043426513671875
1751013386397559600,6.8835595703125,-0.980255126953125,-0.2266998291015625,0.0438079833984375
1751013386407502600,6.893502685546875,-0.98858642578125,-0.224639892578125,0.0442352294921875
1751013386417445600,6.903445556640625,-0.99627685546875,-0.2238616943359375,0.0454254150390625
1751013386427388700,6.913388671875,-0.995452880859375,-0.223052978515625,0.0465850830078125
1751013386437331700,6.923331787109375,-0.991973876953125,-0.22161865234375,0.042816162109375
1751013386447274800,6.933274658203125,-0.990631103515625,-0.2219696044921875,0.0389404296875
1751013386457217800,6.9432177734375,-0.989349365234375,-0.223114013671875,0.0384674072265625
1751013386467160600,6.95316064453125,-0.987823486328125,-0.2234954833984375,0.0393218994140625
1751013386477103600,6.963103515625,-0.9854888916015625,-0.2253875732421875,0.039093017578125
1751013386487046700,6.973046630859375,-0.9854888916015625,-0.2283477783203125,0.038818359375
1751013386496989700,6.98298974609375,-0.986358642578125,-0.231719970703125,0.038543701171875
1751013386506932700,6.9929326171875,-0.9852752685546875,-0.229736328125,0.039886474609375
1751013386516875800,7.002875732421875,-0.9921417236328125,-0.2269744873046875,0.042266845703125
1751013386526818800,7.01281884765625,-0.993377685546875,-0.226409912109375,0.0444183349609375
1751013386536761900,7.022761962890625,-0.9917755126953125,-0.2255706787109375,0.0458221435546875
1751013386546705000,7.032704833984375,-0.9917449951171875,-0.2234039306640625,0.0457763671875
1751013386556647700,7.042647705078125,-0.990753173828125,-0.2226409912109375,0.0451812744140625
1751013386566590700,7.0525908203125,-0.9882965087890625,-0.222259521484375,0.0460052490234375
1751013386576533800,7.06253369140625,-0.9882354736328125,-0.219879150390625,0.0447845458984375
1751013386586476800,7.072476806640625,-0.9891815185546875,-0.218841552734375,0.0465850830078125
1751013386596419800,7.082419921875,-0.9878692626953125,-0.221343994140625,0.046966552734375
1751013386606363000,7.09236279296875,-0.9857330322265625,-0.2219696044921875,0.047637939453125
1751013386616306000,7.102305908203125,-0.9837799072265625,-0.2221527099609375,0.0475311279296875
1751013386626249000,7.1122490234375,-0.9807891845703125,-0.22186279296875,0.0474700927734375
1751013386636191700,7.122191650390625,-0.9808197021484375,-0.2211151123046875,0.0489044189453125
1751013386646134800,7.132134765625,-0.9837188720703125,-0.21875,0.0509490966796875
1751013386656077800,7.142077880859375,-0.9822845458984375,-0.217498779296875,0.0509796142578125
1751013386666020600,7.1520205078125,-0.9799346923828125,-0.2158203125,0.0513153076171875
1751013386675963600,7.161963623046875,-0.98291015625,-0.21490478515625,0.0542449951171875
1751013386685906700,7.17190673828125,-0.9844207763671875,-0.2155303955078125,0.0516357421875
1751013386695849700,7.181849609375,-0.9891357421875,-0.2165985107421875,0.05084228515625
1751013386705792800,7.191792724609375,-0.9886474609375,-0.2173309326171875,0.054229736328125
1751013386715735600,7.201735595703125,-0.9883880615234375,-0.217742919921875,0.05535888671875
1751013386725678600,7.2116787109375,-0.98626708984375,-0.21722412109375,0.051544189453125
1751013386735621600,7.22162158203125,-0.983551025390625,-0.2192535400390625,0.05126953125
1751013386745564700,7.231564697265625,-0.982177734375,-0.219818115234375,0.05010986328125
1751013386755507700,7.2415078125,-0.9857025146484375,-0.2178192138671875,0.0494384765625
1751013386765450800,7.25145068359375,-0.9904022216796875,-0.2180023193359375,0.05035400390625
1751013386775393800,7.261393798828125,-0.99249267578125,-0.21875,0.050872802734375
1751013386785336800,7.2713369140625,-0.991790771484375,-0.2190399169921875,0.050750732421875
1751013386795279600,7.281279541015625,-0.98931884765625,-0.2194061279296875,0.0494232177734375
1751013386805222700,7.29122265625,-0.9853973388671875,-0.2216644287109375,0.0457611083984375
1751013386815165700,7.301165771484375,-0.984161376953125,-0.225341796875,0.0464019775390625
1751013386825108700,7.311108642578125,-0.9850006103515625,-0.2264862060546875,0.0471649169921875
1751013386835051800,7.3210517578125,-0.9867095947265625,-0.2256622314453125,0.0483551025390625
1751013386844994800,7.330994873046875,-0.987457275390625,-0.2226715087890625,0.0528411865234375
1751013386854937900,7.340937744140625,-0.9887847900390625,-0.2183380126953125,0.0562744140625
1751013386864881000,7.350880859375,-0.993621826171875,-0.2165374755859375,0.056671142578125
1751013386874824000,7.360823974609375,-0.9919281005859375,-0.21771240234375,0.055328369140625
1751013386884766700,7.3707666015625,-0.988983154296875,-0.218780517578125,0.0508575439453125
1751013386894709800,7.380709716796875,-0.987518310546875,-0.218719482421875,0.04803466796875
1751013386904652800,7.39065283203125,-0.987091064453125,-0.218994140625,0.0472869873046875
1751013386914595800,7.400595947265625,-0.9867095947265625,-0.218963623046875,0.0489044189453125
1751013386924539000,7.410538818359375,-0.9874725341796875,-0.218292236328125,0.0511932373046875
1751013386934482000,7.42048193359375,-0.9908294677734375,-0.2158050537109375,0.0504302978515625
1751013386944424700,7.4304248046875,-0.9941864013671875,-0.2148590087890625,0.0508575439453125
1751013386954367700,7.44036767578125,-0.994903564453125,-0.2131195068359375,0.0510101318359375
1751013386964310500,7.450310546875,-0.9950714111328125,-0.21240234375,0.047760009765625
1751013386974253600,7.460253662109375,-0.9948883056640625,-0.2133636474609375,0.0458831787109375
1751013386984196600,7.470196533203125,-0.990020751953125,-0.21417236328125,0.0444793701171875
1751013386994139600,7.4801396484375,-0.982635498046875,-0.2163848876953125,0.04217529296875
1751013387004082700,7.490082763671875,-0.9790802001953125,-0.2188720703125,0.03857421875
1751013387014025700,7.500025634765625,-0.979278564453125,-0.2220458984375,0.0374603271484375
1751013387023968800,7.50996875,-0.979949951171875,-0.223663330078125,0.035858154296875
1751013387033911800,7.519911865234375,-0.9827728271484375,-0.224365234375,0.0367584228515625
1751013387043854600,7.5298544921875,-0.9878082275390625,-0.2237396240234375,0.037841796875
1751013387053797600,7.539797607421875,-0.9923095703125,-0.2218780517578125,0.0400543212890625
1751013387063740700,7.54974072265625,-0.9936065673828125,-0.2194061279296875,0.04266357421875
1751013387073683700,7.55968359375,-0.99310302734375,-0.217132568359375,0.044708251953125
1751013387083626800,7.569626708984375,-0.99224853515625,-0.2166900634765625,0.0445709228515625
1751013387093569800,7.57956982421875,-0.9885101318359375,-0.2149200439453125,0.04254150390625
1751013387103512800,7.589512939453125,-0.985992431640625,-0.2156829833984375,0.0399017333984375
1751013387113455900,7.599455810546875,-0.9857635498046875,-0.2158355712890625,0.0386199951171875
1751013387123398700,7.609398681640625,-0.98883056640625,-0.2173004150390625,0.0374298095703125
1751013387133341700,7.619341796875,-0.9962158203125,-0.2185821533203125,0.03924560546875
1751013387143284700,7.62928466796875,-1.0004425048828125,-0.2187347412109375,0.04241943359375
1751013387153227800,7.639227783203125,-1.0006103515625,-0.218292236328125,0.0435791015625
1751013387163170800,7.6491708984375,-0.9967193603515625,-0.2181396484375,0.04315185546875
1751013387173113900,7.65911376953125,-0.988922119140625,-0.217315673828125,0.0413818359375
1751013387183057000,7.669056884765625,-0.9812774658203125,-0.2191162109375,0.0388031005859375
1751013387193000000,7.679,-0.9818267822265625,-0.220489501953125,0.03631591796875
1751013387202943000,7.68894287109375,-0.9816741943359375,-0.2229461669921875,0.0355682373046875
1751013387212885800,7.6988857421875,-0.9827728271484375,-0.224761962890625,0.0358734130859375
1751013387222828800,7.708828857421875,-0.983978271484375,-0.2271728515625,0.0380706787109375
1751013387232771600,7.718771484375,-0.9819183349609375,-0.2284698486328125,0.0386962890625
1751013387242714600,7.728714599609375,-0.9807281494140625,-0.22735595703125,0.0408935546875
1751013387252657700,7.73865771484375,-0.9817962646484375,-0.226287841796875,0.0430908203125
1751013387262600700,7.7486005859375,-0.9854736328125,-0.224151611328125,0.0432891845703125
1751013387272543700,7.758543701171875,-0.9893798828125,-0.220855712890625,0.0428466796875
1751013387282486800,7.76848681640625,-0.9922027587890625,-0.2189178466796875,0.0407257080078125
1751013387292429600,7.7784296875,-0.992431640625,-0.217437744140625,0.0398712158203125
1751013387302372600,7.78837255859375,-0.9959869384765625,-0.21661376953125,0.039520263671875
1751013387312315600,7.798315673828125,-0.99700927734375,-0.2160797119140625,0.038848876953125
1751013387322258700,7.8082587890625,-0.99603271484375,-0.2144012451171875,0.038177490234375
1751013387332201700,7.81820166015625,-0.995208740234375,-0.2146453857421875,0.041168212890625
1751013387342144800,7.828144775390625,-0.9971923828125,-0.215087890625,0.042388916015625
1751013387352087800,7.838087890625,-0.9938812255859375,-0.2152099609375,0.0425872802734375
1751013387362030800,7.84803076171875,-0.992767333984375,-0.217559814453125,0.044921875
1751013387371973600,7.8579736328125,-0.98956298828125,-0.219482421875,0.0441131591796875
1751013387381916700,7.867916748046875,-0.98583984375,-0.2187652587890625,0.045318603515625
1751013387391859700,7.877859619140625,-0.9840087890625,-0.21759033203125,0.0478668212890625
1751013387401802800,7.887802734375,-0.9818115234375,-0.2180938720703125,0.0481719970703125
1751013387411745800,7.897745849609375,-0.980194091796875,-0.2175445556640625,0.0489654541015625
1751013387421688800,7.907688720703125,-0.978057861328125,-0.2183990478515625,0.0477447509765625
1751013387431632000,7.9176318359375,-0.9780426025390625,-0.2177581787109375,0.047607421875
1751013387441575000,7.927574951171875,-0.978118896484375,-0.2171783447265625,0.04766845703125
1751013387451517700,7.937517578125,-0.980316162109375,-0.214599609375,0.04913330078125
1751013387461460700,7.947460693359375,-0.9824676513671875,-0.2133636474609375,0.0485382080078125
1751013387471403800,7.95740380859375,-0.985870361328125,-0.21356201171875,0.047149658203125
1751013387481346800,7.967346923828125,-0.9924163818359375,-0.2125244140625,0.0485687255859375
1751013387491289900,7.977289794921875,-0.9942626953125,-0.212127685546875,0.0489044189453125
1751013387501233000,7.98723291015625,-0.996551513671875,-0.2129669189453125,0.0500946044921875
1751013387511176000,7.997176025390625,-0.993682861328125,-0.213043212890625,0.0466156005859375
1751013387521119000,8.007118896484375,-0.9929656982421875,-0.2137908935546875,0.045196533203125
1751013387531061800,8.017061767578125,-0.9910125732421875,-0.215087890625,0.0438690185546875
1751013387541004800,8.0270048828125,-0.9896087646484375,-0.21722412109375,0.043365478515625
1751013387550947800,8.03694775390625,-0.9908599853515625,-0.218353271484375,0.04449462890625
1751013387560890600,8.046890625,-0.9937896728515625,-0.219024658203125,0.0472564697265625
1751013387570833700,8.056833740234374,-0.9949188232421875,-0.2209930419921875,0.0496826171875
1751013387580776700,8.066776611328125,-0.9949493408203125,-0.220977783203125,0.050811767578125
1751013387590719700,8.0767197265625,-0.9941864013671875,-0.2199249267578125,0.0513763427734375
1751013387600662800,8.086662841796874,-0.9948883056640625,-0.21923828125,0.0494842529296875
1751013387610605800,8.096605712890625,-0.99346923828125,-0.2188720703125,0.049285888671875
1751013387620548600,8.106548583984376,-0.992523193359375,-0.218536376953125,0.0491485595703125
1751013387630491600,8.11649169921875,-0.9919586181640625,-0.217742919921875,0.0488128662109375
1751013387640434700,8.1264345703125,-0.98944091796875,-0.21783447265625,0.0484619140625
1751013387650377700,8.136377685546876,-0.986419677734375,-0.2179107666015625,0.0481719970703125
1751013387660320800,8.14632080078125,-0.98638916015625,-0.2187652587890625,0.0497283935546875
1751013387670263800,8.156263916015625,-0.987823486328125,-0.2170562744140625,0.0501556396484375
1751013387680206800,8.166206787109376,-0.9886016845703125,-0.216796875,0.051025390625
1751013387690150000,8.17614990234375,-0.987548828125,-0.216400146484375,0.050872802734375
1751013387700092700,8.1860927734375,-0.98681640625,-0.216949462890625,0.0501556396484375
1751013387710035700,8.19603564453125,-0.987762451171875,-0.2163543701171875,0.0496826171875
1751013387719978800,8.205978759765625,-0.9886016845703125,-0.21746826171875,0.049560546875
1751013387729921800,8.215921875,-0.98834228515625,-0.218475341796875,0.049530029296875
1751013387739864800,8.22586474609375,-0.989349365234375,-0.217803955078125,0.0500640869140625
1751013387749807900,8.235807861328125,-0.9857025146484375,-0.216400146484375,0.050689697265625
1751013387759751000,8.2457509765625,-0.9822998046875,-0.217529296875,0.050567626953125
1751013387769694000,8.25569384765625,-0.9815826416015625,-0.2173919677734375,0.0512542724609375
1751013387779636700,8.26563671875,-0.985565185546875,-0.2152557373046875,0.0513916015625
1751013387789579800,8.275579833984375,-0.987884521484375,-0.21453857421875,0.0513916015625
1751013387799522800,8.285522705078124,-0.9914093017578125,-0.215545654296875,0.0527801513671875
1751013387809465900,8.2954658203125,-0.9928131103515625,-0.216278076171875,0.054290771484375
1751013387819409000,8.305408935546875,-0.990142822265625,-0.2174224853515625,0.052398681640625
1751013387829352000,8.31535205078125,-0.988494873046875,-0.21905517578125,0.0500335693359375
1751013387839294700,8.325294677734375,-0.986572265625,-0.219940185546875,0.0484466552734375
1751013387849237800,8.33523779296875,-0.985076904296875,-0.2196044921875,0.046478271484375
1751013387859180800,8.345180908203124,-0.9865264892578125,-0.2185821533203125,0.0458831787109375
1751013387869123600,8.35512353515625,-0.9861297607421875,-0.21844482421875,0.046722412109375
1751013387879066600,8.365066650390625,-0.988250732421875,-0.2183074951171875,0.0482635498046875
1751013387889009700,8.375009765625,-0.9892120361328125,-0.2199554443359375,0.0487213134765625
1751013387898952700,8.38495263671875,-0.9874114990234375,-0.2221527099609375,0.0472259521484375
1751013387908895700,8.394895751953126,-0.9857940673828125,-0.2208709716796875,0.046142578125
1751013387918838800,8.4048388671875,-0.987457275390625,-0.2205047607421875,0.0458526611328125
1751013387928781800,8.41478173828125,-0.9890289306640625,-0.219696044921875,0.047027587890625
1751013387938724900,8.424724853515626,-0.9894866943359375,-0.217315673828125,0.0453948974609375
1751013387948667600,8.434667724609374,-0.987274169921875,-0.2169189453125,0.044219970703125
1751013387958610700,8.444610595703125,-0.982879638671875,-0.2180023193359375,0.0404052734375
1751013387968553700,8.4545537109375,-0.9845123291015625,-0.220123291015625,0.0374298095703125
1751013387978496800,8.464496826171874,-0.9840240478515625,-0.21990966796875,0.0392303466796875
1751013387988439800,8.474439697265625,-0.9848785400390625,-0.2177581787109375,0.0416717529296875
1751013387998382800,8.4843828125,-0.9892578125,-0.218597412109375,0.0445404052734375
1751013388008326000,8.494325927734375,-0.9922027587890625,-0.22021484375,0.0469818115234375
1751013388018269000,8.50426904296875,-0.988677978515625,-0.2194366455078125,0.0475921630859375
1751013388028211700,8.514211669921876,-0.984954833984375,-0.2193145751953125,0.046875
1751013388038154800,8.52415478515625,-0.985321044921875,-0.218780517578125,0.0450439453125
1751013388048097800,8.534097900390625,-0.98504638671875,-0.2192840576171875,0.0445098876953125
1751013388058040800,8.544040771484376,-0.9857025146484375,-0.218841552734375,0.0440826416015625
1751013388067984000,8.55398388671875,-0.9879608154296875,-0.2194366455078125,0.043182373046875
1751013388077927000,8.563927001953125,-0.9891204833984375,-0.2215118408203125,0.0443878173828125
1751013388087870000,8.573869873046876,-0.98919677734375,-0.222381591796875,0.0443878173828125
1751013388097813000,8.58381298828125,-0.99078369140625,-0.2215423583984375,0.046600341796875
1751013388107755800,8.593755859375,-0.9901123046875,-0.2211151123046875,0.046478271484375
1751013388117698600,8.603698486328126,-0.99029541015625,-0.22039794921875,0.0434417724609375
1751013388127641600,8.6136416015625,-0.993743896484375,-0.2187042236328125,0.0451507568359375
1751013388137586000,8.6235859375,-0.9926300048828125,-0.21630859375,0.047119140625
1751013388147529000,8.633529052734374,-0.9938201904296875,-0.2144775390625,0.04400634765625
1751013388157472000,8.643471923828125,-0.9988861083984375,-0.215362548828125,0.0435333251953125
1751013388167414800,8.653414794921876,-0.9979705810546875,-0.2140045166015625,0.04510498046875
1751013388177357600,8.663357666015624,-0.993377685546875,-0.2137451171875,0.04754638671875
1751013388187300600,8.673300537109375,-0.9928131103515625,-0.2143402099609375,0.046783447265625
1751013388197243600,8.68324365234375,-0.99359130859375,-0.215301513671875,0.044708251953125
1751013388207186700,8.693186767578124,-0.9909210205078125,-0.21875,0.0440826416015625
1751013388217129700,8.703129638671875,-0.9881439208984375,-0.2216339111328125,0.043731689453125
1751013388227072800,8.71307275390625,-0.985809326171875,-0.2222747802734375,0.0445709228515625
1751013388237015800,8.723015869140625,-0.98638916015625,-0.2230072021484375,0.0471954345703125
1751013388246958800,8.732958740234375,-0.984893798828125,-0.2235260009765625,0.0466461181640625
1751013388256901600,8.742901611328126,-0.98260498046875,-0.2234344482421875,0.0464324951171875
1751013388266844700,8.7528447265625,-0.9816131591796875,-0.2220306396484375,0.0467376708984375
1751013388276787700,8.76278759765625,-0.9823150634765625,-0.22015380859375,0.046142578125
1751013388286730800,8.772730712890626,-0.9849700927734375,-0.2196502685546875,0.045074462890625
1751013388296673800,8.782673828125,-0.987152099609375,-0.2203826904296875,0.0447845458984375
1751013388306620400,8.792620361328124,-0.9903564453125,-0.220611572265625,0.044921875
1751013388316563200,8.802563232421875,-0.99127197265625,-0.2201690673828125,0.0451812744140625
1751013388326506200,8.81250634765625,-0.9882354736328125,-0.2221221923828125,0.04547119140625
1751013388336449000,8.822448974609374,-0.987762451171875,-0.22308349609375,0.0449676513671875
1751013388346392000,8.83239208984375,-0.98687744140625,-0.222442626953125,0.0449981689453125
1751013388356335000,8.842335205078125,-0.9846343994140625,-0.2207183837890625,0.04510498046875
1751013388366278100,8.852278076171874,-0.9889068603515625,-0.2189178466796875,0.0479888916015625
1751013388376221200,8.86222119140625,-0.9921722412109375,-0.2183685302734375,0.0496673583984375
1751013388386164200,8.872164306640625,-0.9937744140625,-0.2162628173828125,0.05023193359375
1751013388396107300,8.882107177734374,-0.9917144775390625,-0.217132568359375,0.047607421875
1751013388406050300,8.89205029296875,-0.9893798828125,-0.2179107666015625,0.0476837158203125
1751013388415993000,8.9019931640625,-0.9878082275390625,-0.2191619873046875,0.0469207763671875
1751013388425936100,8.91193603515625,-0.9864959716796875,-0.221527099609375,0.044952392578125
1751013388435879200,8.921879150390625,-0.98187255859375,-0.2257232666015625,0.0426025390625
1751013388445822200,8.931822265625,-0.9804840087890625,-0.2274627685546875,0.0412139892578125
1751013388455765200,8.94176513671875,-0.9818267822265625,-0.2243804931640625,0.04315185546875
1751013388465708300,8.951708251953125,-0.987640380859375,-0.2220916748046875,0.0477294921875
1751013388475651300,8.9616513671875,-0.9898223876953125,-0.2212371826171875,0.0474853515625
1751013388485594400,8.971594482421875,-0.990081787109375,-0.2201385498046875,0.04595947265625
1751013388495537400,8.981537353515625,-0.9888763427734375,-0.220733642578125,0.045379638671875
1751013388505480200,8.991480224609376,-0.9866790771484375,-0.2228240966796875,0.0428314208984375
1751013388515423200,9.00142333984375,-0.9834747314453125,-0.22430419921875,0.040771484375
1751013388525366300,9.0113662109375,-0.9821319580078125,-0.222869873046875,0.0420379638671875
1751013388535309300,9.021309326171876,-0.9855804443359375,-0.2205810546875,0.0443572998046875
1751013388545252400,9.03125244140625,-0.9879913330078125,-0.21966552734375,0.0460662841796875
1751013388555195400,9.0411953125,-0.990081787109375,-0.2194061279296875,0.048187255859375
1751013388565138400,9.051138427734376,-0.9926910400390625,-0.219879150390625,0.050689697265625
1751013388575081500,9.06108154296875,-0.9913787841796875,-0.2210845947265625,0.0514984130859375
1751013388585024300,9.071024169921875,-0.9864654541015625,-0.2215576171875,0.0479583740234375
1751013388594967300,9.08096728515625,-0.985321044921875,-0.2223358154296875,0.046295166015625
1751013388604910000,9.09091015625,-0.9848175048828125,-0.224945068359375,0.04412841796875
1751013388614853000,9.10085302734375,-0.98406982421875,-0.22552490234375,0.0435791015625
1751013388624796200,9.110796142578126,-0.9842071533203125,-0.225067138671875,0.0459747314453125
1751013388634739200,9.1207392578125,-0.98211669921875,-0.2265777587890625,0.04510498046875
1751013388644682200,9.13068212890625,-0.98114013671875,-0.2258758544921875,0.0454254150390625
1751013388654625300,9.140625244140624,-0.9830474853515625,-0.2260894775390625,0.045257568359375
1751013388664568000,9.150568115234375,-0.988250732421875,-0.225677490234375,0.045501708984375
1751013388674511000,9.160510986328125,-0.9902191162109375,-0.2239227294921875,0.04571533203125
1751013388684454100,9.1704541015625,-0.98974609375,-0.22314453125,0.045989990234375
1751013388694397200,9.180397216796875,-0.9897918701171875,-0.2220611572265625,0.04388427734375
1751013388704340200,9.19034033203125,-0.991180419921875,-0.2224273681640625,0.0425872802734375
1751013388714283300,9.200283203125,-0.9894561767578125,-0.2231903076171875,0.044708251953125
1751013388724226300,9.210226318359375,-0.9873504638671875,-0.2216339111328125,0.0443115234375
1751013388734169300,9.22016943359375,-0.9887237548828125,-0.22186279296875,0.0454254150390625
1751013388744112000,9.230112060546874,-0.9893646240234375,-0.222747802734375,0.0445556640625
1751013388754055200,9.24005517578125,-0.9903564453125,-0.2238922119140625,0.045867919921875
1751013388763998200,9.249998291015626,-0.9922637939453125,-0.2239837646484375,0.0477752685546875
1751013388773941200,9.259941162109374,-0.9925537109375,-0.2236328125,0.0491180419921875
1751013388783884300,9.26988427734375,-0.9914398193359375,-0.224578857421875,0.0478363037109375
1751013388793827300,9.279827392578126,-0.984893798828125,-0.2254180908203125,0.044921875
1751013388803770400,9.289770263671874,-0.9813995361328125,-0.2263641357421875,0.042449951171875
1751013388813713400,9.29971337890625,-0.979339599609375,-0.2284088134765625,0.04388427734375
1751013388823656400,9.309656494140626,-0.98004150390625,-0.230255126953125,0.044830322265625
1751013388833599200,9.31959912109375,-0.9777984619140625,-0.2298431396484375,0.0448150634765625
1751013388843542300,9.329542236328125,-0.980133056640625,-0.227783203125,0.0464324951171875
1751013388853485300,9.3394853515625,-0.98309326171875,-0.2282257080078125,0.0471343994140625
1751013388863428400,9.349428466796875,-0.978057861328125,-0.22808837890625,0.04339599609375
1751013388873371400,9.359371337890625,-0.9831085205078125,-0.224639892578125,0.040618896484375
1751013388883314200,9.369314208984376,-0.985931396484375,-0.224273681640625,0.044830322265625
1751013388893257200,9.37925732421875,-0.9893951416015625,-0.2242279052734375,0.0469207763671875
1751013388903201300,9.389201171875,-0.9907379150390625,-0.22308349609375,0.0466766357421875
1751013388913144300,9.399144287109374,-0.987457275390625,-0.2237091064453125,0.0447845458984375
1751013388923087400,9.40908740234375,-0.98828125,-0.224578857421875,0.04449462890625
1751013388933030100,9.419030029296875,-0.9907989501953125,-0.2251739501953125,0.04364013671875
1751013388942973200,9.42897314453125,-0.9886474609375,-0.223968505859375,0.0418548583984375
1751013388952916200,9.438916259765625,-0.98663330078125,-0.2233734130859375,0.042388916015625
1751013388962859300,9.448859375,-0.988677978515625,-0.2238311767578125,0.0429534912109375
1751013388972802000,9.458802001953124,-0.98797607421875,-0.2251129150390625,0.043487548828125
1751013388982745000,9.4687451171875,-0.98785400390625,-0.2288970947265625,0.0441436767578125
1751013388992688000,9.478688232421876,-0.9866943359375,-0.230255126953125,0.0439910888671875
1751013389002631200,9.488631103515624,-0.9887847900390625,-0.22991943359375,0.0435638427734375
1751013389012574200,9.49857421875,-0.989288330078125,-0.22821044921875,0.04437255859375
1751013389022517200,9.508517333984376,-0.9830322265625,-0.2264862060546875,0.043701171875
1751013389032460300,9.518460205078124,-0.98150634765625,-0.2261810302734375,0.041900634765625
1751013389042403300,9.5284033203125,-0.982666015625,-0.2263946533203125,0.0421142578125
1751013389052346000,9.53834619140625,-0.9806060791015625,-0.226593017578125,0.0407257080078125
1751013389062289200,9.5482890625,-0.981689453125,-0.227020263671875,0.038238525390625
1751013389072232200,9.558232177734375,-0.9861907958984375,-0.2266387939453125,0.040771484375
1751013389082175200,9.56817529296875,-0.9839019775390625,-0.227325439453125,0.0417938232421875
1751013389092118300,9.5781181640625,-0.984344482421875,-0.226806640625,0.0391845703125
1751013389102061300,9.588061279296875,-0.9864349365234375,-0.2251434326171875,0.040740966796875
1751013389112004400,9.59800439453125,-0.98779296875,-0.223968505859375,0.04376220703125
1751013389121947400,9.607947509765625,-0.988525390625,-0.2227325439453125,0.04669189453125
1751013389131890200,9.61789013671875,-0.985382080078125,-0.22369384765625,0.0463714599609375
1751013389141833200,9.627833251953126,-0.98309326171875,-0.2251739501953125,0.044158935546875
1751013389151776300,9.6377763671875,-0.9852142333984375,-0.223846435546875,0.0428924560546875
1751013389161719300,9.64771923828125,-0.9843902587890625,-0.2244415283203125,0.0431671142578125
1751013389171662300,9.657662353515626,-0.98370361328125,-0.2264404296875,0.04010009765625
1751013389181605400,9.66760546875,-0.9871673583984375,-0.2284393310546875,0.038604736328125
1751013389191548400,9.67754833984375,-0.9868316650390625,-0.23138427734375,0.0410308837890625
1751013389201491500,9.687491455078124,-0.9852294921875,-0.2315673828125,0.0416259765625
1751013389211434200,9.697434326171875,-0.983001708984375,-0.2320098876953125,0.04083251953125
1751013389221377000,9.707376953125,-0.9846649169921875,-0.2318878173828125,0.0415496826171875
1751013389231320000,9.717320068359374,-0.9862213134765625,-0.2305908203125,0.0398712158203125
1751013389241263000,9.72726318359375,-0.98468017578125,-0.228271484375,0.0380859375
1751013389251206100,9.7372060546875,-0.9874725341796875,-0.2276763916015625,0.038787841796875
1751013389261149200,9.747149169921874,-0.9906463623046875,-0.2271575927734375,0.0404052734375
1751013389271092200,9.75709228515625,-0.9873809814453125,-0.2274932861328125,0.04034423828125
1751013389281035300,9.76703515625,-0.985809326171875,-0.22772216796875,0.0403289794921875
1751013389290978300,9.776978271484374,-0.9856109619140625,-0.2284393310546875,0.042816162109375
1751013389300917500,9.78691748046875,-0.9850006103515625,-0.2290496826171875,0.0442657470703125
1751013389310860300,9.7968603515625,-0.9879608154296875,-0.228424072265625,0.0422821044921875
1751013389320803300,9.80680322265625,-0.98895263671875,-0.2288665771484375,0.0412139892578125
1751013389330746400,9.816746337890624,-0.9881591796875,-0.2308349609375,0.0409393310546875
1751013389340689400,9.826689453125,-0.9856109619140625,-0.2320556640625,0.039642333984375
1751013389350632400,9.836632568359375,-0.985107421875,-0.2307281494140625,0.0404815673828125
1751013389360575500,9.846575439453124,-0.9847564697265625,-0.2319183349609375,0.042236328125
1751013389370518500,9.8565185546875,-0.9813690185546875,-0.2330322265625,0.0429229736328125
1751013389380461600,9.866461669921875,-0.98455810546875,-0.232666015625,0.0417327880859375
1751013389390404400,9.876404296875,-0.9878387451171875,-0.23370361328125,0.042083740234375
1751013389400347400,9.886347412109375,-0.98773193359375,-0.23431396484375,0.0433349609375
1751013389410290400,9.89629052734375,-0.9898681640625,-0.2334136962890625,0.0447845458984375
1751013389420233500,9.9062333984375,-0.9925689697265625,-0.2346649169921875,0.0444793701171875
1751013389430176500,9.916176513671875,-0.992828369140625,-0.2353363037109375,0.045623779296875
1751013389440119600,9.92611962890625,-0.985321044921875,-0.232086181640625,0.04302978515625
1751013389450063400,9.9360634765625,-0.9859161376953125,-0.2291259765625,0.040740966796875
1751013389460006400,9.94600634765625,-0.9875030517578125,-0.22930908203125,0.0423126220703125
1751013389469949400,9.955949462890626,-0.9864044189453125,-0.2292938232421875,0.0429534912109375
1751013389479892500,9.965892578125,-0.9854583740234375,-0.2271881103515625,0.042999267578125
1751013389489835500,9.97583544921875,-0.988525390625,-0.22589111328125,0.045013427734375
1751013389499778600,9.985778564453126,-0.9874420166015625,-0.2282562255859375,0.04388427734375
1751013389509721600,9.9957216796875,-0.983734130859375,-0.2293243408203125,0.0405426025390625
1751013389519664600,10.00566455078125,-0.9832916259765625,-0.229705810546875,0.0398406982421875
1751013389529607400,10.015607421875,-0.9778289794921875,-0.22711181640625,0.0420379638671875
1751013389539550500,10.025550537109375,-0.9758148193359375,-0.22344970703125,0.0428924560546875
1751013389549493500,10.035493408203125,-0.9786529541015625,-0.2234649658203125,0.0446929931640625
1751013389559436500,10.0454365234375,-0.979339599609375,-0.226959228515625,0.0457916259765625
1751013389569379600,10.055379638671875,-0.9786224365234375,-0.2293853759765625,0.0440216064453125
1751013389579322600,10.065322509765625,-0.9786224365234375,-0.2282562255859375,0.0447540283203125
1751013389589265700,10.075265625,-0.9771881103515625,-0.22589111328125,0.045654296875
1751013389599208700,10.085208740234375,-0.9772491455078125,-0.226043701171875,0.0462646484375
1751013389609151500,10.0951513671875,-0.9806060791015625,-0.2279052734375,0.045074462890625
1751013389619094500,10.105094482421874,-0.9811248779296875,-0.2288360595703125,0.0444183349609375
1751013389629037300,10.115037353515625,-0.9795684814453125,-0.2286376953125,0.043975830078125
1751013389638980400,10.12498046875,-0.977996826171875,-0.2270965576171875,0.04327392578125
1751013389648923400,10.13492333984375,-0.9791107177734375,-0.228607177734375,0.0409698486328125
1751013389658866400,10.144866455078125,-0.9848785400390625,-0.2287139892578125,0.043121337890625
1751013389668809500,10.1548095703125,-0.990386962890625,-0.2274932861328125,0.0470123291015625
1751013389678752500,10.16475244140625,-0.9924774169921875,-0.226043701171875,0.048370361328125
1751013389688695600,10.174695556640625,-0.9960174560546875,-0.226806640625,0.0503387451171875
1751013389698638300,10.184638427734376,-0.9935150146484375,-0.2276458740234375,0.051055908203125
1751013389708581400,10.194581298828124,-0.9915618896484375,-0.2277679443359375,0.0499267578125
1751013389718524400,10.2045244140625,-0.9899444580078125,-0.227996826171875,0.0469207763671875
1751013389728467500,10.214467529296876,-0.9916229248046875,-0.2288665771484375,0.042694091796875
1751013389738410500,10.224410400390624,-0.9891204833984375,-0.23126220703125,0.0449981689453125
1751013389748353500,10.234353515625,-0.9867401123046875,-0.230255126953125,0.047882080078125
1751013389758296600,10.244296630859376,-0.9882965087890625,-0.2276763916015625,0.0477142333984375
1751013389768239600,10.254239501953125,-0.991302490234375,-0.2268524169921875,0.04766845703125
1751013389778182400,10.264182373046875,-0.991668701171875,-0.2284393310546875,0.0465087890625
1751013389788125400,10.27412548828125,-0.9902191162109375,-0.228668212890625,0.0447540283203125
1751013389798068500,10.284068359375,-0.9883880615234375,-0.2265625,0.0443115234375
1751013389808011500,10.294011474609375,-0.99066162109375,-0.2252044677734375,0.042633056640625
1751013389817954600,10.30395458984375,-0.992095947265625,-0.22509765625,0.043243408203125
1751013389827897600,10.313897705078125,-0.9881744384765625,-0.2247161865234375,0.046844482421875
1751013389837840600,10.323840576171875,-0.9864501953125,-0.222564697265625,0.0483245849609375
1751013389847783700,10.33378369140625,-0.9867706298828125,-0.222625732421875,0.0488433837890625
1751013389857726500,10.3437265625,-0.9841766357421875,-0.2265625,0.04693603515625
1751013389867669500,10.35366943359375,-0.9813995361328125,-0.22882080078125,0.0462493896484375
1751013389877612500,10.363612548828126,-0.9805145263671875,-0.2293243408203125,0.0471649169921875
1751013389887555600,10.3735556640625,-0.981048583984375,-0.229400634765625,0.04534912109375
1751013389897498600,10.38349853515625,-0.982177734375,-0.2285919189453125,0.0487823486328125
1751013389907442700,10.393442626953124,-0.980621337890625,-0.2257537841796875,0.054962158203125
1751013389917385500,10.403385498046875,-0.9806671142578125,-0.224578857421875,0.055511474609375
1751013389927328500,10.41332861328125,-0.9843597412109375,-0.227386474609375,0.049835205078125
1751013389937271600,10.423271484375,-0.9832763671875,-0.2321929931640625,0.04327392578125
1751013389947214600,10.433214599609375,-0.978973388671875,-0.231536865234375,0.042236328125
1751013389957157600,10.44315771484375,-0.9794464111328125,-0.2259674072265625,0.0472564697265625
1751013389967100400,10.453100341796874,-0.985107421875,-0.22369384765625,0.051300048828125
1751013389977043500,10.46304345703125,-0.9859161376953125,-0.2243194580078125,0.0511474609375
1751013389986986500,10.472986572265626,-0.9900054931640625,-0.223663330078125,0.05078125
1751013389996929300,10.48292919921875,-1.0001373291015625,-0.224334716796875,0.05352783203125
1751013390006872300,10.492872314453125,-1.0033111572265625,-0.224151611328125,0.053253173828125
1751013390016815400,10.5028154296875,-0.99737548828125,-0.2271881103515625,0.0495758056640625
1751013390026758400,10.51275830078125,-0.9893035888671875,-0.2313385009765625,0.0449066162109375
1751013390036701400,10.522701416015625,-0.986114501953125,-0.232086181640625,0.0445404052734375
1751013390046644500,10.53264453125,-0.990386962890625,-0.2291259765625,0.0478668212890625
1751013390056587500,10.54258740234375,-0.989898681640625,-0.2261199951171875,0.049163818359375
1751013390066530600,10.552530517578125,-0.9786529541015625,-0.22369384765625,0.0530853271484375
1751013390076473600,10.5624736328125,-0.8742523193359375,-0.2108154296875,0.0605621337890625
1751013390086416400,10.57241650390625,-0.9753265380859375,-0.21826171875,0.0698089599609375
1751013390096359400,10.582359375,-1.0261993408203125,-0.23529052734375,0.0577392578125
1751013390106302500,10.592302490234376,-1.0189208984375,-0.2546234130859375,0.040802001953125
1751013390116245500,10.60224560546875,-1.0187530517578125,-0.2456512451171875,0.0416107177734375
1751013390126188500,10.6121884765625,-1.00244140625,-0.2410125732421875,0.0547332763671875
1751013390136131600,10.622131591796874,-0.9976043701171875,-0.2447357177734375,0.048614501953125
1751013390146074600,10.63207470703125,-0.9960479736328125,-0.2491455078125,0.038970947265625
1751013390156017700,10.642017578125,-0.988616943359375,-0.2479400634765625,0.0526123046875
1751013390165960400,10.65196044921875,-0.97369384765625,-0.2324676513671875,0.0655517578125
