time,seconds_elapsed,z,y,x
1751013716508305400,0.124305419921875,-0.8975677490234375,-0.346832275390625,0.0805206298828125
1751013716518248200,0.134248291015625,-0.90264892578125,-0.353363037109375,0.0779266357421875
1751013716528191200,0.144191162109375,-0.9045562744140625,-0.3577423095703125,0.08038330078125
1751013716538135300,0.15413525390625,-0.90765380859375,-0.358917236328125,0.0816497802734375
1751013716548078300,0.164078369140625,-0.906951904296875,-0.364227294921875,0.08099365234375
1751013716558022400,0.1740224609375,-0.9120941162109375,-0.364593505859375,0.0839080810546875
1751013716567965400,0.18396533203125,-0.919281005859375,-0.3603668212890625,0.082855224609375
1751013716577909500,0.193909423828125,-0.916961669921875,-0.3563232421875,0.0794525146484375
1751013716587852500,0.2038525390625,-0.9197540283203125,-0.357025146484375,0.07275390625
1751013716597795600,0.213795654296875,-0.9280548095703125,-0.360809326171875,0.07073974609375
1751013716607739400,0.223739501953125,-0.9433746337890625,-0.3691558837890625,0.069488525390625
1751013716617682400,0.233682373046875,-0.9425506591796875,-0.3704833984375,0.06494140625
1751013716627626500,0.24362646484375,-0.9346923828125,-0.3690948486328125,0.0674591064453125
1751013716637569500,0.253569580078125,-0.9369964599609375,-0.3688201904296875,0.078887939453125
1751013716647512300,0.26351220703125,-0.93463134765625,-0.364990234375,0.0804290771484375
1751013716657456400,0.273456298828125,-0.93408203125,-0.36846923828125,0.08203125
1751013716667399400,0.2833994140625,-0.9362640380859375,-0.3777313232421875,0.086883544921875
1751013716677343500,0.293343505859375,-0.9497222900390625,-0.396087646484375,0.0441131591796875
1751013716687286300,0.303286376953125,-1.0377197265625,-0.426483154296875,-0.0721282958984375
1751013716697230600,0.313230712890625,-0.978363037109375,-0.3997039794921875,0.0252532958984375
1751013716707173600,0.323173583984375,-0.9347991943359375,-0.3808441162109375,0.1057586669921875
1751013716717116700,0.33311669921875,-0.9078216552734375,-0.39801025390625,0.096771240234375
1751013716727060500,0.343060546875,-0.889404296875,-0.4091644287109375,0.06610107421875
1751013716737003500,0.35300341796875,-0.9135894775390625,-0.399383544921875,0.06787109375
1751013716746947600,0.362947509765625,-0.9368133544921875,-0.3769378662109375,0.0740966796875
1751013716756890600,0.372890625,-0.9340362548828125,-0.366607666015625,0.0606689453125
1751013716766834400,0.38283447265625,-0.92486572265625,-0.376190185546875,0.0443267822265625
1751013716776777500,0.392777587890625,-0.9279937744140625,-0.387176513671875,0.0371246337890625
1751013716786720500,0.402720458984375,-0.93804931640625,-0.389404296875,0.0394134521484375
1751013716796664600,0.41266455078125,-0.9429473876953125,-0.3861541748046875,0.043365478515625
1751013716806607400,0.422607421875,-0.9286041259765625,-0.3816680908203125,0.0496063232421875
1751013716816551400,0.432551513671875,-0.904998779296875,-0.383087158203125,0.053924560546875
1751013716826494500,0.442494384765625,-0.8889923095703125,-0.3860626220703125,0.05859375
1751013716836437500,0.4524375,-0.8835906982421875,-0.38519287109375,0.06298828125
1751013716846381300,0.46238134765625,-0.882476806640625,-0.3851470947265625,0.063385009765625
1751013716856324400,0.472324462890625,-0.8894805908203125,-0.3944091796875,0.0579681396484375
1751013716866268400,0.482268310546875,-0.9176788330078125,-0.404998779296875,0.0624542236328125
1751013716876211500,0.49221142578125,-0.952423095703125,-0.4022674560546875,0.0685882568359375
1751013716886155500,0.502155517578125,-0.9557952880859375,-0.3960723876953125,0.0581512451171875
1751013716896098300,0.512098388671875,-0.9429931640625,-0.4040069580078125,0.04925537109375
1751013716906041300,0.522041259765625,-0.937347412109375,-0.4115142822265625,0.0558319091796875
1751013716915985700,0.531985595703125,-0.939483642578125,-0.4089202880859375,0.06280517578125
1751013716925928700,0.5419287109375,-0.9391021728515625,-0.4016571044921875,0.06829833984375
1751013716935872500,0.55187255859375,-0.946319580078125,-0.392913818359375,0.0661468505859375
1751013716945815600,0.561815673828125,-0.94000244140625,-0.3914642333984375,0.06243896484375
1751013716955759600,0.571759521484375,-0.927978515625,-0.397674560546875,0.0653076171875
1751013716965702700,0.58170263671875,-0.92181396484375,-0.40423583984375,0.06884765625
1751013716975645400,0.5916455078125,-0.9293670654296875,-0.406829833984375,0.07501220703125
1751013716985589500,0.601589599609375,-0.937103271484375,-0.405609130859375,0.0805206298828125
1751013716995532500,0.611532470703125,-0.9347686767578125,-0.408050537109375,0.0780792236328125
1751013717005476400,0.621476318359375,-0.927825927734375,-0.4152069091796875,0.07061767578125
1751013717015419400,0.63141943359375,-0.9273223876953125,-0.424560546875,0.065185546875
1751013717025362400,0.641362548828125,-0.9257049560546875,-0.4318084716796875,0.05950927734375
1751013717035306500,0.651306396484375,-0.9190826416015625,-0.4335174560546875,0.06036376953125
1751013717045249500,0.66124951171875,-0.926605224609375,-0.4342498779296875,0.058746337890625
1751013717055193300,0.671193359375,-0.9266204833984375,-0.43280029296875,0.0604248046875
1751013717065136400,0.681136474609375,-0.9169921875,-0.42919921875,0.06201171875
1751013717075080400,0.69108056640625,-0.924072265625,-0.4295196533203125,0.057098388671875
1751013717085023500,0.7010234375,-0.9302825927734375,-0.4252166748046875,0.0546417236328125
1751013717094966500,0.710966552734375,-0.9296875,-0.422027587890625,0.0569000244140625
1751013717104910300,0.720910400390625,-0.9307861328125,-0.4185333251953125,0.0592498779296875
1751013717114853400,0.730853271484375,-0.932281494140625,-0.4071197509765625,0.05780029296875
1751013717124797700,0.740797607421875,-0.9271087646484375,-0.39593505859375,0.0561370849609375
1751013717134740500,0.750740478515625,-0.9175262451171875,-0.3884735107421875,0.0596923828125
1751013717144684500,0.7606845703125,-0.91754150390625,-0.39251708984375,0.0532684326171875
1751013717154627600,0.770627685546875,-0.925689697265625,-0.4023590087890625,0.045074462890625
1751013717164570600,0.780570556640625,-0.92059326171875,-0.406494140625,0.0540008544921875
1751013717174514400,0.790514404296875,-0.9089813232421875,-0.4045867919921875,0.0667724609375
1751013717184457500,0.80045751953125,-0.915130615234375,-0.401641845703125,0.0803375244140625
1751013717194401500,0.810401611328125,-0.9258575439453125,-0.3974609375,0.0908660888671875
1751013717204344600,0.820344482421875,-0.9239044189453125,-0.39398193359375,0.091705322265625
1751013717214287600,0.83028759765625,-0.9169921875,-0.394500732421875,0.082794189453125
1751013717224231400,0.8402314453125,-0.9130706787109375,-0.4028778076171875,0.0708465576171875
1751013717234174500,0.850174560546875,-0.917144775390625,-0.4126434326171875,0.0650787353515625
1751013717244118500,0.860118408203125,-0.921661376953125,-0.415557861328125,0.062896728515625
1751013717254061600,0.8700615234375,-0.92681884765625,-0.410308837890625,0.06494140625
1751013717264005400,0.88000537109375,-0.93280029296875,-0.4123687744140625,0.0582122802734375
1751013717273948400,0.889948486328125,-0.9299163818359375,-0.41717529296875,0.0545196533203125
1751013717283891500,0.899891357421875,-0.91094970703125,-0.4214019775390625,0.051788330078125
1751013717293835500,0.90983544921875,-0.904571533203125,-0.428192138671875,0.055419921875
1751013717303778300,0.9197783203125,-0.9150390625,-0.431549072265625,0.059417724609375
1751013717313722400,0.929722412109375,-0.925567626953125,-0.4284515380859375,0.0654144287109375
1751013717323665400,0.93966552734375,-0.9228057861328125,-0.4236297607421875,0.069000244140625
1751013717333609500,0.949609375,-0.916046142578125,-0.4246368408203125,0.0644073486328125
1751013717343552500,0.959552490234375,-0.9135284423828125,-0.430877685546875,0.0613861083984375
1751013717353495600,0.96949560546875,-0.912078857421875,-0.4376983642578125,0.055572509765625
1751013717363439600,0.979439697265625,-0.90472412109375,-0.438201904296875,0.0521392822265625
1751013717373382700,0.989382568359375,-0.900054931640625,-0.4416656494140625,0.056060791015625
1751013717383326500,0.999326416015625,-0.9068756103515625,-0.4441070556640625,0.0645599365234375
1751013717393269500,1.00926953125,-0.926788330078125,-0.4420013427734375,0.071807861328125
1751013717403213600,1.019213623046875,-0.937957763671875,-0.432769775390625,0.0670928955078125
1751013717413156600,1.029156494140625,-0.93145751953125,-0.42340087890625,0.058319091796875
1751013717423099400,1.039099365234375,-0.91668701171875,-0.4221038818359375,0.0505523681640625
1751013717433043500,1.04904345703125,-0.9063720703125,-0.4229888916015625,0.0476226806640625
1751013717442986500,1.058986572265625,-0.901123046875,-0.420745849609375,0.0482635498046875
1751013717452930600,1.0689306640625,-0.8985595703125,-0.4156646728515625,0.0507049560546875
1751013717462873300,1.078873291015625,-0.8974609375,-0.413299560546875,0.0533447265625
1751013717472817400,1.0888173828125,-0.9025115966796875,-0.4148712158203125,0.0555572509765625
1751013717482760400,1.098760498046875,-0.9089202880859375,-0.4173126220703125,0.049163818359375
1751013717492703500,1.108703369140625,-0.91912841796875,-0.4189300537109375,0.04742431640625
1751013717502647300,1.118647216796875,-0.9170684814453125,-0.4203033447265625,0.0519256591796875
1751013717512590300,1.12859033203125,-0.91204833984375,-0.4249725341796875,0.0570526123046875
1751013717522534700,1.13853466796875,-0.910675048828125,-0.4327850341796875,0.0557403564453125
1751013717532477400,1.1484775390625,-0.9123382568359375,-0.4350128173828125,0.06390380859375
1751013717542421500,1.15842138671875,-0.91412353515625,-0.4327392578125,0.0689239501953125
1751013717552364500,1.168364501953125,-0.91510009765625,-0.43365478515625,0.0704498291015625
1751013717562307600,1.1783076171875,-0.914031982421875,-0.4372711181640625,0.0736236572265625
1751013717572251600,1.188251708984375,-0.91387939453125,-0.4391632080078125,0.0746612548828125
1751013717582194700,1.198194580078125,-0.9193572998046875,-0.44110107421875,0.076690673828125
1751013717592138500,1.208138427734375,-0.9254913330078125,-0.442047119140625,0.07427978515625
1751013717602081500,1.21808154296875,-0.925048828125,-0.4432220458984375,0.069091796875
1751013717612025900,1.22802587890625,-0.9192962646484375,-0.444580078125,0.066497802734375
1751013717621969000,1.237968994140625,-0.9148406982421875,-0.4453582763671875,0.0673370361328125
1751013717631911700,1.24791162109375,-0.910736083984375,-0.443023681640625,0.0697479248046875
1751013717641856000,1.25785595703125,-0.9072418212890625,-0.4410858154296875,0.0715484619140625
1751013717651799000,1.267799072265625,-0.908477783203125,-0.43951416015625,0.070220947265625
1751013717661742800,1.277742919921875,-0.9080047607421875,-0.4420013427734375,0.073638916015625
1751013717671686000,1.287685791015625,-0.906463623046875,-0.447723388671875,0.07855224609375
1751013717681629000,1.29762890625,-0.906158447265625,-0.4502716064453125,0.0804443359375
1751013717691573000,1.307572998046875,-0.9034423828125,-0.4503173828125,0.080657958984375
1751013717701516000,1.31751611328125,-0.89813232421875,-0.4503173828125,0.080963134765625
1751013717711459800,1.3274599609375,-0.892578125,-0.4508056640625,0.0828704833984375
1751013717721403000,1.33740283203125,-0.8939208984375,-0.4506378173828125,0.081512451171875
1751013717731347000,1.347346923828125,-0.8938446044921875,-0.4481964111328125,0.078155517578125
1751013717741289700,1.357289794921875,-0.894378662109375,-0.4447784423828125,0.072662353515625
1751013717751232800,1.367232666015625,-0.8997802734375,-0.441497802734375,0.0668487548828125
1751013717761176800,1.3771767578125,-0.9006195068359375,-0.439361572265625,0.05950927734375
1751013717771119900,1.387119873046875,-0.901611328125,-0.4393463134765625,0.0574493408203125
1751013717781063700,1.397063720703125,-0.9060516357421875,-0.43988037109375,0.0578765869140625
1751013717791006700,1.4070068359375,-0.913909912109375,-0.4361572265625,0.0590057373046875
1751013717800950800,1.41695068359375,-0.917755126953125,-0.4345245361328125,0.0606689453125
1751013717810893800,1.426893798828125,-0.9172210693359375,-0.4351959228515625,0.0632476806640625
1751013717820836900,1.4368369140625,-0.910614013671875,-0.434722900390625,0.0646820068359375
1751013717830781000,1.446781005859375,-0.90765380859375,-0.4345245361328125,0.067962646484375
1751013717840723700,1.4567236328125,-0.9083404541015625,-0.432037353515625,0.07147216796875
1751013717850668000,1.46666796875,-0.91094970703125,-0.42681884765625,0.0736541748046875
1751013717860611000,1.476611083984375,-0.9133148193359375,-0.422027587890625,0.0757904052734375
1751013717870555000,1.486554931640625,-0.91461181640625,-0.4193878173828125,0.0777587890625
1751013717880498000,1.496497802734375,-0.910491943359375,-0.42034912109375,0.0766448974609375
1751013717890441000,1.50644091796875,-0.90625,-0.4261474609375,0.0731964111328125
1751013717900385000,1.516385009765625,-0.903411865234375,-0.430328369140625,0.0708160400390625
1751013717910327800,1.526327880859375,-0.9010009765625,-0.4336090087890625,0.0686798095703125
1751013717920272000,1.53627197265625,-0.901458740234375,-0.43585205078125,0.070343017578125
1751013717930215000,1.54621484375,-0.9048614501953125,-0.4383392333984375,0.0719757080078125
1751013717940158700,1.55615869140625,-0.916473388671875,-0.441009521484375,0.0716552734375
1751013717950101800,1.566101806640625,-0.91845703125,-0.4406890869140625,0.0713653564453125
1751013717960044800,1.576044921875,-0.9109344482421875,-0.439056396484375,0.072998046875
1751013717969988900,1.58598876953125,-0.90887451171875,-0.4384765625,0.068023681640625
1751013717979932000,1.595931884765625,-0.9121856689453125,-0.4375,0.0680389404296875
1751013717989875700,1.605875732421875,-0.909210205078125,-0.433563232421875,0.073089599609375
1751013717999818800,1.61581884765625,-0.9062957763671875,-0.433349609375,0.0702056884765625
1751013718009762800,1.6257626953125,-0.904022216796875,-0.4386749267578125,0.0635986328125
1751013718019705900,1.635705810546875,-0.9001922607421875,-0.441802978515625,0.0598602294921875
1751013718029649000,1.64564892578125,-0.9028472900390625,-0.444366455078125,0.059356689453125
1751013718039593000,1.655593017578125,-0.9113616943359375,-0.4466400146484375,0.059051513671875
1751013718049535700,1.66553564453125,-0.91510009765625,-0.449798583984375,0.0588836669921875
1751013718059480000,1.67547998046875,-0.91021728515625,-0.4536285400390625,0.0609588623046875
1751013718069422800,1.6854228515625,-0.9034423828125,-0.454864501953125,0.06488037109375
1751013718079367000,1.695366943359375,-0.90338134765625,-0.45233154296875,0.069091796875
1751013718089310000,1.70531005859375,-0.9153289794921875,-0.4445343017578125,0.073699951171875
1751013718099253000,1.7152529296875,-0.9210052490234375,-0.4366302490234375,0.06842041015625
1751013718109196800,1.72519677734375,-0.9126434326171875,-0.4329681396484375,0.0644683837890625
1751013718119139800,1.735139892578125,-0.9113922119140625,-0.4323272705078125,0.05462646484375
1751013718129084000,1.745083984375,-0.9098663330078125,-0.428619384765625,0.050628662109375
1751013718139027000,1.75502685546875,-0.9076385498046875,-0.4254150390625,0.0512542724609375
1751013718148970800,1.764970703125,-0.906097412109375,-0.422515869140625,0.056365966796875
1751013718158913800,1.774913818359375,-0.9086456298828125,-0.42156982421875,0.06134033203125
1751013718168856800,1.78485693359375,-0.91259765625,-0.4238739013671875,0.0671234130859375
1751013718178801000,1.79480078125,-0.91339111328125,-0.4261627197265625,0.0728607177734375
1751013718188744000,1.804743896484375,-0.910125732421875,-0.4276580810546875,0.073638916015625
1751013718198687700,1.814687744140625,-0.9108123779296875,-0.4281463623046875,0.0724029541015625
1751013718208630800,1.824630859375,-0.9135284423828125,-0.4316558837890625,0.06390380859375
1751013718218574800,1.834574951171875,-0.9209442138671875,-0.4356842041015625,0.056427001953125
1751013718228518000,1.844517822265625,-0.9194488525390625,-0.434234619140625,0.057403564453125
1751013718238460700,1.854460693359375,-0.9111785888671875,-0.432373046875,0.0593719482421875
1751013718248405000,1.864405029296875,-0.9127044677734375,-0.4338531494140625,0.0627288818359375
1751013718258347800,1.87434765625,-0.91693115234375,-0.4318695068359375,0.065093994140625
1751013718268291800,1.884291748046875,-0.91357421875,-0.4273223876953125,0.070281982421875
1751013718278235000,1.89423486328125,-0.913787841796875,-0.4209747314453125,0.07733154296875
1751013718288179000,1.904178955078125,-0.9170989990234375,-0.422332763671875,0.0726318359375
1751013718298122000,1.9141220703125,-0.915008544921875,-0.4249420166015625,0.0670318603515625
1751013718308065000,1.92406494140625,-0.9141387939453125,-0.422576904296875,0.065948486328125
1751013718318008800,1.9340087890625,-0.914459228515625,-0.416778564453125,0.06915283203125
1751013718327952000,1.943951904296875,-0.9152069091796875,-0.4144439697265625,0.0727386474609375
1751013718337896000,1.95389599609375,-0.9158172607421875,-0.414794921875,0.0698394775390625
1751013718347839000,1.9638388671875,-0.9193267822265625,-0.417144775390625,0.06744384765625
1751013718357782800,1.97378271484375,-0.9228515625,-0.41644287109375,0.0659942626953125
1751013718367725800,1.983725830078125,-0.924652099609375,-0.4184722900390625,0.0663604736328125
1751013718377668900,1.9936689453125,-0.9257049560546875,-0.422210693359375,0.068878173828125
1751013718387613000,2.003613037109375,-0.9256134033203125,-0.4227447509765625,0.0715789794921875
1751013718397555700,2.0135556640625,-0.921173095703125,-0.420623779296875,0.0756683349609375
1751013718407499800,2.023499755859375,-0.91656494140625,-0.41973876953125,0.0736083984375
1751013718417442800,2.03344287109375,-0.9153900146484375,-0.420196533203125,0.072784423828125
1751013718427387000,2.043386962890625,-0.916259765625,-0.42071533203125,0.072540283203125
1751013718437329700,2.05332958984375,-0.915435791015625,-0.42333984375,0.0707855224609375
1751013718447272700,2.063272705078125,-0.913055419921875,-0.4293060302734375,0.069488525390625
1751013718457217000,2.073217041015625,-0.91156005859375,-0.43231201171875,0.0692596435546875
1751013718467159800,2.083159912109375,-0.9143524169921875,-0.4338836669921875,0.06866455078125
1751013718477103900,2.093103759765625,-0.91180419921875,-0.4335479736328125,0.0691375732421875
1751013718487047000,2.103046875,-0.9052734375,-0.4311676025390625,0.0679168701171875
1751013718496991000,2.112990966796875,-0.9033660888671875,-0.43011474609375,0.0676116943359375
1751013718506934000,2.12293408203125,-0.9072265625,-0.4306182861328125,0.0678558349609375
1751013718516877800,2.1328779296875,-0.9102935791015625,-0.42816162109375,0.0659942626953125
1751013718526820900,2.14282080078125,-0.909820556640625,-0.422821044921875,0.0613250732421875
1751013718536764000,2.152763916015625,-0.9128875732421875,-0.4181060791015625,0.0594482421875
1751013718546708000,2.1627080078125,-0.91583251953125,-0.4191131591796875,0.0561065673828125
1751013718556650800,2.172650634765625,-0.9162445068359375,-0.42022705078125,0.0544586181640625
1751013718566594800,2.1825947265625,-0.91619873046875,-0.42315673828125,0.052154541015625
1751013718576537900,2.192537841796875,-0.9132232666015625,-0.4252471923828125,0.0493621826171875
1751013718586481000,2.20248095703125,-0.9127960205078125,-0.425994873046875,0.0474090576171875
1751013718596424700,2.2124248046875,-0.9106597900390625,-0.42694091796875,0.0513763427734375
1751013718606367700,2.22236767578125,-0.910614013671875,-0.4291839599609375,0.0532989501953125
1751013718616312000,2.23231201171875,-0.9147186279296875,-0.428466796875,0.05755615234375
1751013718626255000,2.242255126953125,-0.9156494140625,-0.4249420166015625,0.06072998046875
1751013718636199000,2.252198974609375,-0.9173431396484375,-0.4224700927734375,0.0615081787109375
1751013718646142000,2.262141845703125,-0.918792724609375,-0.419769287109375,0.06048583984375
1751013718656086000,2.2720859375,-0.9228973388671875,-0.4163970947265625,0.057220458984375
1751013718666029000,2.282029052734375,-0.9248046875,-0.4163970947265625,0.054290771484375
1751013718675972000,2.29197216796875,-0.9227294921875,-0.41912841796875,0.0516815185546875
1751013718685916000,2.301916015625,-0.921844482421875,-0.419708251953125,0.051055908203125
1751013718695859000,2.31185888671875,-0.9214019775390625,-0.4190673828125,0.05291748046875
1751013718705803000,2.321802978515625,-0.9200897216796875,-0.4193878173828125,0.056396484375
1751013718715746000,2.33174609375,-0.91546630859375,-0.4224090576171875,0.0583038330078125
1751013718725690000,2.341690185546875,-0.9144439697265625,-0.4257965087890625,0.0572662353515625
1751013718735633200,2.351633056640625,-0.9172515869140625,-0.4263458251953125,0.05657958984375
1751013718745576200,2.361576171875,-0.9212188720703125,-0.423614501953125,0.0546112060546875
1751013718755520000,2.37152001953125,-0.9265594482421875,-0.421112060546875,0.0512542724609375
1751013718765463000,2.381463134765625,-0.9313507080078125,-0.419219970703125,0.0491180419921875
1751013718775407000,2.391406982421875,-0.934234619140625,-0.4200592041015625,0.0452728271484375
1751013718785350100,2.40135009765625,-0.9332275390625,-0.4195404052734375,0.04547119140625
1751013718795294000,2.4112939453125,-0.929534912109375,-0.4141387939453125,0.044891357421875
1751013718805237000,2.421237060546875,-0.9246673583984375,-0.4091949462890625,0.042694091796875
1751013718815180000,2.431179931640625,-0.9207611083984375,-0.4094696044921875,0.040069580078125
1751013718825124000,2.4411240234375,-0.91864013671875,-0.4145660400390625,0.03961181640625
1751013718835067100,2.451067138671875,-0.9163360595703125,-0.4158935546875,0.0427703857421875
1751013718845011000,2.461010986328125,-0.91656494140625,-0.4161834716796875,0.047698974609375
1751013718854954000,2.4709541015625,-0.9176025390625,-0.4215087890625,0.0500030517578125
1751013718864898000,2.48089794921875,-0.917510986328125,-0.42669677734375,0.05145263671875
1751013718874841000,2.490841064453125,-0.9175567626953125,-0.4292449951171875,0.0528717041015625
1751013718884783900,2.500783935546875,-0.919036865234375,-0.4283447265625,0.0505218505859375
1751013718894728000,2.51072802734375,-0.9217529296875,-0.4279937744140625,0.04931640625
1751013718904671000,2.5206708984375,-0.9213714599609375,-0.4268341064453125,0.0484619140625
1751013718914615000,2.530614990234375,-0.92010498046875,-0.424102783203125,0.0485992431640625
1751013718924557800,2.540557861328125,-0.9225616455078125,-0.419036865234375,0.0518341064453125
1751013718934502100,2.550502197265625,-0.9256591796875,-0.418060302734375,0.050262451171875
1751013718944445200,2.560445068359375,-0.928009033203125,-0.419921875,0.0470428466796875
1751013718954388200,2.57038818359375,-0.924530029296875,-0.4191131591796875,0.04498291015625
1751013718964332000,2.58033203125,-0.919525146484375,-0.4166412353515625,0.04315185546875
1751013718974275000,2.590275146484375,-0.9178619384765625,-0.4176788330078125,0.04339599609375
1751013718984219100,2.60021923828125,-0.9163970947265625,-0.4206695556640625,0.04241943359375
1751013718994162200,2.610162109375,-0.91705322265625,-0.423980712890625,0.04498291015625
1751013719004106000,2.62010595703125,-0.918487548828125,-0.4264373779296875,0.0447540283203125
1751013719014049000,2.630049072265625,-0.919677734375,-0.4292144775390625,0.044891357421875
1751013719023992000,2.639991943359375,-0.919891357421875,-0.431365966796875,0.0446929931640625
1751013719033936100,2.64993603515625,-0.915435791015625,-0.428466796875,0.0457305908203125
1751013719043879000,2.65987890625,-0.9071197509765625,-0.4221649169921875,0.0478057861328125
1751013719053823000,2.669822998046875,-0.907257080078125,-0.4154052734375,0.0511474609375
1751013719063766000,2.67976611328125,-0.90948486328125,-0.409912109375,0.0525360107421875
1751013719073710000,2.6897099609375,-0.9113616943359375,-0.4080352783203125,0.0491790771484375
1751013719083652900,2.69965283203125,-0.914031982421875,-0.4101409912109375,0.0441131591796875
1751013719093596000,2.709595947265625,-0.921112060546875,-0.410858154296875,0.0426177978515625
1751013719103540000,2.7195400390625,-0.925689697265625,-0.412567138671875,0.0416412353515625
1751013719113483000,2.72948291015625,-0.9259490966796875,-0.4173126220703125,0.043060302734375
1751013719123426800,2.7394267578125,-0.922271728515625,-0.418731689453125,0.0454254150390625
1751013719133369900,2.749369873046875,-0.9210205078125,-0.41796875,0.046539306640625
1751013719143314200,2.759314208984375,-0.921661376953125,-0.417022705078125,0.0472259521484375
1751013719153257200,2.76925732421875,-0.921844482421875,-0.41961669921875,0.0455780029296875
1751013719163201000,2.779200927734375,-0.920257568359375,-0.42584228515625,0.04248046875
1751013719173144000,2.78914404296875,-0.9191436767578125,-0.4264068603515625,0.0424041748046875
1751013719183087000,2.799087158203125,-0.915069580078125,-0.4219512939453125,0.046356201171875
1751013719193031200,2.80903125,-0.913818359375,-0.418426513671875,0.04742431640625
1751013719202974200,2.81897412109375,-0.915435791015625,-0.4177398681640625,0.043060302734375
1751013719212918000,2.82891796875,-0.9123077392578125,-0.4193267822265625,0.0402984619140625
1751013719222861000,2.838861083984375,-0.910247802734375,-0.4193115234375,0.039276123046875
1751013719232805000,2.84880517578125,-0.9123992919921875,-0.4202423095703125,0.0413665771484375
1751013719242748000,2.858747802734375,-0.9129791259765625,-0.4228515625,0.0430145263671875
1751013719252691000,2.86869091796875,-0.91168212890625,-0.4261627197265625,0.041839599609375
1751013719262635000,2.878635009765625,-0.9087677001953125,-0.427276611328125,0.0420379638671875
1751013719272578000,2.888578125,-0.9041595458984375,-0.4302215576171875,0.0435791015625
1751013719282521900,2.89852197265625,-0.8977813720703125,-0.430908203125,0.0443572998046875
1751013719292465000,2.90846484375,-0.8970184326171875,-0.4312896728515625,0.0493927001953125
1751013719302409000,2.918408935546875,-0.89947509765625,-0.429443359375,0.05303955078125
1751013719312352000,2.92835205078125,-0.901580810546875,-0.42742919921875,0.0528411865234375
1751013719322295000,2.938294921875,-0.908355712890625,-0.4237213134765625,0.050048828125
1751013719332239000,2.948239013671875,-0.9228363037109375,-0.4202728271484375,0.0446014404296875
1751013719342182000,2.958181884765625,-0.9277191162109375,-0.417938232421875,0.0399017333984375
1751013719352126200,2.968126220703125,-0.9274749755859375,-0.4160919189453125,0.03564453125
1751013719362069200,2.9780693359375,-0.92950439453125,-0.41192626953125,0.03204345703125
1751013719372013000,2.988012939453125,-0.932708740234375,-0.40972900390625,0.0330963134765625
1751013719381956000,2.9979560546875,-0.9364776611328125,-0.4107666015625,0.032989501953125
1751013719391899100,3.007899169921875,-0.9378814697265625,-0.4149627685546875,0.03448486328125
1751013719401843000,3.017843017578125,-0.937469482421875,-0.4180145263671875,0.033355712890625
1751013719411786000,3.027785888671875,-0.93585205078125,-0.420867919921875,0.0360565185546875
1751013719421730000,3.03772998046875,-0.9336700439453125,-0.4230194091796875,0.0380401611328125
1751013719431673000,3.047673095703125,-0.9337005615234375,-0.4246978759765625,0.0347137451171875
1751013719441617000,3.057616943359375,-0.93597412109375,-0.425994873046875,0.0301361083984375
1751013719451560000,3.067559814453125,-0.9326324462890625,-0.4256134033203125,0.0288543701171875
1751013719461504000,3.07750390625,-0.9283599853515625,-0.4256591796875,0.030670166015625
1751013719471447000,3.087447021484375,-0.930389404296875,-0.4262237548828125,0.032501220703125
1751013719481390000,3.09739013671875,-0.9248046875,-0.4272613525390625,0.0347747802734375
1751013719491334000,3.107333984375,-0.9195098876953125,-0.42529296875,0.0389404296875
1751013719501277000,3.11727685546875,-0.918212890625,-0.42401123046875,0.040557861328125
1751013719511221000,3.127220947265625,-0.913604736328125,-0.4252166748046875,0.0440521240234375
1751013719521164000,3.1371640625,-0.907501220703125,-0.4257659912109375,0.047454833984375
1751013719531108000,3.147108154296875,-0.9063873291015625,-0.4230194091796875,0.0473785400390625
1751013719541051100,3.157051025390625,-0.9103546142578125,-0.41998291015625,0.047943115234375
1751013719550994000,3.166993896484375,-0.9127197265625,-0.4195404052734375,0.048309326171875
1751013719560938200,3.176938232421875,-0.9152374267578125,-0.42303466796875,0.0470733642578125
1751013719570881000,3.186881103515625,-0.9196319580078125,-0.423858642578125,0.0498046875
1751013719580825000,3.1968251953125,-0.9260101318359375,-0.4279937744140625,0.0498046875
1751013719590768000,3.20676806640625,-0.926666259765625,-0.4316864013671875,0.05072021484375
1751013719600712000,3.2167119140625,-0.92572021484375,-0.430450439453125,0.0507354736328125
1751013719610655000,3.226655029296875,-0.922821044921875,-0.4292144775390625,0.0474700927734375
1751013719620597800,3.23659765625,-0.9171905517578125,-0.427398681640625,0.046661376953125
1751013719630541800,3.246541748046875,-0.9132080078125,-0.423797607421875,0.045318603515625
1751013719640484900,3.25648486328125,-0.9126129150390625,-0.421539306640625,0.045501708984375
1751013719650428700,3.2664287109375,-0.9131011962890625,-0.42193603515625,0.0477447509765625
1751013719660371700,3.276371826171875,-0.912506103515625,-0.425689697265625,0.0475921630859375
1751013719670315800,3.286315673828125,-0.9092559814453125,-0.428192138671875,0.0514678955078125
1751013719680258800,3.2962587890625,-0.9063568115234375,-0.4282684326171875,0.05419921875
1751013719690201900,3.306201904296875,-0.9088287353515625,-0.424713134765625,0.0562591552734375
1751013719700145700,3.316145751953125,-0.90740966796875,-0.422393798828125,0.0583648681640625
1751013719710088700,3.326088623046875,-0.90679931640625,-0.420867919921875,0.057220458984375
1751013719720032800,3.33603271484375,-0.910369873046875,-0.417266845703125,0.055389404296875
1751013719729975800,3.345975830078125,-0.9186248779296875,-0.4134979248046875,0.0554351806640625
1751013719739920000,3.355919921875,-0.9247894287109375,-0.410675048828125,0.052642822265625
1751013719749862700,3.365862548828125,-0.9237823486328125,-0.411102294921875,0.0478515625
1751013719759807000,3.375806884765625,-0.923736572265625,-0.4118499755859375,0.0473175048828125
1751013719769749800,3.385749755859375,-0.92510986328125,-0.412384033203125,0.0483551025390625
1751013719779692800,3.39569287109375,-0.9255523681640625,-0.413787841796875,0.050079345703125
1751013719789636900,3.405636962890625,-0.916900634765625,-0.41632080078125,0.0563201904296875
1751013719799580000,3.415579833984375,-0.9120330810546875,-0.4163360595703125,0.0600433349609375
1751013719809523700,3.425523681640625,-0.9182281494140625,-0.41552734375,0.0608367919921875
1751013719819466800,3.435466796875,-0.9218597412109375,-0.414794921875,0.0594482421875
1751013719829410800,3.445410888671875,-0.91851806640625,-0.41583251953125,0.05303955078125
1751013719839353900,3.455353759765625,-0.9151763916015625,-0.4171905517578125,0.0459747314453125
1751013719849297000,3.465296875,-0.9185943603515625,-0.415771484375,0.04498291015625
1751013719859240700,3.47524072265625,-0.9218292236328125,-0.4154815673828125,0.0421905517578125
1751013719869183700,3.485183837890625,-0.9231414794921875,-0.41632080078125,0.037872314453125
1751013719879127800,3.4951279296875,-0.9283599853515625,-0.4169921875,0.0341033935546875
1751013719889070800,3.50507080078125,-0.929107666015625,-0.4171905517578125,0.0347747802734375
1751013719899014700,3.5150146484375,-0.9210968017578125,-0.4179840087890625,0.0374603271484375
1751013719908957700,3.524957763671875,-0.914398193359375,-0.4194183349609375,0.041290283203125
1751013719918900700,3.534900634765625,-0.9098052978515625,-0.422119140625,0.0453948974609375
1751013719928844800,3.5448447265625,-0.905029296875,-0.424530029296875,0.048797607421875
1751013719938787600,3.55478759765625,-0.9020538330078125,-0.4286956787109375,0.050384521484375
1751013719948732000,3.56473193359375,-0.9004364013671875,-0.430419921875,0.0517120361328125
1751013719958674700,3.5746748046875,-0.8992462158203125,-0.42987060546875,0.05255126953125
1751013719968618800,3.58461865234375,-0.899566650390625,-0.4279632568359375,0.05059814453125
1751013719978561800,3.594561767578125,-0.9021759033203125,-0.4239044189453125,0.0483551025390625
1751013719988504800,3.6045048828125,-0.9031982421875,-0.421142578125,0.0489044189453125
1751013719998449000,3.614448974609375,-0.9063568115234375,-0.4196319580078125,0.046142578125
1751013720008392000,3.624391845703125,-0.91351318359375,-0.416107177734375,0.0407867431640625
1751013720018335700,3.634335693359375,-0.9199066162109375,-0.4131011962890625,0.0390625
1751013720028278800,3.64427880859375,-0.92401123046875,-0.4118194580078125,0.0407257080078125
1751013720038222800,3.654222900390625,-0.932708740234375,-0.410980224609375,0.0460662841796875
1751013720048166000,3.664165771484375,-0.9384307861328125,-0.411895751953125,0.0496826171875
1751013720058109700,3.674109619140625,-0.938018798828125,-0.4113922119140625,0.053619384765625
1751013720068052700,3.684052734375,-0.935302734375,-0.4102020263671875,0.0570068359375
1751013720077995800,3.693995849609375,-0.93060302734375,-0.410369873046875,0.056854248046875
1751013720087939800,3.70393994140625,-0.9281158447265625,-0.409576416015625,0.0555267333984375
1751013720097882600,3.713882568359375,-0.9322662353515625,-0.406494140625,0.0519256591796875
1751013720107826700,3.72382666015625,-0.93585205078125,-0.404510498046875,0.0483551025390625
1751013720117769700,3.733769775390625,-0.9362335205078125,-0.4052734375,0.0438690185546875
1751013720127713800,3.7437138671875,-0.935638427734375,-0.4061279296875,0.0399627685546875
1751013720137656600,3.753656494140625,-0.9377899169921875,-0.4048309326171875,0.037933349609375
1751013720147599600,3.763599609375,-0.94085693359375,-0.40380859375,0.03851318359375
1751013720157544000,3.7735439453125,-0.9450531005859375,-0.4031982421875,0.0408935546875
1751013720167486700,3.78348681640625,-0.9469146728515625,-0.4040679931640625,0.0416412353515625
1751013720177430800,3.7934306640625,-0.9448394775390625,-0.404510498046875,0.041534423828125
1751013720187373800,3.803373779296875,-0.9397430419921875,-0.4056243896484375,0.0401458740234375
1751013720197318000,3.81331787109375,-0.931610107421875,-0.4115447998046875,0.0367279052734375
1751013720207261000,3.823260986328125,-0.9238433837890625,-0.4161224365234375,0.0352630615234375
1751013720217204000,3.833203857421875,-0.91796875,-0.417510986328125,0.038116455078125
1751013720227147800,3.843147705078125,-0.915374755859375,-0.420166015625,0.040008544921875
1751013720237090800,3.8530908203125,-0.9147796630859375,-0.4224090576171875,0.0393218994140625
1751013720247035000,3.863034912109375,-0.9143524169921875,-0.4232025146484375,0.037017822265625
1751013720256978000,3.87297802734375,-0.9224853515625,-0.4226226806640625,0.036834716796875
1751013720266921700,3.882921630859375,-0.9321746826171875,-0.419403076171875,0.0363616943359375
1751013720276864800,3.89286474609375,-0.9372100830078125,-0.418182373046875,0.03204345703125
1751013720286807800,3.902807861328125,-0.9364013671875,-0.4203338623046875,0.0270843505859375
1751013720296751600,3.912751708984375,-0.935516357421875,-0.4216766357421875,0.031280517578125
1751013720306694700,3.922694580078125,-0.9374542236328125,-0.418426513671875,0.0365142822265625
1751013720316638700,3.932638671875,-0.9376068115234375,-0.411834716796875,0.0461273193359375
1751013720326581800,3.942581787109375,-0.932342529296875,-0.4074554443359375,0.047821044921875
1751013720336525600,3.952525634765625,-0.9288330078125,-0.405609130859375,0.0421600341796875
1751013720346468600,3.962468505859375,-0.9266510009765625,-0.4012603759765625,0.0439605712890625
1751013720356413000,3.972412841796875,-0.9173736572265625,-0.3970794677734375,0.049591064453125
1751013720366356000,3.98235595703125,-0.9115142822265625,-0.39630126953125,0.0515899658203125
1751013720376298800,3.992298828125,-0.9142608642578125,-0.399749755859375,0.0504608154296875
1751013720386242800,4.002242919921875,-0.9152984619140625,-0.4073333740234375,0.04840087890625
1751013720396185900,4.012185791015625,-0.9103851318359375,-0.4169158935546875,0.050567626953125
1751013720406130000,4.0221298828125,-0.905853271484375,-0.4240570068359375,0.052001953125
1751013720416073000,4.032072998046875,-0.9055023193359375,-0.4297332763671875,0.050994873046875
1751013720426016800,4.042016845703125,-0.9048919677734375,-0.4295196533203125,0.053436279296875
1751013720435959800,4.051959716796875,-0.906280517578125,-0.426788330078125,0.0523681640625
1751013720445902800,4.06190283203125,-0.9098358154296875,-0.423065185546875,0.0519866943359375
1751013720455847000,4.071846923828125,-0.906768798828125,-0.4172515869140625,0.0500946044921875
1751013720465789700,4.081789794921875,-0.906341552734375,-0.4127655029296875,0.0471649169921875
1751013720475733800,4.091733642578125,-0.9083099365234375,-0.411407470703125,0.0482330322265625
1751013720485676800,4.1016767578125,-0.9096832275390625,-0.412261962890625,0.0528411865234375
1751013720495620600,4.11162060546875,-0.9151458740234375,-0.412139892578125,0.0544586181640625
1751013720505563600,4.121563720703125,-0.9188690185546875,-0.41522216796875,0.0535736083984375
1751013720515506700,4.131506591796875,-0.9224395751953125,-0.418121337890625,0.0506134033203125
1751013720525450800,4.14145068359375,-0.9261016845703125,-0.418182373046875,0.046783447265625
1751013720535393800,4.151393798828125,-0.9269256591796875,-0.4178009033203125,0.0447235107421875
1751013720545337600,4.161337646484375,-0.9269561767578125,-0.4176177978515625,0.0444183349609375
1751013720555280600,4.17128076171875,-0.9235382080078125,-0.4177093505859375,0.044097900390625
1751013720565225000,4.181224853515625,-0.9176483154296875,-0.416229248046875,0.0428314208984375
1751013720575168000,4.19116796875,-0.91314697265625,-0.4130401611328125,0.0437164306640625
1751013720585110800,4.20111083984375,-0.9113006591796875,-0.4114990234375,0.043365478515625
1751013720595054800,4.211054931640625,-0.91229248046875,-0.4118804931640625,0.0451507568359375
1751013720604998000,4.220997802734375,-0.91412353515625,-0.4116058349609375,0.0465850830078125
1751013720614945500,4.230945556640625,-0.91632080078125,-0.4152984619140625,0.046051025390625
1751013720624888300,4.240888427734375,-0.9196319580078125,-0.4191131591796875,0.0463409423828125
1751013720634832400,4.250832275390625,-0.920135498046875,-0.4216461181640625,0.0453338623046875
1751013720644775400,4.260775390625,-0.916717529296875,-0.4239349365234375,0.0464630126953125
1751013720654718500,4.270718505859375,-0.9133453369140625,-0.4210052490234375,0.045074462890625
1751013720664662500,4.28066259765625,-0.9156036376953125,-0.4168853759765625,0.0439605712890625
1751013720674605600,4.29060546875,-0.917724609375,-0.4131927490234375,0.0419464111328125
1751013720684549600,4.300549560546875,-0.92510986328125,-0.4128570556640625,0.03692626953125
1751013720694492700,4.31049267578125,-0.9284515380859375,-0.413360595703125,0.0314788818359375
1751013720704436500,4.3204365234375,-0.9322052001953125,-0.4147796630859375,0.0284881591796875
1751013720714379500,4.330379638671875,-0.934478759765625,-0.4132080078125,0.0292205810546875
1751013720724323600,4.340323486328125,-0.9328460693359375,-0.410186767578125,0.0296783447265625
1751013720734266600,4.3502666015625,-0.9292144775390625,-0.4109954833984375,0.0342254638671875
1751013720744209400,4.36020947265625,-0.926055908203125,-0.4124908447265625,0.040374755859375
1751013720754153500,4.370153564453125,-0.924774169921875,-0.412200927734375,0.0459747314453125
1751013720764096500,4.380096435546875,-0.922760009765625,-0.410369873046875,0.0465240478515625
1751013720774040600,4.39004052734375,-0.9238128662109375,-0.4107818603515625,0.0452728271484375
1751013720783983400,4.3999833984375,-0.9234466552734375,-0.4160919189453125,0.04437255859375
1751013720793927400,4.409927490234375,-0.9195404052734375,-0.4202423095703125,0.0424041748046875
1751013720803870500,4.419870361328125,-0.9192047119140625,-0.4179534912109375,0.042388916015625
1751013720813813500,4.4298134765625,-0.9237060546875,-0.4159088134765625,0.0407257080078125
1751013720823757300,4.43975732421875,-0.9244384765625,-0.4155120849609375,0.03900146484375
1751013720833700400,4.449700439453125,-0.9232025146484375,-0.4190216064453125,0.034423828125
1751013720843644400,4.45964453125,-0.924591064453125,-0.4215850830078125,0.0307769775390625
1751013720853587500,4.46958740234375,-0.9281158447265625,-0.420501708984375,0.0256500244140625
1751013720863531500,4.479531494140625,-0.9285430908203125,-0.4209442138671875,0.0281524658203125
1751013720873474600,4.489474609375,-0.920166015625,-0.423095703125,0.035552978515625
1751013720883417600,4.49941748046875,-0.9152984619140625,-0.423095703125,0.042999267578125
1751013720893361700,4.509361572265625,-0.916717529296875,-0.417999267578125,0.047332763671875
1751013720903304700,4.5193046875,-0.9170379638671875,-0.4122772216796875,0.0461273193359375
1751013720913248500,4.52924853515625,-0.91705322265625,-0.4100189208984375,0.0490875244140625
1751013720923191600,4.539191650390625,-0.919097900390625,-0.40765380859375,0.052154541015625
1751013720933135600,4.549135498046875,-0.9211883544921875,-0.4059295654296875,0.05181884765625
1751013720943078400,4.559078369140625,-0.9192352294921875,-0.4116973876953125,0.045989990234375
1751013720953021400,4.569021484375,-0.9139404296875,-0.4145965576171875,0.045623779296875
1751013720962965500,4.578965576171875,-0.91204833984375,-0.4167938232421875,0.0454254150390625
1751013720972908500,4.588908447265625,-0.9154205322265625,-0.4212799072265625,0.0418548583984375
1751013720982852400,4.598852294921875,-0.9203643798828125,-0.4278564453125,0.037567138671875
1751013720992795400,4.60879541015625,-0.9256439208984375,-0.4332427978515625,0.03466796875
1751013721002739500,4.618739501953125,-0.927520751953125,-0.43408203125,0.03741455078125
1751013721012682500,4.6286826171875,-0.922271728515625,-0.4312591552734375,0.04486083984375
1751013721022625500,4.63862548828125,-0.91802978515625,-0.4266510009765625,0.0478057861328125
1751013721032569300,4.6485693359375,-0.9169464111328125,-0.4247894287109375,0.0472564697265625
1751013721042512400,4.658512451171875,-0.913330078125,-0.421783447265625,0.0461883544921875
1751013721052456400,4.66845654296875,-0.9132537841796875,-0.41766357421875,0.0455169677734375
1751013721062399500,4.6783994140625,-0.9147491455078125,-0.415771484375,0.04583740234375
1751013721072343600,4.688343505859375,-0.913604736328125,-0.4164581298828125,0.0407562255859375
1751013721082286600,4.69828662109375,-0.914276123046875,-0.4188385009765625,0.035186767578125
1751013721092229600,4.708229736328125,-0.915557861328125,-0.4217987060546875,0.0326690673828125
1751013721102173400,4.71817333984375,-0.9183349609375,-0.4210968017578125,0.0350799560546875
1751013721112116500,4.728116455078125,-0.922149658203125,-0.422119140625,0.037353515625
1751013721122060500,4.738060546875,-0.9232025146484375,-0.4295654296875,0.036651611328125
1751013721132003600,4.748003662109375,-0.9332427978515625,-0.4373931884765625,0.0342559814453125
1751013721141947400,4.757947509765625,-0.9394683837890625,-0.4387054443359375,0.031585693359375
1751013721151890400,4.767890380859375,-0.931304931640625,-0.43511962890625,0.02978515625
1751013721161833500,4.77783349609375,-0.92669677734375,-0.436187744140625,0.029632568359375
1751013721171777500,4.787777587890625,-0.93206787109375,-0.4371490478515625,0.030487060546875
1751013721181720600,4.797720458984375,-0.93646240234375,-0.43658447265625,0.0310211181640625
1751013721191664400,4.807664306640625,-0.9328155517578125,-0.43853759765625,0.030426025390625
1751013721201607400,4.817607421875,-0.9259796142578125,-0.4392852783203125,0.0301361083984375
1751013721211551500,4.827551513671875,-0.9295501708984375,-0.43853759765625,0.0290374755859375
1751013721221494500,4.83749462890625,-0.928497314453125,-0.4340362548828125,0.0363311767578125
1751013721231438300,4.847438232421875,-0.9175262451171875,-0.4279632568359375,0.0395660400390625
1751013721241381400,4.85738134765625,-0.9100494384765625,-0.4254302978515625,0.039764404296875
1751013721251324400,4.867324462890625,-0.9111328125,-0.4252166748046875,0.0417327880859375
1751013721261268500,4.8772685546875,-0.910797119140625,-0.4262237548828125,0.0435333251953125
1751013721271211300,4.887211181640625,-0.911895751953125,-0.429290771484375,0.0390167236328125
1751013721281155600,4.897155517578125,-0.910675048828125,-0.4316864013671875,0.0330657958984375
1751013721291098600,4.9070986328125,-0.8997802734375,-0.43499755859375,0.029754638671875
1751013721301042400,4.91704248046875,-0.8924713134765625,-0.4368896484375,0.032440185546875
1751013721310985500,4.9269853515625,-0.8970184326171875,-0.43841552734375,0.0373077392578125
1751013721320928500,4.936928466796875,-0.9015045166015625,-0.441619873046875,0.0377655029296875
1751013721330872600,4.94687255859375,-0.9041290283203125,-0.4397125244140625,0.0414276123046875
1751013721340815600,4.956815673828125,-0.90753173828125,-0.4364776611328125,0.0435943603515625
1751013721350759400,4.966759521484375,-0.9093780517578125,-0.4376983642578125,0.0441741943359375
1751013721360702500,4.976702392578125,-0.9103240966796875,-0.4390411376953125,0.0423431396484375
1751013721370646500,4.986646484375,-0.9141998291015625,-0.4390716552734375,0.0379791259765625
1751013721380589600,4.996589599609375,-0.9140472412109375,-0.435150146484375,0.034942626953125
1751013721390532600,5.00653271484375,-0.909271240234375,-0.432769775390625,0.0298919677734375
1751013721400476400,5.016476318359375,-0.9024810791015625,-0.4295806884765625,0.0283966064453125
1751013721410419500,5.02641943359375,-0.8992919921875,-0.4263458251953125,0.0298919677734375
1751013721420363500,5.036363525390625,-0.9022979736328125,-0.4238739013671875,0.031402587890625
1751013721430306600,5.046306640625,-0.904388427734375,-0.4250030517578125,0.0341949462890625
1751013721440250400,5.05625048828125,-0.9063873291015625,-0.427978515625,0.0373687744140625
1751013721450193400,5.066193359375,-0.9073944091796875,-0.434356689453125,0.035125732421875
1751013721460136400,5.076136474609375,-0.905517578125,-0.43951416015625,0.0302734375
1751013721470080300,5.086080322265625,-0.906005859375,-0.4399261474609375,0.0322113037109375
1751013721480023300,5.096023193359375,-0.9066314697265625,-0.4417724609375,0.0343170166015625
1751013721489967600,5.105967529296875,-0.906219482421875,-0.44329833984375,0.029205322265625
1751013721499910700,5.11591064453125,-0.906646728515625,-0.443634033203125,0.0224151611328125
1751013721509853700,5.125853759765625,-0.9055938720703125,-0.4457244873046875,0.0179443359375
1751013721519797500,5.135797607421875,-0.9017333984375,-0.448272705078125,0.019866943359375
1751013721529740500,5.145740478515625,-0.8949432373046875,-0.449798583984375,0.0204010009765625
1751013721539684600,5.1556845703125,-0.89251708984375,-0.450286865234375,0.0304412841796875
1751013721549627600,5.165627685546875,-0.8937530517578125,-0.4518585205078125,0.032073974609375
1751013721559571500,5.175571533203125,-0.8736114501953125,-0.4603729248046875,0.0183868408203125
1751013721569514500,5.185514404296875,-0.88458251953125,-0.441497802734375,0.067291259765625
1751013721579458600,5.19545849609375,-0.921142578125,-0.434539794921875,0.072296142578125
1751013721589401600,5.205401611328125,-0.9267730712890625,-0.44268798828125,0.0589447021484375
1751013721599344400,5.215344482421875,-0.9206085205078125,-0.461212158203125,0.053253173828125
1751013721609288400,5.225288330078125,-0.9166412353515625,-0.47918701171875,0.0349884033203125
1751013721619231200,5.235231201171875,-0.91998291015625,-0.48388671875,0.0326385498046875
1751013721629175300,5.24517529296875,-0.9237518310546875,-0.4807586669921875,0.0372772216796875
1751013721639118000,5.2551181640625,-0.915863037109375,-0.4742431640625,0.0370025634765625
1751013721649062400,5.2650625,-0.9064483642578125,-0.4691314697265625,0.03582763671875
1751013721659005200,5.275005126953125,-0.9031829833984375,-0.465118408203125,0.031646728515625
1751013721668948200,5.2849482421875,-0.902862548828125,-0.4604339599609375,0.0281524658203125
1751013721678892300,5.294892333984375,-0.9041748046875,-0.456451416015625,0.0285186767578125
1751013721688835300,5.30483544921875,-0.90771484375,-0.456146240234375,0.026824951171875
1751013721698779400,5.314779296875,-0.9075164794921875,-0.4613800048828125,0.0204315185546875
1751013721708722400,5.324722412109375,-0.9060516357421875,-0.4659576416015625,0.0183868408203125
1751013721718665500,5.33466552734375,-0.9068603515625,-0.46868896484375,0.0205078125
1751013721728609300,5.344609375,-0.907501220703125,-0.4725189208984375,0.0231475830078125
1751013721738552300,5.35455224609375,-0.906280517578125,-0.4759063720703125,0.0255279541015625
1751013721748496400,5.364496337890625,-0.9064483642578125,-0.4769439697265625,0.0277557373046875
1751013721758439400,5.374439453125,-0.907867431640625,-0.47808837890625,0.0317230224609375
1751013721768383200,5.38438330078125,-0.901214599609375,-0.4749908447265625,0.0354461669921875
1751013721778326300,5.394326171875,-0.893310546875,-0.4694061279296875,0.034088134765625
1751013721788270300,5.404270263671875,-0.890777587890625,-0.4645843505859375,0.0298614501953125
1751013721798213000,5.414213134765625,-0.89190673828125,-0.459686279296875,0.0279998779296875
1751013721808156200,5.42415625,-0.8940277099609375,-0.4533233642578125,0.02581787109375
1751013721818100200,5.434100341796875,-0.8988037109375,-0.4491424560546875,0.0250396728515625
1751013721828043300,5.444043212890625,-0.9041595458984375,-0.4497528076171875,0.0233917236328125
1751013721837987000,5.453987060546875,-0.904815673828125,-0.452667236328125,0.0207366943359375
1751013721847930000,5.46393017578125,-0.9040679931640625,-0.453826904296875,0.021331787109375
1751013721857873200,5.473873046875,-0.9073638916015625,-0.4556427001953125,0.0213775634765625
1751013721867817200,5.483817138671875,-0.905853271484375,-0.4591217041015625,0.0218658447265625
1751013721877760300,5.49376025390625,-0.905670166015625,-0.45849609375,0.0249786376953125
1751013721887704300,5.503704345703125,-0.905242919921875,-0.456817626953125,0.029144287109375
1751013721897647400,5.5136474609375,-0.9028472900390625,-0.4597015380859375,0.0308837890625
1751013721907591400,5.52359130859375,-0.896392822265625,-0.459136962890625,0.0316009521484375
1751013721917534500,5.533534423828125,-0.8931121826171875,-0.456451416015625,0.0289306640625
1751013721927477200,5.543477294921875,-0.8918304443359375,-0.455535888671875,0.0279388427734375
1751013721937421300,5.55342138671875,-0.8890533447265625,-0.457489013671875,0.029876708984375
1751013721947364400,5.5633642578125,-0.8878173828125,-0.454986572265625,0.030242919921875
1751013721957308400,5.573308349609375,-0.8892669677734375,-0.4539031982421875,0.02740478515625
1751013721967251200,5.583251220703125,-0.8893280029296875,-0.456329345703125,0.0282745361328125
1751013721977195300,5.5931953125,-0.891845703125,-0.458831787109375,0.0308380126953125
1751013721987138300,5.60313818359375,-0.8947601318359375,-0.4603118896484375,0.03424072265625
1751013721997081300,5.613081298828125,-0.8988037109375,-0.4609832763671875,0.035919189453125
1751013722007025200,5.623025146484375,-0.9002685546875,-0.4638519287109375,0.036163330078125
1751013722016968200,5.63296826171875,-0.9042205810546875,-0.4644927978515625,0.0337677001953125
1751013722026912300,5.642912353515625,-0.9032440185546875,-0.4631805419921875,0.028961181640625
1751013722036855300,5.652855224609375,-0.8989715576171875,-0.4584503173828125,0.0248870849609375
1751013722046799000,5.662799072265625,-0.898223876953125,-0.4549713134765625,0.02374267578125
1751013722056742100,5.6727421875,-0.894989013671875,-0.4530181884765625,0.0258026123046875
1751013722066685200,5.682685302734375,-0.891448974609375,-0.4531707763671875,0.031097412109375
1751013722076629500,5.69262939453125,-0.890594482421875,-0.4538421630859375,0.0321807861328125
1751013722086572300,5.702572265625,-0.8937835693359375,-0.4567718505859375,0.0318603515625
1751013722096516400,5.712516357421875,-0.8957061767578125,-0.4612884521484375,0.0330963134765625
1751013722106459400,5.72245947265625,-0.894378662109375,-0.461212158203125,0.03387451171875
1751013722116403500,5.732403564453125,-0.897430419921875,-0.4586944580078125,0.0365753173828125
1751013722126346200,5.74234619140625,-0.9019775390625,-0.4540863037109375,0.0397186279296875
1751013722136289300,5.752289306640625,-0.90447998046875,-0.4522552490234375,0.0394134521484375
1751013722146233300,5.7622333984375,-0.90814208984375,-0.4536590576171875,0.0380096435546875
1751013722156176400,5.77217626953125,-0.9094390869140625,-0.4529266357421875,0.0359344482421875
1751013722166120200,5.7821201171875,-0.913360595703125,-0.447021484375,0.0345001220703125
1751013722176063200,5.792063232421875,-0.9204559326171875,-0.4462127685546875,0.031524658203125
1751013722186007300,5.80200732421875,-0.9180908203125,-0.451446533203125,0.0283203125
1751013722195950300,5.811950439453125,-0.917236328125,-0.4530487060546875,0.0243072509765625
1751013722205893400,5.821893310546875,-0.917724609375,-0.449920654296875,0.022674560546875
1751013722215837200,5.831837158203125,-0.914764404296875,-0.4518280029296875,0.0235443115234375
1751013722225780200,5.8417802734375,-0.9107666015625,-0.456817626953125,0.0263214111328125
1751013722235724300,5.851724365234375,-0.9074554443359375,-0.46026611328125,0.030029296875
1751013722245667300,5.861667236328125,-0.90673828125,-0.4603729248046875,0.0341796875
1751013722255611100,5.871611083984375,-0.904205322265625,-0.45904541015625,0.03594970703125
1751013722265554200,5.88155419921875,-0.90167236328125,-0.4621734619140625,0.035797119140625
1751013722275497200,5.891497314453125,-0.902923583984375,-0.461761474609375,0.0381622314453125
1751013722285441300,5.901441162109375,-0.9041748046875,-0.4550018310546875,0.039276123046875
1751013722295384000,5.911384033203125,-0.8968505859375,-0.4464263916015625,0.040374755859375
1751013722305328400,5.921328369140625,-0.8860931396484375,-0.440673828125,0.0430908203125
1751013722315271400,5.931271484375,-0.875152587890625,-0.4355926513671875,0.0494537353515625
1751013722325215200,5.94121533203125,-0.8748626708984375,-0.4310302734375,0.0510711669921875
1751013722335158300,5.951158203125,-0.8865814208984375,-0.4285736083984375,0.0516510009765625
1751013722345101300,5.961101318359375,-0.8974609375,-0.43548583984375,0.051025390625
1751013722355045400,5.97104541015625,-0.9017181396484375,-0.4410247802734375,0.0499420166015625
1751013722364988400,5.980988525390625,-0.905029296875,-0.4397125244140625,0.0482177734375
1751013722374932200,5.99093212890625,-0.903961181640625,-0.437591552734375,0.045989990234375
1751013722384875300,6.000875244140625,-0.9031982421875,-0.4378204345703125,0.0464019775390625
1751013722394819300,6.0108193359375,-0.9091949462890625,-0.437835693359375,0.0478363037109375
1751013722404762400,6.020762451171875,-0.91033935546875,-0.4372100830078125,0.04876708984375
1751013722414705200,6.030705078125,-0.9101409912109375,-0.4364776611328125,0.0483551025390625
1751013722424649200,6.040649169921875,-0.9120025634765625,-0.4390869140625,0.047393798828125
1751013722434592300,6.05059228515625,-0.9102783203125,-0.4411773681640625,0.0460052490234375
1751013722444536300,6.060536376953125,-0.9164886474609375,-0.4395751953125,0.043609619140625
1751013722454479000,6.07047900390625,-0.9264373779296875,-0.44036865234375,0.041534423828125
1751013722464423200,6.080423095703125,-0.927032470703125,-0.44317626953125,0.034423828125
1751013722474366200,6.0903662109375,-0.9282073974609375,-0.443939208984375,0.0263519287109375
1751013722484309200,6.100309326171875,-0.9327850341796875,-0.443084716796875,0.0255126953125
1751013722494253300,6.11025341796875,-0.9304962158203125,-0.4431610107421875,0.0260772705078125
1751013722504196000,6.120196044921875,-0.9264068603515625,-0.4427642822265625,0.0263519287109375
1751013722514140400,6.130140380859375,-0.9257659912109375,-0.44732666015625,0.028533935546875
1751013722524083500,6.14008349609375,-0.9206085205078125,-0.450653076171875,0.03363037109375
1751013722534026500,6.150026611328125,-0.9065399169921875,-0.45062255859375,0.03619384765625
1751013722543970300,6.15997021484375,-0.8942108154296875,-0.4505615234375,0.037017822265625
1751013722553913300,6.169913330078125,-0.89227294921875,-0.45013427734375,0.03765869140625
1751013722563857400,6.179857421875,-0.8932647705078125,-0.449981689453125,0.0376739501953125
1751013722573800400,6.189800537109375,-0.8941192626953125,-0.4486083984375,0.0328216552734375
1751013722583744300,6.199744140625,-0.8972930908203125,-0.4480133056640625,0.0336151123046875
1751013722593687300,6.209687255859375,-0.8989715576171875,-0.44818115234375,0.0355224609375
1751013722603630300,6.21963037109375,-0.9022979736328125,-0.4478302001953125,0.0340423583984375
1751013722613574100,6.22957421875,-0.9036102294921875,-0.44586181640625,0.0308380126953125
1751013722623513600,6.239513671875,-0.8984527587890625,-0.4453887939453125,0.02911376953125
1751013722633457700,6.249457763671875,-0.893707275390625,-0.44683837890625,0.0318145751953125
1751013722643400700,6.259400634765625,-0.8916778564453125,-0.448028564453125,0.0382537841796875
1751013722653344500,6.269344482421875,-0.894287109375,-0.4498443603515625,0.0420379638671875
1751013722663287600,6.27928759765625,-0.892333984375,-0.4521636962890625,0.0458221435546875
1751013722673230600,6.289230712890625,-0.8875885009765625,-0.449737548828125,0.050445556640625
1751013722683174700,6.299174560546875,-0.8947296142578125,-0.4467315673828125,0.05181884765625
1751013722693117700,6.30911767578125,-0.907318115234375,-0.4476776123046875,0.0476531982421875
1751013722703061500,6.3190615234375,-0.9153289794921875,-0.4503173828125,0.039581298828125
1751013722713004500,6.329004638671875,-0.91949462890625,-0.4489593505859375,0.032440185546875
1751013722722948600,6.338948486328125,-0.9240875244140625,-0.4462432861328125,0.02740478515625
1751013722732891600,6.3488916015625,-0.923095703125,-0.443634033203125,0.0281829833984375
1751013722742834700,6.358834716796875,-0.9194183349609375,-0.4412078857421875,0.0289306640625
1751013722752778500,6.368778564453125,-0.9136962890625,-0.440338134765625,0.0308990478515625
1751013722762721500,6.378721435546875,-0.907440185546875,-0.440826416015625,0.030029296875
1751013722772665600,6.38866552734375,-0.90673828125,-0.44390869140625,0.0271759033203125
1751013722782608400,6.3986083984375,-0.9041748046875,-0.4504547119140625,0.0239715576171875
1751013722792552700,6.408552734375,-0.89892578125,-0.4569549560546875,0.0251922607421875
1751013722802495700,6.418495849609375,-0.9005126953125,-0.46026611328125,0.0293426513671875
1751013722812438800,6.428438720703125,-0.9057159423828125,-0.461883544921875,0.0314483642578125
1751013722822382600,6.438382568359375,-0.907379150390625,-0.463104248046875,0.028594970703125
1751013722832325600,6.44832568359375,-0.909088134765625,-0.46002197265625,0.023162841796875
1751013722842269700,6.458269775390625,-0.914520263671875,-0.458221435546875,0.0181884765625
1751013722852212700,6.468212646484375,-0.917816162109375,-0.456298828125,0.01708984375
1751013722862156500,6.478156494140625,-0.9164276123046875,-0.452117919921875,0.018829345703125
1751013722872099600,6.488099609375,-0.91583251953125,-0.4483489990234375,0.0200653076171875
1751013722882042600,6.498042724609375,-0.91070556640625,-0.4484710693359375,0.0231781005859375
1751013722891986700,6.507986572265625,-0.9050445556640625,-0.4502716064453125,0.0254058837890625
1751013722901929700,6.5179296875,-0.9016876220703125,-0.4501190185546875,0.0282135009765625
1751013722911873500,6.52787353515625,-0.8983306884765625,-0.451202392578125,0.026092529296875
1751013722921816600,6.537816650390625,-0.9005584716796875,-0.4545440673828125,0.0216217041015625
1751013722931760600,6.5477607421875,-0.9055328369140625,-0.459869384765625,0.023651123046875
1751013722941703700,6.55770361328125,-0.908721923828125,-0.462493896484375,0.0252227783203125
1751013722951646500,6.567646484375,-0.9111175537109375,-0.4613494873046875,0.025177001953125
1751013722961590500,6.577590576171875,-0.9104461669921875,-0.4620208740234375,0.0263671875
1751013722971533600,6.587533447265625,-0.9117431640625,-0.46392822265625,0.025543212890625
1751013722981477400,6.597477294921875,-0.9124755859375,-0.463165283203125,0.0267333984375
1751013722991420400,6.60742041015625,-0.9087982177734375,-0.4604034423828125,0.025146484375
1751013723001364700,6.61736474609375,-0.905670166015625,-0.45684814453125,0.028045654296875
1751013723011307800,6.627307861328125,-0.9060516357421875,-0.455108642578125,0.0303497314453125
1751013723021250800,6.637250732421875,-0.9025421142578125,-0.45452880859375,0.0325775146484375
1751013723031194600,6.647194580078125,-0.8979644775390625,-0.4524078369140625,0.0338134765625
1751013723041137700,6.6571376953125,-0.8929443359375,-0.4523468017578125,0.0348358154296875
1751013723051081700,6.667081787109375,-0.8903045654296875,-0.4535675048828125,0.0361175537109375
1751013723061024800,6.677024658203125,-0.886474609375,-0.4555206298828125,0.0394134521484375
1751013723070968600,6.686968505859375,-0.882415771484375,-0.456634521484375,0.0432891845703125
1751013723080911600,6.69691162109375,-0.8864898681640625,-0.455322265625,0.0486602783203125
1751013723090854700,6.706854736328125,-0.8962249755859375,-0.45428466796875,0.0502471923828125
1751013723100798700,6.716798828125,-0.8979034423828125,-0.450897216796875,0.0508880615234375
1751013723110741500,6.726741455078125,-0.894439697265625,-0.445159912109375,0.0479736328125
1751013723120685600,6.736685546875,-0.895355224609375,-0.4401092529296875,0.04888916015625
1751013723130628600,6.746628662109375,-0.8985137939453125,-0.4325103759765625,0.0577392578125
1751013723140572700,6.75657275390625,-0.899566650390625,-0.4237823486328125,0.0637969970703125
1751013723150515500,6.766515380859375,-0.9033966064453125,-0.42022705078125,0.062774658203125
1751013723160458500,6.77645849609375,-0.9053497314453125,-0.42572021484375,0.05181884765625
1751013723170402600,6.786402587890625,-0.906005859375,-0.43145751953125,0.0503997802734375
1751013723180345600,6.796345703125,-0.908172607421875,-0.4353485107421875,0.0494842529296875
1751013723190289400,6.806289306640625,-0.9098663330078125,-0.438446044921875,0.0458526611328125
1751013723200232400,6.816232421875,-0.9054718017578125,-0.4411468505859375,0.0472259521484375
1751013723210176800,6.8261767578125,-0.903594970703125,-0.44439697265625,0.0441741943359375
1751013723220119800,6.836119873046875,-0.90667724609375,-0.4490814208984375,0.0367431640625
1751013723230062800,6.846062744140625,-0.905487060546875,-0.4549560546875,0.032470703125
1751013723240006700,6.856006591796875,-0.9051513671875,-0.4610137939453125,0.029327392578125
1751013723249949700,6.86594970703125,-0.90716552734375,-0.4661407470703125,0.0292816162109375
1751013723259893800,6.875893798828125,-0.9108123779296875,-0.467041015625,0.03057861328125
1751013723269836500,6.88583642578125,-0.91400146484375,-0.468353271484375,0.0294342041015625
1751013723279779600,6.895779541015625,-0.9163970947265625,-0.4691925048828125,0.028656005859375
1751013723289723600,6.9057236328125,-0.91644287109375,-0.46917724609375,0.0275421142578125
1751013723299666700,6.915666748046875,-0.91302490234375,-0.466766357421875,0.027313232421875
1751013723309610500,6.925610595703125,-0.9110260009765625,-0.4642181396484375,0.030181884765625
1751013723319553500,6.935553466796875,-0.9095306396484375,-0.46246337890625,0.032928466796875
1751013723329497600,6.94549755859375,-0.907806396484375,-0.462799072265625,0.031951904296875
1751013723339440600,6.955440673828125,-0.910980224609375,-0.46539306640625,0.0299530029296875
1751013723349383700,6.9653837890625,-0.9162139892578125,-0.466888427734375,0.0288238525390625
1751013723359327500,6.975327392578125,-0.9168548583984375,-0.4669952392578125,0.0255584716796875
1751013723369270500,6.9852705078125,-0.91033935546875,-0.4662933349609375,0.0266876220703125
1751013723379214600,6.995214599609375,-0.907562255859375,-0.4636993408203125,0.0299224853515625
1751013723389157600,7.00515771484375,-0.9058837890625,-0.461090087890625,0.0323486328125
1751013723399101700,7.015101806640625,-0.9021759033203125,-0.4588165283203125,0.0338287353515625
1751013723409044500,7.02504443359375,-0.898712158203125,-0.454315185546875,0.0362396240234375
1751013723418987500,7.034987548828125,-0.8961639404296875,-0.450897216796875,0.038726806640625
1751013723428931800,7.044931884765625,-0.8903656005859375,-0.4493255615234375,0.0426483154296875
1751013723438874600,7.05487451171875,-0.8881988525390625,-0.4469757080078125,0.0500640869140625
1751013723448818700,7.064818603515625,-0.8912811279296875,-0.44635009765625,0.0526275634765625
1751013723458761700,7.07476171875,-0.891632080078125,-0.4470062255859375,0.054046630859375
1751013723468705500,7.08470556640625,-0.89453125,-0.4459991455078125,0.052825927734375
1751013723478648600,7.094648681640625,-0.8995208740234375,-0.447662353515625,0.05078125
1751013723488591600,7.104591552734375,-0.9088592529296875,-0.4476470947265625,0.0492095947265625
1751013723498535700,7.11453564453125,-0.9162750244140625,-0.4456634521484375,0.04644775390625
1751013723508478700,7.124478759765625,-0.9163665771484375,-0.4446258544921875,0.0443572998046875
1751013723518422500,7.134422607421875,-0.9122161865234375,-0.448577880859375,0.0440521240234375
1751013723528365600,7.144365478515625,-0.910797119140625,-0.4520111083984375,0.04541015625
1751013723538309600,7.1543095703125,-0.9091644287109375,-0.4501495361328125,0.0470123291015625
1751013723548252700,7.164252685546875,-0.904876708984375,-0.4487152099609375,0.0447540283203125
1751013723558195700,7.17419580078125,-0.897857666015625,-0.45037841796875,0.04339599609375
1751013723568139500,7.184139404296875,-0.8917236328125,-0.454864501953125,0.046234130859375
1751013723578082600,7.19408251953125,-0.8862457275390625,-0.4579010009765625,0.0509490966796875
1751013723588026600,7.204026611328125,-0.8809356689453125,-0.45745849609375,0.0567169189453125
1751013723597969400,7.213969482421875,-0.88092041015625,-0.4573822021484375,0.0577850341796875
1751013723607913700,7.223913818359375,-0.8807830810546875,-0.4580535888671875,0.0554351806640625
1751013723617857000,7.23385693359375,-0.885101318359375,-0.4593658447265625,0.05352783203125
1751013723627800000,7.243800048828125,-0.890411376953125,-0.4595794677734375,0.0523834228515625
1751013723637743900,7.253743896484375,-0.8936614990234375,-0.4557952880859375,0.05181884765625
1751013723647687000,7.26368701171875,-0.8981170654296875,-0.454498291015625,0.0485382080078125
1751013723657631000,7.273630859375,-0.900848388671875,-0.45343017578125,0.0460052490234375
1751013723667574000,7.283573974609375,-0.90557861328125,-0.4513702392578125,0.045257568359375
1751013723677517800,7.293517822265625,-0.909942626953125,-0.4500732421875,0.0452423095703125
1751013723687460900,7.3034609375,-0.9131011962890625,-0.4481658935546875,0.0477294921875
1751013723697404000,7.31340380859375,-0.9118804931640625,-0.45147705078125,0.0478668212890625
1751013723707348200,7.32334814453125,-0.906219482421875,-0.4560394287109375,0.0485992431640625
1751013723717290800,7.333290771484375,-0.9010467529296875,-0.456512451171875,0.0518035888671875
1751013723727235000,7.343235107421875,-0.897705078125,-0.456024169921875,0.0535888671875
1751013723737178000,7.35317822265625,-0.8968505859375,-0.4550628662109375,0.05462646484375
1751013723747122200,7.3631220703125,-0.8966827392578125,-0.454498291015625,0.05657958984375
1751013723757065000,7.37306494140625,-0.89910888671875,-0.45404052734375,0.0548095703125
1751013723767008000,7.383008056640625,-0.8998260498046875,-0.4531402587890625,0.050811767578125
1751013723776952000,7.3929521484375,-0.9021148681640625,-0.453125,0.0488128662109375
1751013723786895000,7.40289501953125,-0.90692138671875,-0.4510650634765625,0.049072265625
1751013723796839000,7.4128388671875,-0.9099578857421875,-0.4503631591796875,0.0496368408203125
1751013723806782000,7.422781982421875,-0.907867431640625,-0.451171875,0.0463714599609375
1751013723816726000,7.43272607421875,-0.9038848876953125,-0.452423095703125,0.0456390380859375
1751013723826669000,7.4426689453125,-0.9004974365234375,-0.4491729736328125,0.0487518310546875
1751013723836612900,7.45261279296875,-0.8989715576171875,-0.4445037841796875,0.0528717041015625
1751013723846556000,7.462555908203125,-0.90032958984375,-0.4451904296875,0.0543365478515625
1751013723856499000,7.4724990234375,-0.8998870849609375,-0.4500732421875,0.052215576171875
1751013723866443000,7.482443115234375,-0.8988037109375,-0.455291748046875,0.051025390625
1751013723876386000,7.492385986328125,-0.899658203125,-0.458770751953125,0.048065185546875
1751013723886329900,7.502329833984375,-0.898040771484375,-0.4592132568359375,0.0465087890625
1751013723896273000,7.51227294921875,-0.89959716796875,-0.4591522216796875,0.0476226806640625
1751013723906216000,7.5222158203125,-0.9026336669921875,-0.459930419921875,0.05084228515625
1751013723916160000,7.532159912109375,-0.9040985107421875,-0.463958740234375,0.0521392822265625
1751013723926102800,7.542102783203125,-0.90289306640625,-0.4617919921875,0.053863525390625
1751013723936047000,7.552047119140625,-0.906158447265625,-0.4573822021484375,0.0518646240234375
1751013723945990100,7.561990234375,-0.91046142578125,-0.4535980224609375,0.05078125
1751013723955934000,7.571933837890625,-0.9129180908203125,-0.451080322265625,0.0509033203125
1751013723965877000,7.581876953125,-0.9093780517578125,-0.453033447265625,0.0487060546875
1751013723975820000,7.591820068359375,-0.9059906005859375,-0.453826904296875,0.0458221435546875
1751013723985764000,7.60176416015625,-0.904571533203125,-0.45159912109375,0.0491943359375
1751013723995707100,7.61170703125,-0.903411865234375,-0.4504852294921875,0.05487060546875
1751013724005651000,7.62165087890625,-0.9001617431640625,-0.4498748779296875,0.0591888427734375
1751013724015594000,7.631593994140625,-0.895599365234375,-0.4502105712890625,0.06072998046875
1751013724025538000,7.6415380859375,-0.9011077880859375,-0.44927978515625,0.0591888427734375
1751013724035481000,7.651481201171875,-0.9088592529296875,-0.449188232421875,0.057403564453125
1751013724045423900,7.661423828125,-0.910003662109375,-0.4497528076171875,0.05120849609375
1751013724055368000,7.671367919921875,-0.9123077392578125,-0.4521484375,0.0462799072265625
1751013724065311000,7.68131103515625,-0.9156341552734375,-0.45135498046875,0.0451202392578125
1751013724075255000,7.691255126953125,-0.91656494140625,-0.450897216796875,0.04498291015625
1751013724085197800,7.70119775390625,-0.913238525390625,-0.4521331787109375,0.048248291015625
1751013724095142000,7.711141845703125,-0.9094085693359375,-0.4528045654296875,0.04620361328125
1751013724105085000,7.7210849609375,-0.901947021484375,-0.4525604248046875,0.043304443359375
1751013724115029000,7.731029052734375,-0.8985443115234375,-0.4515228271484375,0.0424957275390625
1751013724124972000,7.740971923828125,-0.898284912109375,-0.4512481689453125,0.0418548583984375
1751013724134914800,7.750914794921875,-0.896148681640625,-0.45098876953125,0.0437774658203125
1751013724144859100,7.760859130859375,-0.894439697265625,-0.4499664306640625,0.04522705078125
1751013724154802200,7.77080224609375,-0.895416259765625,-0.4494171142578125,0.04742431640625
1751013724164746000,7.78074609375,-0.8951263427734375,-0.4462738037109375,0.048553466796875
1751013724174689000,7.79068896484375,-0.8940582275390625,-0.4441986083984375,0.04705810546875
1751013724184633000,7.800633056640625,-0.8948822021484375,-0.44659423828125,0.044036865234375
1751013724194576100,7.810576171875,-0.8914794921875,-0.44891357421875,0.042572021484375
1751013724204519000,7.820518798828125,-0.88916015625,-0.4473419189453125,0.0413818359375
1751013724214463000,7.830462890625,-0.8882598876953125,-0.44580078125,0.0417327880859375
1751013724224406000,7.840406005859375,-0.891448974609375,-0.44873046875,0.0439910888671875
1751013724234350000,7.85035009765625,-0.8939361572265625,-0.453887939453125,0.04730224609375
1751013724244292900,7.86029296875,-0.898162841796875,-0.456939697265625,0.0547332763671875
1751013724254237000,7.87023681640625,-0.8992156982421875,-0.4571685791015625,0.057403564453125
1751013724264180000,7.880179931640625,-0.8933258056640625,-0.4557952880859375,0.055023193359375
1751013724274123000,7.890123046875,-0.8946685791015625,-0.4533538818359375,0.05120849609375
1751013724284066800,7.90006689453125,-0.901702880859375,-0.451568603515625,0.0433349609375
1751013724294009900,7.910009765625,-0.90313720703125,-0.4491424560546875,0.0357666015625
1751013724303954000,7.919953857421875,-0.9066314697265625,-0.4475555419921875,0.032440185546875
1751013724313897000,7.92989697265625,-0.912384033203125,-0.4460601806640625,0.032318115234375
1751013724323841000,7.939841064453125,-0.9145355224609375,-0.4474945068359375,0.03070068359375
1751013724333784000,7.9497841796875,-0.9158477783203125,-0.4496612548828125,0.0289459228515625
1751013724343726800,7.959726806640625,-0.91546630859375,-0.449066162109375,0.02520751953125
1751013724353671200,7.969671142578125,-0.918243408203125,-0.4474029541015625,0.0233612060546875
1751013724363614200,7.9796142578125,-0.923828125,-0.444122314453125,0.024200439453125
1751013724373558000,7.98955810546875,-0.9231719970703125,-0.4453277587890625,0.02294921875
1751013724383501000,7.9995009765625,-0.917724609375,-0.4459075927734375,0.02337646484375
1751013724393444000,8.009444091796874,-0.916015625,-0.445068359375,0.022735595703125
1751013724403388000,8.019387939453125,-0.915985107421875,-0.448089599609375,0.0242156982421875
1751013724413331000,8.0293310546875,-0.91204833984375,-0.4484405517578125,0.0268402099609375
1751013724423275000,8.03927490234375,-0.9074554443359375,-0.44696044921875,0.026885986328125
1751013724433218000,8.049218017578125,-0.9058990478515625,-0.4456024169921875,0.0273590087890625
1751013724443161900,8.059161865234374,-0.9031982421875,-0.446685791015625,0.026153564453125
1751013724453105000,8.06910498046875,-0.9006195068359375,-0.447021484375,0.02557373046875
1751013724463049000,8.079049072265626,-0.90130615234375,-0.4470367431640625,0.0269622802734375
1751013724472992000,8.088991943359375,-0.9032440185546875,-0.4461517333984375,0.029144287109375
1751013724482935000,8.09893505859375,-0.9055633544921875,-0.4466400146484375,0.0269317626953125
1751013724492878800,8.10887890625,-0.907867431640625,-0.4473876953125,0.022003173828125
1751013724502822000,8.11882177734375,-0.90460205078125,-0.4478912353515625,0.0222625732421875
1751013724512766000,8.128765869140626,-0.9095611572265625,-0.4488372802734375,0.0240936279296875
1751013724522709000,8.138708984375,-0.9168548583984375,-0.451690673828125,0.0265655517578125
1751013724532653000,8.148653076171875,-0.9216461181640625,-0.4530792236328125,0.0225830078125
1751013724542596000,8.15859619140625,-0.9134063720703125,-0.452850341796875,0.02374267578125
1751013724552539000,8.168538818359375,-0.9097442626953125,-0.4508514404296875,0.0266876220703125
1751013724562483200,8.178483154296876,-0.90826416015625,-0.447998046875,0.0300140380859375
1751013724572426000,8.188426025390624,-0.9031524658203125,-0.4443206787109375,0.0316314697265625
1751013724582370000,8.1983701171875,-0.901885986328125,-0.441802978515625,0.031829833984375
1751013724592313000,8.20831298828125,-0.9051513671875,-0.4410247802734375,0.0312042236328125
1751013724602257000,8.2182568359375,-0.907470703125,-0.4410247802734375,0.030731201171875
1751013724612200000,8.228199951171876,-0.91064453125,-0.440673828125,0.0301666259765625
1751013724622142500,8.238142578125,-0.9141387939453125,-0.441192626953125,0.0283203125
1751013724632086500,8.24808642578125,-0.914031982421875,-0.444244384765625,0.025177001953125
1751013724642029600,8.258029541015626,-0.9138946533203125,-0.4445648193359375,0.0229034423828125
1751013724651973400,8.267973388671875,-0.9119720458984375,-0.4449462890625,0.0204620361328125
1751013724661916400,8.27791650390625,-0.9109954833984375,-0.4440155029296875,0.0250701904296875
1751013724671860500,8.287860595703124,-0.9110565185546875,-0.444061279296875,0.031585693359375
1751013724681803500,8.297803466796875,-0.908416748046875,-0.4464263916015625,0.035552978515625
1751013724691746600,8.30774658203125,-0.91204833984375,-0.4464874267578125,0.0350494384765625
1751013724701690400,8.3176904296875,-0.919281005859375,-0.4434356689453125,0.033050537109375
1751013724711633400,8.32763330078125,-0.92291259765625,-0.440155029296875,0.031219482421875
1751013724721577500,8.337577392578124,-0.9279937744140625,-0.4415283203125,0.0283050537109375
1751013724731520500,8.3475205078125,-0.931732177734375,-0.4409637451171875,0.027740478515625
1751013724741464300,8.35746435546875,-0.93743896484375,-0.43817138671875,0.028472900390625
1751013724751407400,8.367407470703125,-0.9387969970703125,-0.4349212646484375,0.0282745361328125
1751013724761350400,8.377350341796875,-0.9323883056640625,-0.4312744140625,0.0294647216796875
1751013724771294700,8.387294677734374,-0.9252777099609375,-0.4297027587890625,0.0332794189453125
1751013724781237500,8.397237548828125,-0.9141693115234375,-0.428070068359375,0.036468505859375
1751013724791181600,8.407181640625,-0.902374267578125,-0.4300994873046875,0.0355682373046875
1751013724801124600,8.41712451171875,-0.8973846435546875,-0.4334259033203125,0.0368499755859375
1751013724811068400,8.427068359375,-0.898193359375,-0.433990478515625,0.0409698486328125
1751013724821011500,8.437011474609376,-0.8982391357421875,-0.43585205078125,0.0391387939453125
1751013724830954500,8.44695458984375,-0.8983001708984375,-0.43597412109375,0.0368804931640625
1751013724840898600,8.456898681640626,-0.901092529296875,-0.434844970703125,0.0361480712890625
1751013724850841600,8.466841552734374,-0.901702880859375,-0.433258056640625,0.036224365234375
1751013724860785400,8.476785400390625,-0.9009857177734375,-0.4287261962890625,0.0382843017578125
1751013724870728400,8.486728515625,-0.9027557373046875,-0.425933837890625,0.041046142578125
1751013724880672500,8.496672607421875,-0.902557373046875,-0.4242706298828125,0.0424346923828125
1751013724890615600,8.506615478515625,-0.90203857421875,-0.4230804443359375,0.042633056640625
1751013724900558600,8.51655859375,-0.899749755859375,-0.422760009765625,0.0396270751953125
1751013724910502400,8.52650244140625,-0.8995361328125,-0.42529296875,0.036651611328125
1751013724920445400,8.536445556640626,-0.89984130859375,-0.4288177490234375,0.0367431640625
1751013724930389500,8.546389404296875,-0.8997802734375,-0.4309844970703125,0.0372467041015625
1751013724940332300,8.556332275390625,-0.9015960693359375,-0.4345855712890625,0.0383758544921875
1751013724950276400,8.5662763671875,-0.905853271484375,-0.4381866455078125,0.040618896484375
1751013724960219400,8.576219482421875,-0.90936279296875,-0.44000244140625,0.0391998291015625
1751013724970162400,8.586162353515626,-0.90972900390625,-0.4389190673828125,0.036346435546875
1751013724980106500,8.5961064453125,-0.9097900390625,-0.435791015625,0.034088134765625
1751013724990049500,8.606049560546875,-0.9133148193359375,-0.4349822998046875,0.031524658203125
1751013724999993600,8.61599365234375,-0.9144134521484375,-0.43212890625,0.0274505615234375
1751013725009936600,8.6259365234375,-0.912109375,-0.4296417236328125,0.02313232421875
1751013725019880400,8.63588037109375,-0.9110565185546875,-0.4269866943359375,0.0250701904296875
1751013725029823500,8.645823486328124,-0.9142303466796875,-0.428314208984375,0.028961181640625
1751013725039766500,8.6557666015625,-0.9140167236328125,-0.4332733154296875,0.031829833984375
1751013725049710600,8.665710693359374,-0.91278076171875,-0.4365997314453125,0.0332183837890625
1751013725059653600,8.675653564453125,-0.9101715087890625,-0.4376373291015625,0.0343475341796875
1751013725069597400,8.685597412109376,-0.9090576171875,-0.435821533203125,0.03692626953125
1751013725079540500,8.69554052734375,-0.9073944091796875,-0.4324951171875,0.0380706787109375
1751013725089484500,8.705484619140625,-0.903564453125,-0.426025390625,0.04168701171875
1751013725099427600,8.715427490234376,-0.906707763671875,-0.4222564697265625,0.0424652099609375
1751013725109370400,8.725370361328125,-0.9083404541015625,-0.42730712890625,0.0395355224609375
1751013725119314400,8.735314453125,-0.90802001953125,-0.43377685546875,0.03765869140625
1751013725129257500,8.745257568359374,-0.9155120849609375,-0.4302215576171875,0.0386505126953125
1751013725139201300,8.755201171875,-0.9219818115234375,-0.425689697265625,0.0376739501953125
1751013725149144300,8.765144287109376,-0.9265289306640625,-0.4235687255859375,0.03277587890625
1751013725159088400,8.77508837890625,-0.9307708740234375,-0.420379638671875,0.0320587158203125
1751013725169031400,8.785031494140625,-0.934478759765625,-0.4154815673828125,0.0305023193359375
1751013725178974500,8.794974365234374,-0.93890380859375,-0.413421630859375,0.0291900634765625
1751013725188918500,8.80491845703125,-0.94775390625,-0.4121246337890625,0.0302886962890625
1751013725198861600,8.814861572265626,-0.9568939208984375,-0.412841796875,0.02703857421875
1751013725208805600,8.8248056640625,-0.9602203369140625,-0.408233642578125,0.0283660888671875
1751013725218748700,8.834748779296875,-0.96588134765625,-0.403228759765625,0.0272064208984375
1751013725228692500,8.8446923828125,-0.9684295654296875,-0.398651123046875,0.030731201171875
1751013725238635500,8.854635498046875,-0.9645538330078125,-0.3890838623046875,0.038665771484375
1751013725248578600,8.86457861328125,-0.9639129638671875,-0.3759765625,0.0561676025390625
1751013725258522600,8.874522705078125,-0.9602813720703125,-0.360565185546875,0.0465240478515625
1751013725268465400,8.88446533203125,-0.942840576171875,-0.343505859375,0.0368804931640625
1751013725278409500,8.894409423828124,-0.9316864013671875,-0.326507568359375,0.0380096435546875
1751013725288352500,8.9043525390625,-0.9415283203125,-0.3136444091796875,0.0262603759765625
1751013725298296600,8.914296630859376,-0.955108642578125,-0.307098388671875,0.0238189697265625
1751013725308239400,8.9242392578125,-0.9656982421875,-0.309783935546875,0.024169921875
1751013725318182400,8.934182373046875,-0.9710235595703125,-0.3127288818359375,0.03338623046875
1751013725328126500,8.94412646484375,-0.9722747802734375,-0.314300537109375,0.0437164306640625
1751013725338069500,8.954069580078125,-0.9708251953125,-0.3157196044921875,0.0454254150390625
1751013725348013300,8.964013427734375,-0.962860107421875,-0.31500244140625,0.047332763671875
1751013725357956400,8.973956298828124,-0.963470458984375,-0.315643310546875,0.0483551025390625
1751013725367900400,8.983900390625,-0.965301513671875,-0.318817138671875,0.0489654541015625
1751013725377843500,8.993843505859376,-0.963714599609375,-0.3186798095703125,0.046142578125
1751013725387786500,9.003786376953125,-0.9654693603515625,-0.317047119140625,0.0473480224609375
1751013725397730600,9.01373046875,-0.970428466796875,-0.3091278076171875,0.0534210205078125
1751013725407673600,9.023673583984374,-0.9719390869140625,-0.29852294921875,0.054290771484375
1751013725417617700,9.03361767578125,-0.9680328369140625,-0.28863525390625,0.05169677734375
1751013725427560400,9.043560546875,-0.964447021484375,-0.2799072265625,0.0500640869140625
1751013725437504500,9.05350439453125,-0.964111328125,-0.274505615234375,0.0374603271484375
1751013725447447600,9.063447509765625,-0.968902587890625,-0.2719268798828125,0.02520751953125
1751013725457390600,9.073390625,-0.973602294921875,-0.2717742919921875,0.018951416015625
1751013725467334400,9.08333447265625,-0.9805755615234375,-0.271026611328125,0.028228759765625
1751013725477277400,9.09327734375,-0.9817962646484375,-0.2687835693359375,0.0488128662109375
1751013725487221500,9.103221435546875,-0.97027587890625,-0.2679290771484375,0.0579071044921875
1751013725497164500,9.11316455078125,-0.9576416015625,-0.2682647705078125,0.0546875
1751013725507108400,9.1231083984375,-0.9645233154296875,-0.271575927734375,0.04364013671875
1751013725517051400,9.133051513671875,-0.9727783203125,-0.276611328125,0.0324249267578125
1751013725526994400,9.142994384765625,-0.9784088134765625,-0.278533935546875,0.043548583984375
1751013725536938500,9.1529384765625,-0.9765777587890625,-0.2718963623046875,0.0618438720703125
1751013725546881500,9.162881591796875,-0.968719482421875,-0.25958251953125,0.064300537109375
1751013725556825300,9.172825439453124,-0.9618072509765625,-0.2428131103515625,0.0628204345703125
1751013725566768400,9.182768310546875,-0.956817626953125,-0.230072021484375,0.0471343994140625
1751013725576712700,9.192712646484376,-0.9639434814453125,-0.2183380126953125,0.0435638427734375
1751013725586655500,9.202655517578124,-0.97686767578125,-0.2142486572265625,0.0234222412109375
1751013725596598300,9.212598388671875,-0.9767913818359375,-0.209228515625,0.013427734375
1751013725606542600,9.22254248046875,-0.9727935791015625,-0.2069549560546875,0.0198211669921875
1751013725616485600,9.232485595703125,-0.9788665771484375,-0.2156219482421875,0.0250091552734375
1751013725626430200,9.24243017578125,-0.9897003173828125,-0.227508544921875,0.02862548828125
1751013725636373000,9.252373046875,-0.992645263671875,-0.2368927001953125,0.0338592529296875
1751013725646317300,9.2623173828125,-0.9865264892578125,-0.2377777099609375,0.043060302734375
1751013725656260400,9.27226025390625,-0.98675537109375,-0.2342681884765625,0.0445098876953125
1751013725666203100,9.282203125,-0.9806365966796875,-0.23114013671875,0.0476226806640625
1751013725676147200,9.292147216796875,-0.9721221923828125,-0.229095458984375,0.0531158447265625
1751013725686090200,9.30209033203125,-0.9749755859375,-0.228271484375,0.066558837890625
1751013725696034300,9.312034423828125,-0.978515625,-0.2160491943359375,0.063568115234375
1751013725705977000,9.32197705078125,-0.974853515625,-0.203369140625,0.0619659423828125
1751013725715921200,9.331921142578125,-0.9723663330078125,-0.196929931640625,0.0606536865234375
1751013725725864200,9.3418642578125,-0.972320556640625,-0.1981201171875,0.060516357421875
1751013725735807200,9.35180712890625,-0.980499267578125,-0.199798583984375,0.0645294189453125
1751013725745751000,9.3617509765625,-0.9882049560546875,-0.20587158203125,0.068145751953125
1751013725755694000,9.371694091796876,-0.998626708984375,-0.21307373046875,0.063690185546875
1751013725765638100,9.38163818359375,-1.0062103271484375,-0.2137451171875,0.0503997802734375
1751013725775581200,9.391581298828125,-1.012481689453125,-0.2111358642578125,0.0523223876953125
1751013725785525000,9.40152490234375,-1.01300048828125,-0.2037811279296875,0.0589447021484375
1751013725795468000,9.411468017578125,-1.0113983154296875,-0.1959381103515625,0.061004638671875
1751013725805411000,9.4214111328125,-1.013824462890625,-0.197967529296875,0.0496673583984375
1751013725815355100,9.431355224609375,-1.02496337890625,-0.205780029296875,0.0414581298828125
1751013725825298200,9.441298095703125,-1.0276947021484375,-0.2108154296875,0.0359649658203125
1751013725835242200,9.4512421875,-1.0338287353515625,-0.2106475830078125,0.026763916015625
1751013725845185000,9.46118505859375,-1.0346527099609375,-0.2094879150390625,0.0299835205078125
1751013725855129300,9.47112939453125,-1.0127410888671875,-0.2083282470703125,0.03704833984375
1751013725865072000,9.481072021484374,-0.99542236328125,-0.205963134765625,0.0449676513671875
1751013725875015200,9.49101513671875,-0.9929656982421875,-0.2024688720703125,0.0557708740234375
1751013725884959200,9.500959228515624,-0.9939422607421875,-0.20263671875,0.0682830810546875
1751013725894902300,9.51090234375,-0.98236083984375,-0.20587158203125,0.07421875
1751013725904846000,9.52084619140625,-0.9719085693359375,-0.20831298828125,0.0756072998046875
1751013725914789000,9.5307890625,-0.976318359375,-0.2165374755859375,0.077728271484375
1751013725924733200,9.540733154296875,-0.98046875,-0.21234130859375,0.0749969482421875
1751013725934676200,9.55067626953125,-0.9825286865234375,-0.2016448974609375,0.066986083984375
1751013725944619300,9.560619384765625,-0.9779052734375,-0.19921875,0.05926513671875
1751013725954563000,9.57056298828125,-0.9743499755859375,-0.204132080078125,0.05426025390625
1751013725964506000,9.580506103515624,-0.9712066650390625,-0.2077789306640625,0.04827880859375
1751013725974450200,9.5904501953125,-0.9698944091796875,-0.200927734375,0.0449981689453125
1751013725984393200,9.600393310546876,-0.969573974609375,-0.1977996826171875,0.046112060546875
1751013725994337000,9.6103369140625,-0.969268798828125,-0.20355224609375,0.040069580078125
1751013726004280000,9.620280029296875,-0.9676361083984375,-0.21478271484375,0.0381927490234375
1751013726014223000,9.63022314453125,-0.966552734375,-0.2204437255859375,0.042266845703125
1751013726024167200,9.640167236328125,-0.968292236328125,-0.2187652587890625,0.0458526611328125
1751013726034110000,9.65010986328125,-0.968048095703125,-0.2136383056640625,0.0474090576171875
1751013726044054300,9.66005419921875,-0.968170166015625,-0.20977783203125,0.0491485595703125
1751013726053997000,9.6699970703125,-0.9720611572265625,-0.204559326171875,0.0536041259765625
1751013726063941000,9.679941162109374,-0.9788970947265625,-0.2017364501953125,0.0511627197265625
1751013726073884200,9.68988427734375,-0.98333740234375,-0.199310302734375,0.04632568359375
1751013726083827200,9.6998271484375,-0.98980712890625,-0.2006072998046875,0.0391082763671875
1751013726093771300,9.709771240234375,-0.9943084716796875,-0.2079925537109375,0.0373687744140625
1751013726103714300,9.71971435546875,-1.0087127685546875,-0.210906982421875,0.0335235595703125
1751013726113658000,9.729658203125,-1.0187530517578125,-0.1998138427734375,0.0397491455078125
1751013726123601200,9.73960107421875,-1.0146942138671875,-0.1853790283203125,0.05511474609375
1751013726133545200,9.749545166015626,-0.995269775390625,-0.17572021484375,0.0549468994140625
1751013726143488300,9.75948828125,-0.9831085205078125,-0.1707611083984375,0.047576904296875
1751013726153431300,9.769431396484375,-0.985687255859375,-0.1697845458984375,0.0402374267578125
1751013726163375000,9.779375,-0.9918975830078125,-0.1707916259765625,0.0347137451171875
1751013726173318100,9.789318115234375,-1.0060577392578125,-0.17333984375,0.0265350341796875
1751013726183262200,9.79926220703125,-1.0140380859375,-0.1749420166015625,0.023590087890625
1751013726193205000,9.809205078125,-1.01324462890625,-0.1759033203125,0.0279083251953125
1751013726203149000,9.819149169921875,-1.0062408447265625,-0.174285888671875,0.0321197509765625
1751013726213092000,9.829092041015626,-1.00408935546875,-0.1729278564453125,0.033172607421875
1751013726223035100,9.83903515625,-1.0046844482421875,-0.17767333984375,0.033172607421875
1751013726232979000,9.84897900390625,-0.999481201171875,-0.1871337890625,0.0361328125
1751013726242922000,9.858921875,-0.997161865234375,-0.1918792724609375,0.0391082763671875
1751013726252866300,9.8688662109375,-0.9932861328125,-0.194915771484375,0.0389251708984375
1751013726262809000,9.87880908203125,-0.9924774169921875,-0.1955413818359375,0.036376953125
1751013726272753200,9.888753173828125,-0.9921722412109375,-0.1914520263671875,0.0366973876953125
1751013726282696200,9.8986962890625,-0.9892120361328125,-0.1878814697265625,0.03424072265625
1751013726292639200,9.90863916015625,-0.9912109375,-0.1848602294921875,0.0356903076171875
1751013726302583300,9.918583251953125,-0.997894287109375,-0.1800537109375,0.0352783203125
1751013726312526300,9.9285263671875,-0.99188232421875,-0.1797943115234375,0.02484130859375
1751013726322470100,9.93847021484375,-0.9873199462890625,-0.18414306640625,0.0184173583984375
1751013726332413200,9.9484130859375,-0.9837493896484375,-0.1895751953125,0.018463134765625
1751013726342357200,9.958357177734374,-0.9873199462890625,-0.1922454833984375,0.0300750732421875
1751013726352300300,9.96830029296875,-0.986328125,-0.1917724609375,0.0425262451171875
1751013726362243000,9.9782431640625,-0.981475830078125,-0.1931304931640625,0.037994384765625
1751013726372187100,9.988187255859375,-0.986297607421875,-0.1899261474609375,0.034393310546875
1751013726382130200,9.998130126953125,-0.990478515625,-0.1880035400390625,0.025726318359375
1751013726392074000,10.008073974609376,-0.9980316162109375,-0.1920013427734375,0.0175323486328125
1751013726402017000,10.01801708984375,-1.0031280517578125,-0.1992950439453125,0.0157318115234375
1751013726411961000,10.027961181640626,-1.0031585693359375,-0.1985626220703125,0.0158843994140625
1751013726421904100,10.037904052734374,-1.007843017578125,-0.1896209716796875,0.0145111083984375
1751013726431847200,10.04784716796875,-1.011383056640625,-0.1800079345703125,0.0090789794921875
1751013726441791000,10.057791015625,-1.013763427734375,-0.1753387451171875,0.0015106201171875
1751013726451734000,10.067734130859375,-1.0166473388671875,-0.171630859375,-0.0007171630859375
1751013726461678300,10.07767822265625,-1.0140838623046875,-0.1716461181640625,0.0027008056640625
1751013726471621400,10.087621337890624,-1.0102081298828125,-0.179107666015625,-0.00006103515625
1751013726481565200,10.097565185546875,-1.0198974609375,-0.1863555908203125,-0.00213623046875
1751013726491508200,10.10750830078125,-1.020751953125,-0.189300537109375,0.002166748046875
1751013726501451300,10.117451171875,-1.0081939697265625,-0.1840972900390625,0.02459716796875
1751013726511395300,10.127395263671875,-0.9964752197265625,-0.1775970458984375,0.0402984619140625
1751013726521338000,10.137338134765624,-0.9867706298828125,-0.172821044921875,0.0421600341796875
1751013726531282200,10.1472822265625,-0.9813385009765625,-0.1683807373046875,0.0370025634765625
1751013726541225200,10.15722509765625,-0.982147216796875,-0.164947509765625,0.029693603515625
1751013726551169300,10.167169189453125,-0.9883270263671875,-0.167327880859375,0.017791748046875
1751013726561112000,10.177112060546875,-0.998321533203125,-0.1744537353515625,0.0023651123046875
1751013726571055000,10.18705517578125,-1.0045928955078125,-0.1813201904296875,-0.0091094970703125
1751013726580999200,10.196999267578125,-1.0000762939453125,-0.1833343505859375,-0.014007568359375
1751013726590942200,10.206942138671875,-0.995635986328125,-0.1814422607421875,-0.009674072265625
1751013726600886000,10.216885986328125,-0.9901123046875,-0.1841583251953125,-0.007537841796875
1751013726610829000,10.2268291015625,-0.99151611328125,-0.1873931884765625,-0.012420654296875
1751013726620773000,10.236773193359374,-1.001373291015625,-0.186309814453125,-0.009307861328125
1751013726630716200,10.246716064453125,-1.0048980712890625,-0.1821441650390625,-0.0027923583984375
1751013726640659200,10.2566591796875,-0.9987030029296875,-0.18060302734375,-0.003173828125
1751013726650603000,10.26660302734375,-1.0003662109375,-0.1756439208984375,-0.0070953369140625
1751013726660546000,10.276546142578125,-1.00592041015625,-0.1727752685546875,-0.0121307373046875
1751013726670490000,10.286489990234376,-1.0108642578125,-0.1739654541015625,-0.015594482421875
1751013726680433200,10.29643310546875,-1.0167236328125,-0.1748504638671875,-0.015899658203125
1751013726690376000,10.3063759765625,-1.016021728515625,-0.173919677734375,-0.0120697021484375
1751013726700320000,10.316320068359374,-1.0075225830078125,-0.1727142333984375,-0.0093994140625
1751013726710263000,10.326262939453125,-1.002838134765625,-0.172576904296875,-0.0081634521484375
1751013726720206800,10.336206787109376,-1.0038604736328125,-0.1798858642578125,-0.0023193359375
1751013726730150000,10.34614990234375,-1.007049560546875,-0.192901611328125,-0.00360107421875
1751013726740094000,10.356093994140625,-1.0090484619140625,-0.1985015869140625,-0.0013275146484375
1751013726750037000,10.366037109375,-1.00372314453125,-0.1942901611328125,-0.004241943359375
1751013726759980000,10.37597998046875,-0.999114990234375,-0.1839599609375,-0.01129150390625
1751013726769923800,10.385923828125,-0.992706298828125,-0.172027587890625,-0.00811767578125
1751013726779867000,10.395866943359374,-0.99725341796875,-0.1636505126953125,0.0070648193359375
1751013726789811200,10.405811279296875,-0.992584228515625,-0.166656494140625,0.0142974853515625
1751013726799754200,10.415754150390624,-0.9941864013671875,-0.1797943115234375,0.021728515625
1751013726809698000,10.425697998046875,-1.00213623046875,-0.1896820068359375,0.020416259765625
1751013726819641000,10.43564111328125,-0.9976806640625,-0.191497802734375,0.0099639892578125
1751013726829584100,10.445584228515624,-0.9897003173828125,-0.1886138916015625,0.006988525390625
1751013726839528200,10.455528076171875,-0.98785400390625,-0.18389892578125,0.008056640625
1751013726849471000,10.465470947265626,-0.988861083984375,-0.1793060302734375,0.0081634521484375
1751013726859415000,10.4754150390625,-0.9857330322265625,-0.182281494140625,0.0091705322265625
1751013726869358000,10.485358154296875,-0.98541259765625,-0.187103271484375,0.0097503662109375
1751013726879302100,10.49530224609375,-0.9944915771484375,-0.1917572021484375,0.005615234375
1751013726889245000,10.505244873046875,-0.9977569580078125,-0.1923370361328125,0.0001678466796875
1751013726899188000,10.51518798828125,-0.99603271484375,-0.1856536865234375,0.00286865234375
1751013726909132000,10.525132080078125,-0.9935455322265625,-0.180328369140625,0.0047454833984375
1751013726919075000,10.535074951171875,-0.991424560546875,-0.1781768798828125,0.004974365234375
1751013726929019000,10.545018798828124,-0.992767333984375,-0.1776275634765625,0.004119873046875
1751013726938962000,10.5549619140625,-0.996734619140625,-0.1777801513671875,0.0039825439453125
1751013726948906000,10.564906005859376,-1.0018768310546875,-0.179962158203125,0.0019683837890625
1751013726958849000,10.57484912109375,-1.005340576171875,-0.182891845703125,-0.0008697509765625
1751013726968792000,10.5847919921875,-1.00042724609375,-0.1819610595703125,0.0009002685546875
1751013726978735900,10.59473583984375,-0.994171142578125,-0.182281494140625,0.0002288818359375
1751013726988679000,10.604678955078125,-0.9925079345703125,-0.1792144775390625,0.005126953125
1751013726998623200,10.614623291015626,-0.9904327392578125,-0.17596435546875,0.009765625
1751013727008566000,10.62456591796875,-0.9854736328125,-0.175445556640625,0.013031005859375
1751013727018510000,10.634510009765625,-0.9824066162109375,-0.1756591796875,0.012786865234375
1751013727028453000,10.644453125,-0.984893798828125,-0.1746063232421875,0.0140533447265625
1751013727038396200,10.654396240234375,-0.9842071533203125,-0.175201416015625,0.012603759765625
1751013727048340000,10.664340087890626,-0.9867095947265625,-0.173614501953125,0.0143280029296875
1751013727058283000,10.674282958984374,-0.9917144775390625,-0.172454833984375,0.010955810546875
1751013727068227000,10.68422705078125,-0.9980926513671875,-0.174713134765625,0.0014801025390625
1751013727078170000,10.694170166015626,-1.003631591796875,-0.179656982421875,-0.00079345703125
1751013727088113200,10.704113037109375,-1.0057830810546875,-0.18524169921875,-0.001708984375
1751013727098057000,10.714056884765625,-1.0091400146484375,-0.1890716552734375,-0.0027313232421875
1751013727108000000,10.724,-1.01055908203125,-0.1924285888671875,-0.0017242431640625
1751013727117944000,10.733944091796875,-1.0055999755859375,-0.1922149658203125,0.00177001953125
1751013727127887000,10.74388720703125,-1.004058837890625,-0.1872711181640625,0
1751013727137831000,10.753830810546875,-1.00274658203125,-0.1830291748046875,-0.0035400390625
1751013727147774000,10.76377392578125,-1.0032958984375,-0.1840362548828125,-0.0053253173828125
1751013727157717000,10.773717041015624,-0.9974822998046875,-0.186492919921875,-0.002471923828125
1751013727167661000,10.7836611328125,-0.992218017578125,-0.1906585693359375,0.003936767578125
1751013727177603800,10.793603759765626,-0.9978790283203125,-0.1914520263671875,0.0076446533203125
1751013727187548000,10.8035478515625,-1.000579833984375,-0.192169189453125,0.0038604736328125
1751013727197491000,10.813490966796875,-1.0016937255859375,-0.1912384033203125,-0.00201416015625
1751013727207435000,10.82343505859375,-1.002685546875,-0.1893768310546875,-0.000274658203125
1751013727217378000,10.8333779296875,-1.00213623046875,-0.1764678955078125,0.000579833984375
1751013727227321000,10.843321044921876,-1.000396728515625,-0.1640625,0.0002288818359375
1751013727237265200,10.85326513671875,-1.0008697509765625,-0.165130615234375,0.003692626953125
1751013727247208200,10.863208251953125,-1.0035858154296875,-0.162994384765625,0.006683349609375
1751013727257152000,10.873152099609374,-1.003631591796875,-0.1595611572265625,0.0039215087890625
1751013727267095000,10.883094970703125,-1.0066680908203125,-0.16192626953125,-0.0035247802734375
1751013727277039000,10.8930390625,-1.0108489990234375,-0.1659393310546875,-0.0105438232421875
1751013727286982100,10.902982177734375,-1.0113983154296875,-0.168548583984375,-0.0164794921875
1751013727296925200,10.91292529296875,-1.000701904296875,-0.1717071533203125,-0.01397705078125
1751013727306869000,10.922868896484376,-0.9904327392578125,-0.1700286865234375,-0.0032501220703125
1751013727316812000,10.93281201171875,-0.9569091796875,-0.166259765625,0.0073699951171875
1751013727326756000,10.942756103515626,-0.8788299560546875,-0.15289306640625,0.0434417724609375
1751013727336699100,10.95269921875,-1.0258941650390625,-0.1563568115234375,0.05963134765625
1751013727346642000,10.962641845703125,-1.036712646484375,-0.1586761474609375,0.017822265625
1751013727356586000,10.9725859375,-0.9803924560546875,-0.1647186279296875,-0.0290374755859375
1751013727366529000,10.982529052734375,-1.0040130615234375,-0.1783905029296875,-0.0221710205078125
1751013727376472800,10.992472900390625,-0.9967041015625,-0.1827392578125,0.000091552734375
1751013727386415900,11.002415771484374,-0.971771240234375,-0.17779541015625,0.0144195556640625
