time,seconds_elapsed,z,y,x
1751013716503333400,0.11933349609375,0.20498403906822205,0.0012650014832615852,0.11973918229341507
1751013716513276400,0.1292763671875,0.18414054811000824,-0.01734037511050701,0.10448592901229858
1751013716523220200,0.13922021484375,0.15224945545196533,-0.023922376334667206,0.09568045288324356
1751013716533163300,0.149163330078125,0.12145771831274033,-0.033249564468860626,0.09253792464733124
1751013716543107600,0.159107666015625,0.09540321677923203,-0.028110729530453682,0.0937667042016983
1751013716553050600,0.169050537109375,0.07916752249002457,-0.018082864582538605,0.08877407759428024
1751013716562993400,0.178993408203125,0.07032236456871033,-0.018209630623459816,0.07409846037626266
1751013716572937500,0.1889375,0.06908772140741348,-0.0024525050539523363,0.05956905335187912
1751013716582880500,0.198880615234375,0.06430362164974213,0.016645556315779686,0.05582544952630997
1751013716592824600,0.208824462890625,0.050345730036497116,0.01380955521017313,0.05395803973078728
1751013716602767400,0.218767333984375,0.03935433179140091,0.0064373929053545,0.03783819079399109
1751013716612710400,0.22871044921875,0.04258154705166817,-0.004432831425219774,0.03013739548623562
1751013716622654500,0.238654541015625,0.05253724381327629,-0.02095135487616062,0.042089663445949554
1751013716632597500,0.248597412109375,0.052619535475969315,-0.028809810057282448,0.05950673669576645
1751013716642541300,0.258541259765625,0.05365816876292229,-0.03907070308923721,0.10244487971067429
1751013716652484400,0.268484375,0.034322287887334824,-0.0563756562769413,0.16257134079933167
1751013716662428400,0.278428466796875,-0.010655573569238186,-0.06848745048046112,0.21087628602981567
1751013716672371500,0.288371337890625,0.0046418895944952965,-0.053410228341817856,0.22263014316558838
1751013716682314500,0.298314453125,0.20953218638896942,-0.08852347731590271,0.05690882354974747
1751013716692258600,0.308258544921875,0.2581245005130768,-0.07297567278146744,-0.03730396181344986
1751013716702201600,0.31820166015625,0.15636323392391205,-0.06398510932922363,-0.056165535002946854
1751013716712145700,0.328145751953125,0.034628815948963165,-0.061404772102832794,-0.004088218789547682
1751013716722088400,0.33808837890625,-0.03335769101977348,-0.011805526912212372,0.0706683099269867
1751013716732032500,0.348032470703125,-0.06638648360967636,-0.0057100835256278515,0.13388323783874512
1751013716741975600,0.3579755859375,-0.08141390234231949,-0.040766872465610504,0.15485908091068268
1751013716751918600,0.367918701171875,-0.0903908833861351,-0.07830572128295898,0.14413054287433624
1751013716761862400,0.3778623046875,-0.07697627693414688,-0.07305210828781128,0.10680980235338211
1751013716771805400,0.387805419921875,-0.04992654547095299,-0.027035079896450043,0.04735153540968895
1751013716781749500,0.39774951171875,-0.016020245850086212,0.018249843269586563,-0.03027215227484703
1751013716791692500,0.407692626953125,0.008736499585211277,0.03738385811448097,-0.09912285208702087
1751013716801635600,0.417635498046875,0.027513649314641953,0.04422258958220482,-0.12997929751873016
1751013716811579400,0.427579345703125,0.036798227578401566,0.05909767374396324,-0.11370685696601868
1751013716821522400,0.4375224609375,0.03918681666254997,0.07194742560386658,-0.05090419203042984
1751013716831466500,0.447466552734375,0.03401975333690643,0.06307723373174667,0.034385405480861664
1751013716841409500,0.457409423828125,0.015794409438967705,0.05925773084163666,0.12661705911159515
1751013716851353300,0.467353271484375,-0.014336062595248222,0.09059914201498032,0.1896277219057083
1751013716861296400,0.47729638671875,-0.06013817340135574,0.12886664271354675,0.17835775017738342
1751013716871239400,0.487239501953125,-0.10611099004745483,0.12472781538963318,0.10511124134063721
1751013716881183500,0.49718359375,-0.11631036549806595,0.08337052166461945,0.01284629013389349
1751013716891126300,0.507126220703125,-0.09178637713193893,0.0592753067612648,-0.05462383106350899
1751013716901070600,0.517070556640625,-0.06082260236144066,0.049549441784620285,-0.08892028778791428
1751013716911013600,0.527013671875,-0.0390496626496315,0.03479979187250137,-0.0764646828174591
1751013716920957400,0.53695751953125,-0.03056270256638527,0.03963981941342354,-0.045049767941236496
1751013716930900500,0.546900390625,-0.02863244339823723,0.020129503682255745,-0.005502090789377689
1751013716940843500,0.556843505859375,-0.033786460757255554,-0.003477289341390133,0.05206213518977165
1751013716950787600,0.56678759765625,-0.03291773423552513,-0.012353871949017048,0.12051922082901001
1751013716960730600,0.576730712890625,-0.03344530984759331,-0.01194161456078291,0.18688705563545227
1751013716970674400,0.58667431640625,-0.046475090086460114,-0.024805214256048203,0.2281641960144043
1751013716980617500,0.596617431640625,-0.05688272416591644,-0.05832456052303314,0.23558002710342407
1751013716990560500,0.606560546875,-0.06811034679412842,-0.09269877523183823,0.2312563955783844
1751013717000504600,0.616504638671875,-0.06124072149395943,-0.10799597203731537,0.21767160296440125
1751013717010447600,0.626447509765625,-0.05097609758377075,-0.10909319669008255,0.19220592081546783
1751013717020391400,0.636391357421875,-0.03260907530784607,-0.10526090860366821,0.1623327136039734
1751013717030334500,0.64633447265625,-0.025607358664274216,-0.09940195083618164,0.14029905200004578
1751013717040278500,0.656278564453125,-0.011683288030326366,-0.07680130749940872,0.09002149850130081
1751013717050221600,0.6662216796875,-0.007968444377183914,-0.07302547246217728,0.05397268757224083
1751013717060164400,0.676164306640625,-0.00166580721270293,-0.05113828554749489,0.007880826480686665
1751013717070108400,0.6861083984375,-0.007772169075906277,-0.02448323927819729,-0.03759344667196274
1751013717080051500,0.696051513671875,-0.010492588393390179,-0.011180482804775238,-0.09592945873737335
1751013717089995300,0.705995361328125,-0.008865130133926868,0.013291037641465664,-0.1487330198287964
1751013717099938300,0.715938232421875,0.008505337871611118,0.028133368119597435,-0.1798190325498581
1751013717109882600,0.725882568359375,0.028811141848564148,0.03570367023348808,-0.1920165717601776
1751013717119825700,0.73582568359375,0.043591152876615524,0.041726142168045044,-0.17561151087284088
1751013717129768400,0.7457685546875,0.06125989556312561,0.08260220289230347,-0.13715705275535583
1751013717139712500,0.75571240234375,0.08630745857954025,0.1207280158996582,-0.1068769171833992
1751013717149655600,0.765655517578125,0.10527236014604568,0.12855450809001923,-0.08020855486392975
1751013717159599600,0.775599609375,0.11435001343488693,0.12493767589330673,-0.050406184047460556
1751013717169542700,0.785542724609375,0.10249149054288864,0.12691400945186615,-0.01991884782910347
1751013717179486500,0.795486572265625,0.07898776233196259,0.12080445140600204,0.00845873262733221
1751013717189429500,0.805429443359375,0.04446573555469513,0.08647496998310089,0.029814088717103004
1751013717199372500,0.81537255859375,0.013045494444668293,0.05640015751123428,0.04716325178742409
1751013717209316600,0.825316650390625,-0.0017787253018468618,0.03645734488964081,0.06467806547880173
1751013717219259400,0.83525927734375,0.0015552861150354147,0.010644921101629734,0.08132122457027435
1751013717229203500,0.845203369140625,0.016273245215415955,-0.012761068530380726,0.09320584684610367
1751013717239146500,0.855146484375,0.023333817720413208,-0.01787380501627922,0.10548993945121765
1751013717249089500,0.865089599609375,0.025195900350809097,0.00720651401206851,0.10516636818647385
1751013717259033300,0.875033447265625,0.023501064628362656,0.01770149916410446,0.10823619365692139
1751013717268976400,0.884976318359375,0.025348765775561333,0.01338850986212492,0.1252969354391098
1751013717278920400,0.89492041015625,0.031971514225006104,0.02281397022306919,0.15706151723861694
1751013717288863500,0.904863525390625,0.03243570402264595,0.048533715307712555,0.18300816416740417
1751013717298807300,0.914807373046875,0.034877557307481766,0.05735170468688011,0.18602606654167175
1751013717308750300,0.924750244140625,0.02641722559928894,0.04767564311623573,0.17725200951099396
1751013717318693400,0.934693359375,0.015898805111646652,0.03690395504236221,0.16501478850841522
1751013717328637700,0.9446376953125,0.009504555724561214,0.0402667298913002,0.14917510747909546
1751013717338580700,0.954580810546875,0.014763233251869678,0.045689456164836884,0.13601189851760864
1751013717348524500,0.964524658203125,0.026680612936615944,0.04243720695376396,0.1267576813697815
1751013717358467600,0.974467529296875,0.034935079514980316,0.036971334367990494,0.1154770627617836
1751013717368411600,0.98441162109375,0.03501737117767334,0.03369191661477089,0.09110434353351593
1751013717378354400,0.9943544921875,0.013376791961491108,0.03835111856460571,0.041969820857048035
1751013717388297500,1.00429736328125,-0.019407520070672035,0.02965403161942959,-0.029528597369790077
1751013717398241500,1.014241455078125,-0.0485699325799942,-0.0012263857061043382,-0.10094951838254929
1751013717408184600,1.0241845703125,-0.06313636153936386,-0.02081792987883091,-0.15588919818401337
1751013717418128400,1.03412841796875,-0.05624303221702576,-0.01866050250828266,-0.16151539981365204
1751013717428071400,1.044071533203125,-0.032408274710178375,0.00031878036679700017,-0.13289733231067657
1751013717438015500,1.054015380859375,-0.005447762086987495,0.017738517373800278,-0.0724872499704361
1751013717447958500,1.06395849609375,0.011171162128448486,0.02480201981961727,0.002930542454123497
1751013717457901600,1.073901611328125,0.01179327629506588,0.0346360057592392,0.0723615512251854
1751013717467845400,1.083845458984375,0.01980512961745262,0.04375680163502693,0.12606871128082275
1751013717477788400,1.093788330078125,0.032104406505823135,0.04677576199173927,0.15953586995601654
1751013717487732500,1.103732421875,0.04114210978150368,0.057467021048069,0.16087223589420319
1751013717497675500,1.113675537109375,0.04984398931264877,0.0755312442779541,0.1511511653661728
1751013717507619300,1.123619384765625,0.06312303990125656,0.09454754739999771,0.135240375995636
1751013717517562400,1.133562255859375,0.08750135451555252,0.10242410749197006,0.1229698657989502
1751013717527505400,1.14350537109375,0.09934283047914505,0.10616558790206909,0.1029207855463028
1751013717537449500,1.153449462890625,0.10379457473754883,0.0953744575381279,0.0820128470659256
1751013717547392500,1.163392578125,0.10162036865949631,0.06839210540056229,0.0723160058259964
1751013717557336600,1.173336669921875,0.08903932571411133,0.049247708171606064,0.0664735659956932
1751013717567279600,1.183279541015625,0.07239110767841339,0.04331977665424347,0.05560334026813507
1751013717577223400,1.193223388671875,0.05227731913328171,0.04574698209762573,0.03935060277581215
1751013717587166500,1.20316650390625,0.03211825340986252,0.04464283585548401,0.011083011515438557
1751013717597109500,1.213109619140625,0.024625185877084732,0.05686674639582634,-0.018509767949581146
1751013717607053600,1.223053466796875,0.02780766226351261,0.06966749578714371,-0.04456773400306702
1751013717616996900,1.232996826171875,0.041257958859205246,0.08500437438488007,-0.05908515676856041
1751013717626941000,1.24294091796875,0.0584140419960022,0.10705694556236267,-0.06800355017185211
1751013717636884000,1.252884033203125,0.07724685221910477,0.12521490454673767,-0.07507770508527756
1751013717646828000,1.262828125,0.09507325291633606,0.12690068781375885,-0.07930334657430649
1751013717656771000,1.27277099609375,0.10223555564880371,0.11854635179042816,-0.07771636545658112
1751013717666713900,1.2827138671875,0.10129253566265106,0.10955099761486053,-0.07575201988220215
1751013717676658000,1.292657958984375,0.08636178821325302,0.08938420563936234,-0.07156606018543243
1751013717686601000,1.30260107421875,0.06618940830230713,0.05830192193388939,-0.0640610083937645
1751013717696544800,1.312544677734375,0.042380478233098984,0.022486399859189987,-0.05184801667928696
1751013717706487800,1.32248779296875,0.01082867942750454,-0.017009077593684196,-0.036868803203105927
1751013717716430800,1.332430908203125,-0.02123125270009041,-0.05523023381829262,-0.024571655318140984
1751013717726375000,1.342375,-0.05041816458106041,-0.0742848813533783,-0.007964981719851494
1751013717736318000,1.35231787109375,-0.06935324519872665,-0.07415971159934998,0.004759068600833416
1751013717746261800,1.36226171875,-0.07434320449829102,-0.06853725016117096,0.014882276766002178
1751013717756204800,1.372204833984375,-0.07173703610897064,-0.058691807091236115,0.021377461031079292
1751013717766148900,1.38214892578125,-0.05781110003590584,-0.02455780655145645,0.029031384736299515
1751013717776092000,1.392091796875,-0.038060035556554794,0.010551710613071918,0.02761325240135193
1751013717786035000,1.402034912109375,-0.017593108117580414,0.0332690067589283,0.00812237523496151
1751013717795978800,1.411978759765625,0.0010303769959136844,0.04501194879412651,-0.015337411314249039
1751013717805921800,1.421921875,0.01577150635421276,0.05805078521370888,-0.03839639201760292
1751013717815865900,1.431865966796875,0.026866234838962555,0.06498672068119049,-0.05464433506131172
1751013717825808600,1.44180859375,0.036379843950271606,0.07499035447835922,-0.06277257204055786
1751013717835753000,1.4517529296875,0.037341512739658356,0.0727333277463913,-0.06496275216341019
1751013717845696000,1.461696044921875,0.030650854110717773,0.0563729964196682,-0.06350414454936981
1751013717855639000,1.47163916015625,0.019284214824438095,0.034565698355436325,-0.05946572497487068
1751013717865582800,1.481582763671875,0.0046602655202150345,0.013923272490501404,-0.05041497200727463
1751013717875526000,1.49152587890625,-0.004960137419402599,0.0023374564480036497,-0.030722757801413536
1751013717885470000,1.501469970703125,-0.00600436283275485,-0.003934021573513746,0.0001560612436151132
1751013717895413000,1.5114130859375,0.0003001382574439049,-0.0031672974582761526,0.029995182529091835
1751013717905356800,1.521356689453125,0.007282680366188288,0.0014570154016837478,0.06211477145552635
1751013717915299800,1.5312998046875,0.011492605321109295,0.00917645450681448,0.07523909211158752
1751013717925243000,1.541242919921875,0.008354069665074348,0.022835008800029755,0.07532963901758194
1751013717935187000,1.55118701171875,0.004067446105182171,0.02033696323633194,0.0511380173265934
1751013717945130000,1.5611298828125,0.0037055222783237696,0.0036495958920568228,0.016164589673280716
1751013717955073800,1.57107373046875,0.007212106604129076,-0.010966097936034203,-0.006353237200528383
1751013717965016800,1.581016845703125,0.019041601568460464,-0.023059247061610222,-0.026506975293159485
1751013717974961000,1.5909609375,0.029205821454524994,-0.032137431204319,-0.026985278353095055
1751013717984904000,1.600904052734375,0.032513201236724854,-0.030344057828187943,-0.024942368268966675
1751013717994846700,1.6108466796875,0.030242856591939926,-0.026131736114621162,-0.004658667836338282
1751013718004790800,1.620790771484375,0.03435477614402771,-0.01732759177684784,0.021311413496732712
1751013718014733800,1.63073388671875,0.0378941185772419,-0.0026181535795331,0.03826536238193512
1751013718024677600,1.640677734375,0.03104287013411522,0.013700366020202637,0.03911677747964859
1751013718034620700,1.65062060546875,0.021323397755622864,0.02028636261820793,0.006951382849365473
1751013718044565000,1.66056494140625,0.009060073643922806,0.01962083950638771,-0.033010147511959076
1751013718054508000,1.670508056640625,-0.0023257385473698378,0.022605976089835167,-0.07498316466808319
1751013718064451000,1.680451171875,-0.007364172954112291,0.023141272366046906,-0.11271323263645172
1751013718074395000,1.690394775390625,-0.015189073048532009,0.025792447850108147,-0.15105688571929932
1751013718084338000,1.700337890625,-0.03087109699845314,0.023439012467861176,-0.1993357390165329
1751013718094282000,1.710281982421875,-0.041606299579143524,0.0011595403775572777,-0.23538455367088318
1751013718104225000,1.72022509765625,-0.037644047290086746,-0.01028619334101677,-0.24800926446914673
1751013718114168800,1.7301689453125,-0.015685219317674637,-0.013205284252762794,-0.23596885800361633
1751013718124112000,1.74011181640625,0.01038366463035345,-0.023202789947390556,-0.19964680075645447
1751013718134055000,1.750054931640625,0.030900124460458755,-0.0239399541169405,-0.1453571915626526
1751013718143999000,1.7599990234375,0.041449174284935,-0.006987069267779589,-0.08444883674383163
1751013718153941800,1.769941650390625,0.04272908717393875,0.00022184131375979632,-0.022124743089079857
1751013718163885800,1.7798857421875,0.041062481701374054,-0.010373278521001339,0.03406316041946411
1751013718173828900,1.789828857421875,0.021516211330890656,-0.0226733535528183,0.08034810423851013
1751013718183773000,1.79977294921875,-0.0010900318156927824,-0.023551398888230324,0.11123012006282806
1751013718193715700,1.8097158203125,-0.028176244348287582,-0.020797956734895706,0.11617027968168259
1751013718203658800,1.81965869140625,-0.031133418902754784,-0.01438080333173275,0.09411770850419998
1751013718213602800,1.829602783203125,-0.024941835552453995,-0.009437443688511848,0.04627269133925438
1751013718223545900,1.8395458984375,-0.016993097960948944,0.0011171960504725575,-0.0046421559527516365
1751013718233489700,1.84948974609375,-0.0036943370942026377,0.016286294907331467,-0.0499582402408123
1751013718243432700,1.8594326171875,0.005505020264536142,0.03179521486163139,-0.08738923072814941
1751013718253377000,1.869376953125,0.008401473984122276,0.027000458911061287,-0.11469995230436325
1751013718263320000,1.879320068359375,0.004358529578894377,0.02539989911019802,-0.11473111063241959
1751013718273263000,1.88926318359375,-0.008901082910597324,0.02105628326535225,-0.11543817818164825
1751013718283207000,1.89920703125,-0.018574217334389687,0.004759068600833416,-0.10492188483476639
1751013718293150000,1.90914990234375,-0.0189563799649477,-0.0012570120161399245,-0.08319129049777985
1751013718303094000,1.919093994140625,-0.012839898467063904,-0.006406500469893217,-0.051426973193883896
1751013718313036800,1.929036865234375,-0.010035856626927853,-0.004224838688969612,-0.016819193959236145
1751013718322980900,1.93898095703125,-0.006827812176197767,-0.0006295712664723396,0.016436763107776642
1751013718332924000,1.948923828125,-0.0025414545089006424,0.0013403689954429865,0.035355858504772186
1751013718342867000,1.958866943359375,0.007232879288494587,0.0019827233627438545,0.046730220317840576
1751013718352810800,1.968810791015625,0.01913720928132534,-0.0008700547041371465,0.03895432502031326
1751013718362753800,1.97875390625,0.026523752138018608,-0.0032442628871649504,0.03251400217413902
1751013718372697900,1.98869775390625,0.030010629445314407,0.00290444353595376,0.023121297359466553
1751013718382641000,1.998640869140625,0.02796904928982258,0.0026557042729109526,0.017484983429312706
1751013718392584700,2.008584716796875,0.027124561369419098,0.0008452873444184661,0.019122295081615448
1751013718402527700,2.01852783203125,0.03241812810301781,0.0006500775925815105,0.027027888223528862
1751013718412470800,2.028470703125,0.03605041280388832,0.002091913018375635,0.03592630848288536
1751013718422414800,2.038414794921875,0.043120041489601135,-0.0013643373968079686,0.037819817662239075
1751013718432358000,2.04835791015625,0.050036802887916565,0.005148689262568951,0.03187084570527077
1751013718442301700,2.0583017578125,0.0595000796020031,0.020971860736608505,0.019414976239204407
1751013718452244700,2.06824462890625,0.06586743146181107,0.027948010712862015,-0.0015952334506437182
1751013718462189000,2.07818896484375,0.07471098750829697,0.02491520345211029,-0.028414065018296242
1751013718472131800,2.0881318359375,0.07773473858833313,0.014973889105021954,-0.049490854144096375
1751013718482075000,2.098074951171875,0.07545028626918793,0.012162922881543636,-0.06275951862335205
1751013718492019000,2.10801904296875,0.07042489945888519,0.006339122075587511,-0.07153170555830002
1751013718501962000,2.1179619140625,0.06578753888607025,-0.005218463949859142,-0.07382629066705704
1751013718511905800,2.12790576171875,0.06048997491598129,-0.02533385157585144,-0.06622935086488724
1751013718521848800,2.137848876953125,0.04994891583919525,-0.033843185752630234,-0.05590108409523964
1751013718531793000,2.14779296875,0.03840118646621704,-0.04258714243769646,-0.040353816002607346
1751013718541736000,2.15773583984375,0.02924656867980957,-0.04688867926597595,-0.030176278203725815
1751013718551679700,2.1676796875,0.017957694828510284,-0.04267023131251335,-0.025523468852043152
1751013718561622800,2.177622802734375,0.017734255641698837,-0.02871020883321762,-0.028424717485904694
1751013718571565800,2.18756591796875,0.02804521657526493,-0.009585515595972538,-0.03454732522368431
1751013718581510000,2.197510009765625,0.042210038751363754,0.004801146686077118,-0.043293412774801254
1751013718591453000,2.207452880859375,0.04982561245560646,0.015498265624046326,-0.04724181443452835
1751013718601396700,2.217396728515625,0.05271700769662857,0.011944809928536415,-0.05224562808871269
1751013718611339800,2.22733984375,0.03979162126779556,0.00041305628838017583,-0.05078994482755661
1751013718621284000,2.2372841796875,0.02221342734992504,-0.018939869478344917,-0.04390354081988335
1751013718631227100,2.24722705078125,-0.0035025894176214933,-0.02851846069097519,-0.029508357867598534
1751013718641170000,2.257169921875,-0.018687134608626366,-0.03869173675775528,-0.011315771378576756
1751013718651114000,2.267114013671875,-0.025183383375406265,-0.04511847719550133,0.004281830508261919
1751013718661057000,2.27705712890625,-0.021681061014533043,-0.03632152080535889,0.017244767397642136
1751013718671000800,2.287000732421875,-0.001662877737544477,-0.021467741578817368,0.024418523535132408
1751013718680943900,2.29694384765625,0.023814253509044647,-0.007188670802861452,0.028067853301763535
1751013718690888000,2.306887939453125,0.036909013986587524,-0.0014106763992458582,0.025844380259513855
1751013718700831000,2.3168310546875,0.044124849140644073,0.005218730308115482,0.014178137294948101
1751013718710774000,2.32677392578125,0.04255891218781471,0.0058656120672822,-0.00017070861940737814
1751013718720718000,2.336718017578125,0.03653750568628311,0.0022591594606637955,-0.013245497830212116
1751013718730660900,2.346660888671875,0.025106418877840042,-0.0025654230266809464,-0.0295546967536211
1751013718740605200,2.356605224609375,0.01581891067326069,-0.008713596500456333,-0.04519437626004219
1751013718750548200,2.36654833984375,0.002374474424868822,-0.019689548760652542,-0.06391586363315582
1751013718760492000,2.376491943359375,-0.0029939257074147463,-0.03277312591671944,-0.08177608996629715
1751013718770435000,2.38643505859375,-0.0027134947013109922,-0.04418477043509483,-0.09267774224281311
1751013718780378000,2.396378173828125,-0.007995608262717724,-0.04728629067540169,-0.0884166806936264
1751013718790322200,2.406322265625,-0.008226770907640457,-0.041610561311244965,-0.06596250832080841
1751013718800265000,2.416264892578125,-0.010390056297183037,-0.02298574335873127,-0.03208842873573303
1751013718810209000,2.426208984375,0.001654622028581798,0.004515922162681818,0.0006894923863001168
1751013718820152000,2.436152099609375,0.02774747461080551,0.025734657421708107,0.03056483343243599
1751013718830096100,2.44609619140625,0.04364814609289169,0.0356898196041584,0.049131061881780624
1751013718840039000,2.456038818359375,0.051176901906728745,0.03539980202913284,0.04225983843207359
1751013718849982000,2.46598193359375,0.052742574363946915,0.02063017711043358,0.02231942117214203
1751013718859926000,2.475926025390625,0.04761332646012306,0.009482983499765396,0.0000697748182574287
1751013718869869000,2.485869140625,0.0401436910033226,-0.0037388119380921125,-0.013379987329244614
1751013718879812900,2.495812744140625,0.03214914724230766,-0.007136206608265638,-0.02449761889874935
1751013718889756000,2.505755859375,0.023989222943782806,-0.012979181483387947,-0.024577248841524124
1751013718899700000,2.515699951171875,0.020238159224390984,-0.013333382084965706,-0.01497921533882618
1751013718909643000,2.52564306640625,0.011229485273361206,-0.01073866430670023,-0.0033723609521985054
1751013718919586000,2.5355859375,0.005528189707547426,-0.014034592546522617,0.003011236200109124
1751013718929530000,2.545530029296875,0.000494016392622143,-0.015935024246573448,0.0002511360798962414
1751013718939473000,2.555472900390625,0.008843825198709965,-0.01624581590294838,-0.0008615325787104666
1751013718949417200,2.565417236328125,0.0224981177598238,-0.015531023032963276,0.0025896579027175903
1751013718959360000,2.575360107421875,0.03846776485443115,-0.010945858433842659,0.014127003960311413
1751013718969304000,2.585303955078125,0.043721381574869156,-0.004502872936427593,0.023385750129818916
1751013718979247000,2.5952470703125,0.04234505817294121,0.006352704484015703,0.043055057525634766
1751013718989190100,2.605190185546875,0.028966937214136124,0.015294800512492657,0.05349012091755867
1751013718999134000,2.615134033203125,0.0032581111881881952,0.02124803140759468,0.04101534187793732
1751013719009077000,2.625076904296875,-0.018312694504857063,0.022424083203077316,0.013904896564781666
1751013719019021000,2.63502099609375,-0.030852986499667168,0.014638597145676613,-0.023333817720413208
1751013719028964000,2.644964111328125,-0.03747333958745003,0.005813147872686386,-0.05193749815225601
1751013719038908000,2.654907958984375,-0.03512443229556084,0.0008772452711127698,-0.060926202684640884
1751013719048851000,2.664850830078125,-0.03509300574660301,-0.011288873851299286,-0.06208733841776848
1751013719058794000,2.6747939453125,-0.028010861948132515,-0.021815815940499306,-0.03876923397183418
1751013719068738000,2.684738037109375,-0.025060612708330154,-0.023383619263768196,-0.011063570156693459
1751013719078681000,2.69468115234375,-0.014696920290589333,-0.015218101441860199,0.019595272839069366
1751013719088625000,2.704625,-0.010693390853703022,-0.00842783972620964,0.038721028715372086
1751013719098568000,2.71456787109375,-0.0007472829893231392,-0.0002516687090974301,0.03868614137172699
1751013719108512000,2.724511962890625,0.004611263517290354,0.009560748003423214,0.03910266235470772
1751013719118455000,2.734455078125,0.01503940299153328,0.019773704931139946,0.03544134646654129
1751013719128397800,2.744397705078125,0.02002830244600773,0.023808127269148827,0.026806047186255455
1751013719138342100,2.754342041015625,0.013732856139540672,0.01641945354640484,0.019644008949398994
1751013719148285200,2.76428515625,0.004314321093261242,0.006523679476231337,0.0027377295773476362
1751013719158229000,2.77422900390625,0.0020817930344492197,-0.0018013621447607875,-0.009604424238204956
1751013719168172000,2.784172119140625,-0.0029763488564640284,-0.006905576679855585,-0.015050055459141731
1751013719178116000,2.7941162109375,-0.00785525981336832,-0.00315984059125185,-0.011988219805061817
1751013719188059100,2.80405908203125,-0.012175706215202808,-0.0013763216556981206,-0.007724232506006956
1751013719198003000,2.8140029296875,-0.009042230434715748,-0.0009062737226486206,0.001463939668610692
1751013719207946000,2.823946044921875,0.003816842334344983,0.003683151677250862,0.010064352303743362
1751013719217889000,2.833888916015625,0.020124442875385284,0.009969543665647507,0.012292885221540928
1751013719227833000,2.8438330078125,0.0246073417365551,0.01889432966709137,0.011549596674740314
1751013719237776100,2.853776123046875,0.030980819836258888,0.028813272714614868,0.00316037330776453
1751013719247720000,2.863719970703125,0.035112980753183365,0.04069336876273155,-0.01655394211411476
1751013719257663000,2.8736630859375,0.040040891617536545,0.053888000547885895,-0.03737826272845268
1751013719267607000,2.88360693359375,0.04067525640130043,0.06088199093937874,-0.05753173679113388
1751013719277550000,2.893550048828125,0.0442204587161541,0.0526733323931694,-0.06724375486373901
1751013719287492900,2.903492919921875,0.036909814924001694,0.024940770119428635,-0.06949811428785324
1751013719297437000,2.91343701171875,0.014254570007324219,-0.007762848399579525,-0.058159977197647095
1751013719307380000,2.9233798828125,-0.012436696328222752,-0.03143062815070152,-0.04489823430776596
1751013719317324000,2.933323974609375,-0.03544028103351593,-0.04941042512655258,-0.03923741728067398
1751013719327266800,2.943266845703125,-0.05170287564396858,-0.06857666373252869,-0.03717479854822159
1751013719337211100,2.953211181640625,-0.05561292916536331,-0.07771530002355576,-0.04538905248045921
1751013719347154200,2.963154296875,-0.041192974895238876,-0.07139188796281815,-0.041907235980033875
1751013719357097200,2.97309716796875,-0.018091119825839996,-0.05656314268708229,-0.03495611995458603
1751013719367041000,2.983041015625,0.004774515051394701,-0.037635527551174164,-0.028190892189741135
1751013719376984000,2.992984130859375,0.024986576288938522,-0.01763305626809597,-0.018941467627882957
1751013719386928000,3.00292822265625,0.036016590893268585,-0.0015422365395352244,-0.017604293301701546
1751013719396871200,3.01287109375,0.04121800884604454,0.0051654670387506485,-0.010010556317865849
1751013719406815000,3.02281494140625,0.033727072179317474,0.011569837108254433,-0.00370072852820158
1751013719416758000,3.032758056640625,0.01986558362841606,0.017246099188923836,-0.0007294398383237422
1751013719426701000,3.042701171875,0.009163671173155308,0.02480042167007923,0.00001864212754298933
1751013719436645000,3.05264501953125,0.0037561224307864904,0.024527980014681816,-0.004459995776414871
1751013719446588200,3.062588134765625,0.0017526262672618032,0.017316406592726707,-0.00344559783115983
1751013719456532000,3.072531982421875,-0.007918110117316246,0.017829330638051033,-0.006176136899739504
1751013719466475000,3.08247509765625,-0.016710270196199417,0.021031515672802925,-0.007509581744670868
1751013719476419000,3.092419189453125,-0.025857696309685707,0.02701936662197113,-0.0038045919500291348
1751013719486361900,3.10236181640625,-0.03490898013114929,0.033238913863897324,0.008008391596376896
1751013719496306000,3.112305908203125,-0.037280261516571045,0.03554707393050194,0.021739650517702103
1751013719506249000,3.1222490234375,-0.033608295023441315,0.04061746597290039,0.04110509157180786
1751013719516192000,3.13219189453125,-0.024404408410191536,0.05362701043486595,0.0675412267446518
1751013719526135800,3.1421357421875,-0.011395399458706379,0.05944148823618889,0.09227266907691956
1751013719536078800,3.152078857421875,0.002168079372495413,0.06366286426782608,0.10417087376117706
1751013719546023200,3.162023193359375,0.003997670952230692,0.06089743971824646,0.10638795793056488
1751013719555966200,3.17196630859375,0.005520466715097427,0.05686328187584877,0.09269718080759048
1751013719565910000,3.181909912109375,0.0018602180061861873,0.04187607765197754,0.06895190477371216
1751013719575853000,3.19185302734375,-0.00875008199363947,0.01919872872531414,0.03297952190041542
1751013719585796000,3.201796142578125,-0.022875754162669182,0.007691741921007633,-0.0019558256026357412
1751013719595740200,3.211740234375,-0.028871595859527588,-0.0033329459838569164,-0.03460324928164482
1751013719605683200,3.22168310546875,-0.03453001379966736,-0.0018602180061861873,-0.06163593381643295
1751013719615626800,3.231626708984375,-0.03406102955341339,0.013432984240353107,-0.06861528009176254
1751013719625569800,3.24156982421875,-0.02371651493012905,0.041310153901576996,-0.0581197626888752
1751013719635513900,3.251513916015625,-0.015329421497881413,0.06667037308216095,-0.05150233954191208
1751013719645457000,3.261456787109375,-0.008971656672656536,0.08112122118473053,-0.043604735285043716
1751013719655399700,3.271399658203125,-0.0002777676854748279,0.07997286319732666,-0.03807574510574341
1751013719665343700,3.28134375,-0.0012402341235429049,0.06987176090478897,-0.03924727067351341
1751013719675286800,3.291286865234375,-0.009728261269629002,0.05134574696421623,-0.0350879468023777
1751013719685230800,3.30123095703125,-0.022957246750593185,0.019766246899962425,-0.03208363428711891
1751013719695173600,3.311173583984375,-0.036497291177511215,-0.012706474401056767,-0.03099599853157997
1751013719705117700,3.32111767578125,-0.043541353195905685,-0.0333491675555706,-0.022542860358953476
1751013719715060700,3.331060791015625,-0.04893159121274948,-0.040648359805345535,-0.009891512803733349
1751013719725003800,3.341003662109375,-0.05404645577073097,-0.03844911977648735,-0.0032229574862867594
1751013719734947600,3.350947509765625,-0.04548865556716919,-0.021731926128268242,-0.0002894856152124703
1751013719744890600,3.360890625,-0.03464852273464203,-0.004789162427186966,0.0035302862524986267
1751013719754835000,3.3708349609375,-0.014817029237747192,0.019707124680280685,0.0007843009079806507
1751013719764778000,3.380778076171875,0.0038104509003460407,0.02978958748281002,-0.0037670412566512823
1751013719774721800,3.3907216796875,0.019086342304944992,0.02755945548415184,-0.009851565584540367
1751013719784664800,3.400664794921875,0.021978270262479782,0.021034179255366325,-0.009224923327565193
1751013719794609000,3.41060888671875,0.01689775660634041,0.007530088070780039,-0.012461196631193161
1751013719804552000,3.420552001953125,0.0067633637227118015,-0.018021345138549805,-0.02279585972428322
1751013719814495000,3.430494873046875,-0.005950567312538624,-0.047631435096263885,-0.02749873511493206
1751013719824438800,3.440438720703125,-0.009221994318068027,-0.0656312108039856,-0.029407422989606857
1751013719834381800,3.4503818359375,-0.009017463773488998,-0.06765440851449966,-0.024083498865365982
1751013719844326000,3.460325927734375,-0.009522665292024612,-0.06858278810977936,-0.013166136108338833
1751013719854268700,3.4702685546875,-0.00902598537504673,-0.0542597770690918,-0.004235225263983011
1751013719864212700,3.480212646484375,-0.001353684812784195,-0.024520257487893105,-0.0015164038632065058
1751013719874155800,3.49015576171875,0.004430967383086681,0.004265052266418934,-0.005607285536825657
1751013719884098800,3.500098876953125,0.01504259929060936,0.024153007194399834,-0.01594860665500164
1751013719894042600,3.510042724609375,0.01865491084754467,0.03743419051170349,-0.0225047767162323
1751013719903985700,3.519985595703125,0.029773874208331108,0.04192827641963959,-0.02516127936542034
1751013719913929700,3.5299296875,0.028387166559696198,0.0393439419567585,-0.025076856836676598
1751013719923872800,3.539872802734375,0.023141272366046906,0.02726038359105587,-0.031001858413219452
1751013719933816600,3.549816650390625,0.006030994467437267,0.013843377120792866,-0.03572550788521767
1751013719943759600,3.559759521484375,-0.004463457968086004,-0.010207896120846272,-0.047679103910923004
1751013719953702700,3.56970263671875,-0.02056705951690674,-0.0326349101960659,-0.059960272163152695
1751013719963647000,3.57964697265625,-0.026441993191838264,-0.05398999899625778,-0.06318855285644531
1751013719973590000,3.589590087890625,-0.026977023109793663,-0.06474810093641281,-0.06087373569607735
1751013719983533800,3.599533935546875,-0.03203170374035835,-0.05403180792927742,-0.0542571134865284
1751013719993476900,3.609476806640625,-0.02335485816001892,-0.01865677535533905,-0.04739414528012276
1751013720003421000,3.6194208984375,-0.010373012162744999,0.025839585810899734,-0.04789082705974579
1751013720013363700,3.62936376953125,0.01919286884367466,0.059603940695524216,-0.06481601297855377
1751013720023306800,3.639306640625,0.040947698056697845,0.08563713729381561,-0.09143085032701492
1751013720033250800,3.649250732421875,0.058525361120700836,0.09457630664110184,-0.12991565465927124
1751013720043193900,3.65919384765625,0.06642376631498337,0.07521326094865799,-0.15833185613155365
1751013720053137700,3.6691376953125,0.06743656098842621,0.03930586203932762,-0.1747313290834427
1751013720063080700,3.679080810546875,0.05614982172846794,-0.00027084347675554454,-0.1731605976819992
1751013720073024800,3.689024658203125,0.038607846945524216,-0.03714470565319061,-0.1430351883172989
1751013720082967800,3.6989677734375,0.0121839614585042,-0.061115019023418427,-0.09740111976861954
1751013720092911600,3.70891162109375,-0.009458216838538647,-0.0771496444940567,-0.04748895391821861
1751013720102854700,3.718854736328125,-0.02532160095870495,-0.08650773018598557,0.0007219829712994397
1751013720112797700,3.728797607421875,-0.027603399008512497,-0.0777222216129303,0.039566051214933395
1751013720122741800,3.73874169921875,-0.02304380014538765,-0.0590345561504364,0.06330094486474991
1751013720132684800,3.748684814453125,-0.011632953770458698,-0.04309793561697006,0.0673859640955925
1751013720142628600,3.758628662109375,-0.001680454588495195,-0.02768569067120552,0.0559610053896904
1751013720152571600,3.768571533203125,0.0033135050907731056,-0.017434384673833847,0.03747360408306122
1751013720162516000,3.778515869140625,0.013493171893060207,-0.017895376309752464,0.015894543379545212
1751013720172459000,3.788458984375,0.01426255889236927,-0.012832707725465298,-0.0012250541476532817
1751013720182401800,3.79840185546875,0.027347467839717865,0.0014093448407948017,-0.010391920804977417
1751013720192345900,3.808345947265625,0.042144790291786194,0.02045094594359398,-0.008971123956143856
1751013720202289000,3.818288818359375,0.05224829167127609,0.0370059534907341,0.001645567244850099
1751013720212232700,3.828232666015625,0.052977997809648514,0.04092239961028099,0.01284495834261179
1751013720222175700,3.83817578125,0.04122626781463623,0.03825604170560837,0.022716498002409935
1751013720232119800,3.848119873046875,0.01569587178528309,0.02948944829404354,0.04123079404234886
1751013720242062800,3.858062744140625,-0.008857673965394497,0.03488767519593239,0.055441420525312424
1751013720252006000,3.868005859375,-0.04117752984166145,0.04301191493868828,0.06004815548658371
1751013720261949700,3.87794970703125,-0.07037696242332458,0.05335323512554169,0.05041790008544922
1751013720271892700,3.887892822265625,-0.0846504420042038,0.06616410613059998,0.028027905151247978
1751013720281836800,3.8978369140625,-0.08799749612808228,0.06982994824647903,0.011300059035420418
1751013720291779800,3.90777978515625,-0.09602560102939606,0.06620485335588455,-0.0018341189716011286
1751013720301723600,3.9177236328125,-0.10819118469953537,0.05692000687122345,-0.018310297280550003
1751013720311666700,3.927666748046875,-0.12114959210157394,0.05041736736893654,-0.031855933368206024
1751013720321609700,3.937609619140625,-0.12109553068876266,0.05083468556404114,-0.04140017181634903
1751013720331553800,3.9475537109375,-0.10842261463403702,0.046657249331474304,-0.03785470500588417
1751013720341496800,3.957496826171875,-0.08522488176822662,0.04219326004385948,-0.01786768063902855
1751013720351440600,3.967440673828125,-0.05636313930153847,0.037923414260149,0.017769942060112953
1751013720361383700,3.9773837890625,-0.03572923690080643,0.04489237442612648,0.053886134177446365
1751013720371328000,3.987327880859375,-0.016803747043013573,0.052686914801597595,0.08476308733224869
1751013720381270800,3.997270751953125,-0.004283694550395012,0.047382693737745285,0.09756916761398315
1751013720391214800,4.00721484375,0.0010844392236322165,0.04001932218670845,0.0910731852054596
1751013720401158000,4.017157958984375,-0.007475759368389845,0.03560379892587662,0.06408844143152237
1751013720411101000,4.027100830078125,-0.015207981690764427,0.020493824034929276,0.028836708515882492
1751013720421044700,4.037044677734375,-0.027480892837047577,0.005879727192223072,-0.005242965184152126
1751013720430987800,4.04698779296875,-0.041736260056495667,-0.0057471017353236675,-0.030778152868151665
1751013720440931800,4.056931884765625,-0.055690959095954895,-0.017295632511377335,-0.04199884831905365
1751013720450875000,4.066875,-0.05841883644461632,-0.02039581909775734,-0.03315528854727745
1751013720460818700,4.076818603515625,-0.05516232177615166,-0.02093271166086197,-0.014904380775988102
1751013720470761700,4.08676171875,-0.04348995164036751,-0.02575809322297573,0.007228618022054434
1751013720480704800,4.096704833984375,-0.0378352627158165,-0.02911633998155594,0.030286001041531563
1751013720490648800,4.10664892578125,-0.04567081481218338,-0.035478364676237106,0.03580886498093605
1751013720500591900,4.116591796875,-0.051851481199264526,-0.04218979924917221,0.01876596361398697
1751013720510535700,4.12653564453125,-0.05916452035307884,-0.05367734283208847,-0.005797701422125101
1751013720520478700,4.136478759765625,-0.06618301570415497,-0.06964299082756042,-0.02793070115149021
1751013720530422800,4.1464228515625,-0.07248884439468384,-0.0820397436618805,-0.04469290375709534
1751013720540365600,4.156365478515625,-0.08360328525304794,-0.08476389199495316,-0.05666594207286835
1751013720550308600,4.16630859375,-0.09444048255681992,-0.08172149211168289,-0.05415964126586914
1751013720560252700,4.176252685546875,-0.09574383497238159,-0.07476212084293365,-0.03534254431724548
1751013720570195700,4.18619580078125,-0.09069447964429855,-0.057807374745607376,-0.011212441138923168
1751013720580139800,4.196139892578125,-0.07941360026597977,-0.03870824724435806,0.009681123308837414
1751013720590082800,4.206082763671875,-0.06241890415549278,-0.025421736761927605,0.0233487319201231
1751013720600027000,4.21602685546875,-0.04868444800376892,-0.03032967634499073,0.02492053061723709
1751013720609970000,4.225969970703125,-0.03801422566175461,-0.037581995129585266,0.014149108901619911
1751013720619916500,4.23591650390625,-0.03151318430900574,-0.05378067493438721,-0.008837699890136719
1751013720629860400,4.2458603515625,-0.0278614591807127,-0.07902930676937103,-0.028232969343662262
1751013720639803400,4.255803466796875,-0.028052140027284622,-0.0966077670454979,-0.03890851512551308
1751013720649747500,4.26574755859375,-0.033552899956703186,-0.11567360162734985,-0.038548458367586136
1751013720659690500,4.2756904296875,-0.046185605227947235,-0.13038331270217896,-0.021817946806550026
1751013720669634600,4.285634521484375,-0.05759591981768608,-0.13324087858200073,-0.005612611770629883
1751013720679577600,4.29557763671875,-0.061167217791080475,-0.12192084640264511,0.004057325888425112
1751013720689521700,4.305521728515625,-0.05383926257491112,-0.0889170914888382,0.009689112193882465
1751013720699464400,4.31546435546875,-0.03845764324069023,-0.0501856729388237,0.0011124024167656898
1751013720709407500,4.325407470703125,-0.014873487874865532,-0.00980469398200512,-0.0036727653350681067
1751013720719351600,4.3353515625,0.005636580288410187,0.02095082215964794,-0.008808138780295849
1751013720729294600,4.345294677734375,0.024599885568022728,0.037761226296424866,-0.013742976821959019
1751013720739238400,4.35523828125,0.034801121801137924,0.04368942230939865,-0.009950102306902409
1751013720749181400,4.365181396484375,0.03323252126574516,0.034448787569999695,-0.00046312372433021665
1751013720759125500,4.37512548828125,0.0210040844976902,0.018437862396240234,0.012737100012600422
1751013720769068500,4.385068603515625,0.00869229156523943,0.0026072347536683083,0.025892050936818123
1751013720779011600,4.395011474609375,-0.004188087303191423,-0.014990401454269886,0.038553252816200256
1751013720788955400,4.404955322265625,-0.023199329152703285,-0.013396232388913631,0.04911428317427635
1751013720798898400,4.4148984375,-0.04050002247095108,-0.011687016114592552,0.0518227182328701
1751013720808842500,4.424842529296875,-0.055143412202596664,-0.018625082448124886,0.040721595287323
1751013720818785500,4.43478564453125,-0.0618753507733345,-0.0149826779961586,0.014100905507802963
1751013720828729300,4.444729248046875,-0.060270797461271286,-0.00538544449955225,-0.016055133193731308
1751013720838672400,4.45467236328125,-0.0531950443983078,0.0030269487760961056,-0.04053251072764397
1751013720848615400,4.464615478515625,-0.05251007899641991,0.011804727837443352,-0.05114680901169777
1751013720858559500,4.4745595703125,-0.061618622392416,0.02208266593515873,-0.04290192574262619
1751013720868502300,4.484502197265625,-0.08313190191984177,0.051651209592819214,-0.011241203173995018
1751013720878446600,4.494446533203125,-0.09609483927488327,0.06776120513677597,0.025050224736332893
1751013720888389600,4.5043896484375,-0.10450563579797745,0.056169264018535614,0.050570499151945114
1751013720898333400,4.51433349609375,-0.09380318969488144,0.03326714411377907,0.05648484826087952
1751013720908276500,4.5242763671875,-0.07720930129289627,0.0054482948035001755,0.058289673179388046
1751013720918219500,4.534219482421875,-0.055518120527267456,-0.025491245090961456,0.05788353830575943
1751013720928163600,4.54416357421875,-0.03267725184559822,-0.050275154411792755,0.05084080994129181
1751013720938106600,4.554106689453125,-0.010716826654970646,-0.061654310673475266,0.05492130666971207
1751013720948050400,4.564050537109375,0.0057401773519814014,-0.0627715066075325,0.06786506623029709
1751013720957993500,4.573993408203125,0.016572318971157074,-0.05030977725982666,0.0814967229962349
1751013720967937500,4.5839375,0.019464511424303055,-0.014710502699017525,0.07761223614215851
1751013720977880600,4.593880615234375,0.01901310496032238,0.0161209125071764,0.056351155042648315
1751013720987823400,4.6038232421875,0.019483420997858047,0.035355858504772186,0.01593742147088051
1751013720997767400,4.613767333984375,0.019474897533655167,0.03725576028227806,-0.026475815102458
1751013721007710500,4.62371044921875,0.012047874741256237,0.02816452644765377,-0.05970674008131027
1751013721017654500,4.633654541015625,0.007818774320185184,0.01919739693403244,-0.07812010496854782
1751013721027597300,4.643597412109375,0.001711081014946103,0.002855707658454776,-0.0720001608133316
1751013721037541400,4.653541259765625,0.001811482128687203,-0.017061274498701096,-0.04445534944534302
1751013721047484400,4.663484375,0.0013797837309539318,-0.038474686443805695,-0.010437726974487305
1751013721057427500,4.673427490234375,0.0023134879302233458,-0.05553942546248436,0.03147377073764801
1751013721067371500,4.68337158203125,0.0018093516118824482,-0.05920180305838585,0.06439283490180969
1751013721077314300,4.693314208984375,0.0022066952660679817,-0.05150926485657692,0.10024671256542206
1751013721087258600,4.703258544921875,0.013045494444668293,-0.04366918280720711,0.12631826102733612
1751013721097201700,4.71320166015625,0.012152004055678844,-0.03586052730679512,0.13755600154399872
1751013721107145500,4.7231455078125,0.013654293492436409,-0.023381754755973816,0.1346728652715683
1751013721117088500,4.733088623046875,0.01347692683339119,-0.0016700683627277613,0.12596246600151062
1751013721127031600,4.743031494140625,0.014077203348279,0.006272276863455772,0.1095411404967308
1751013721136975600,4.7529755859375,0.012169847264885902,0.0049465554766356945,0.09029367566108704
1751013721146918700,4.762918701171875,0.019591543823480606,0.008655006997287273,0.07842157036066055
1751013721156862500,4.772862548828125,0.022832345217466354,0.016927851364016533,0.07185368239879608
1751013721166805500,4.782805419921875,0.02913311868906021,0.018244251608848572,0.06017225980758667
1751013721176749600,4.79274951171875,0.027119768783450127,0.015014635398983955,0.041183121502399445
1751013721186692400,4.8026923828125,0.021093301475048065,0.016056464985013008,0.024828117340803146
1751013721196636400,4.812636474609375,0.016413327306509018,0.03358139470219612,0.004816593136638403
1751013721206579500,4.822579345703125,0.01104226429015398,0.0313643142580986,-0.007221161387860775
1751013721216522500,4.8325224609375,0.004110589157789946,0.024518126621842384,-0.009214537218213081
1751013721226466300,4.84246630859375,-0.0026170883793383837,0.02052924409508705,0.008815862238407135
1751013721236409300,4.852409423828125,-0.002645584288984537,0.013318468816578388,0.032825056463479996
1751013721246353400,4.862353515625,0.0010631339391693473,0.000520647969096899,0.05723479390144348
1751013721256296400,4.87229638671875,-0.001978995045647025,-0.01661040261387825,0.07474081963300705
1751013721266240500,4.882240478515625,0.005021123681217432,-0.025049161165952682,0.08830269426107407
1751013721276183600,4.89218359375,0.008156996220350266,-0.014789066277444363,0.09478722512722015
1751013721286126300,4.902126220703125,0.01245400682091713,0.01665940321981907,0.10395995527505875
1751013721296070700,4.912070556640625,0.017299095168709755,0.04638320952653885,0.10141663253307343
1751013721306013700,4.922013671875,0.015279886312782764,0.06238534674048424,0.07626334577798843
1751013721315957500,4.93195751953125,0.02129649929702282,0.05446004495024681,0.04373150318861008
1751013721325900500,4.941900634765625,0.026375947520136833,0.035869050770998,0.015169098973274231
1751013721335843600,4.951843505859375,0.026100043207406998,0.014221013523638248,-0.013836720027029514
1751013721345787600,4.96178759765625,0.014969628304243088,-0.004583832807838917,-0.031212780624628067
1751013721355730400,4.97173046875,-0.0023209447972476482,-0.017883924767374992,-0.0471147820353508
1751013721365674500,4.981674560546875,-0.009395898319780827,-0.03353452309966087,-0.058393269777297974
1751013721375617500,4.991617431640625,-0.012327772565186024,-0.038178544491529465,-0.06189345940947533
1751013721385561300,5.001561279296875,-0.0022423816844820976,-0.03043966554105282,-0.05385550856590271
1751013721395504400,5.01150439453125,0.015980564057826996,-0.010552243329584599,-0.029385851696133614
1751013721405447400,5.021447509765625,0.0374312624335289,0.006447779480367899,0.0027569043450057507
1751013721415391500,5.0313916015625,0.05329518020153046,0.01786475069820881,0.034281276166439056
1751013721425334500,5.04133447265625,0.06400614976882935,0.015053518116474152,0.059544552117586136
1751013721435278300,5.0512783203125,0.06300772726535797,0.009955162182450294,0.07516958564519882
1751013721445221400,5.061221435546875,0.06543679535388947,0.006543120369315147,0.0854422003030777
1751013721455165400,5.07116552734375,0.06858891248703003,0.005545233841985464,0.09485460817813873
1751013721465108500,5.0811083984375,0.06646984070539474,0.007045126520097256,0.09781497716903687
1751013721475051500,5.091051513671875,0.06108572334051132,0.007876032963395119,0.10114872455596924
1751013721484995600,5.10099560546875,0.04868791252374649,0.007424094248563051,0.11041545867919922
1751013721494938400,5.1109384765625,0.029321670532226562,0.015478558838367462,0.12696459889411926
1751013721504882700,5.120882568359375,0.01275893859565258,0.0395900197327137,0.16046637296676636
1751013721514825500,5.130825439453125,-0.00577852688729763,0.06848158687353134,0.19563661515712738
1751013721524769500,5.14076953125,-0.01254881452769041,0.09656435251235962,0.22965875267982483
1751013721534712600,5.150712646484375,-0.004525509662926197,0.11246263235807419,0.24280491471290588
1751013721544656600,5.16065673828125,0.02791259065270424,0.07768440991640091,0.25156885385513306
1751013721554599400,5.170599365234375,0.10141903162002563,0.046294793486595154,0.3013657033443451
1751013721564542500,5.18054248046875,0.11127538979053497,0.09008994698524475,0.2940944731235504
1751013721574486500,5.190486572265625,0.09834201633930206,0.06451188027858734,0.2441388964653015
1751013721584429600,5.2004296875,0.09353288263082504,0.028430575504899025,0.17990584671497345
1751013721594373400,5.210373291015625,0.09358534216880798,0.034919898957014084,0.09726662933826447
1751013721604316400,5.22031640625,0.10680181533098221,0.03514493629336357,0.01854012906551361
1751013721614260500,5.230260498046875,0.1172584518790245,0.032170187681913376,-0.05609256401658058
1751013721624203300,5.240203369140625,0.10485237836837769,0.010884871706366539,-0.12280847877264023
1751013721634146300,5.250146240234375,0.08856528252363205,-0.004709533881396055,-0.16056278347969055
1751013721644090000,5.260090087890625,0.06962595134973526,-0.010348777286708355,-0.16361582279205322
1751013721654033200,5.270033203125,0.06519071757793427,-0.016560334712266922,-0.1381687968969345
1751013721663977500,5.2799775390625,0.06256164610385895,-0.021893048658967018,-0.09024520963430405
1751013721673920500,5.28992041015625,0.06052166596055031,-0.023017434403300285,-0.039556462317705154
1751013721683863000,5.299863037109375,0.059962667524814606,-0.017040768638253212,0.015252988785505295
1751013721693807400,5.309807373046875,0.06494997441768646,0.000031957933970261365,0.058927763253450394
1751013721703750400,5.31975048828125,0.07238978147506714,0.02858024649322033,0.08525630831718445
1751013721713694200,5.329694091796875,0.07204649597406387,0.05602358654141426,0.0954519510269165
1751013721723637200,5.33963720703125,0.06327244639396667,0.07253465056419373,0.08127461373806
1751013721733581300,5.349581298828125,0.051291417330503464,0.0775911957025528,0.04447399079799652
1751013721743524400,5.3595244140625,0.036372654139995575,0.06017119437456131,0.00004740426811622456
1751013721753467400,5.36946728515625,0.01798778958618641,0.02594451606273651,-0.04009468853473663
1751013721763411200,5.3794111328125,-0.006457632873207331,0.000598145998083055,-0.07498636096715927
1751013721773354200,5.389354248046875,-0.027962924912571907,-0.017848238348960876,-0.08720441162586212
1751013721783298300,5.39929833984375,-0.043467581272125244,-0.026624420657753944,-0.07477676868438721
1751013721793241300,5.409241455078125,-0.05073747783899307,-0.03190813213586807,-0.05642439424991608
1751013721803185200,5.41918505859375,-0.049247175455093384,-0.03292572498321533,-0.03505998104810715
1751013721813128200,5.429128173828125,-0.04563353210687637,-0.024025442078709602,-0.01236292626708746
1751013721823071200,5.4390712890625,-0.03628450259566307,-0.018607240170240402,0.003466104157269001
1751013721833015300,5.449015380859375,-0.023936491459608078,-0.0007371630053967237,0.01038419734686613
1751013721842958300,5.458958251953125,-0.011567173525691032,0.01697179302573204,0.010543987154960632
1751013721852902100,5.468902099609375,-0.0054549528285861015,0.02618366666138172,0.004692489746958017
1751013721862845200,5.47884521484375,-0.001208009896799922,0.03599661588668823,-0.0075660403817892075
1751013721872789500,5.48878955078125,-0.007111172657459974,0.04261616989970207,-0.028066255152225494
1751013721882732300,5.498732177734375,-0.01245347410440445,0.04073251411318779,-0.05041976273059845
1751013721892675300,5.50867529296875,-0.020179037004709244,0.03656839579343796,-0.0683998316526413
1751013721902619400,5.518619384765625,-0.022473882883787155,0.03845338150858879,-0.07236740738153458
1751013721912562400,5.5285625,-0.022408103570342064,0.031196800991892815,-0.0741509273648262
1751013721922506200,5.53850634765625,-0.022832078859210014,0.02671336941421032,-0.06887999922037125
1751013721932449300,5.54844921875,-0.019593141973018646,0.01931271143257618,-0.06773537397384644
1751013721942393300,5.558393310546875,-0.01200073678046465,0.007791876792907715,-0.06255844980478287
1751013721952336400,5.56833642578125,-0.005721268709748983,0.0038519962690770626,-0.05887024104595184
1751013721962279400,5.578279541015625,0.0010487528052181005,0.002302835462614894,-0.04740799590945244
1751013721972223200,5.58822314453125,0.004169445019215345,0.0032985913567245007,-0.033954769372940063
1751013721982166300,5.598166259765625,-0.0014615427935495973,0.0060030315071344376,-0.02497086301445961
1751013721992110300,5.6081103515625,-0.011198326013982296,0.004540157038718462,-0.02321930229663849
1751013722002053400,5.618053466796875,-0.019877035170793533,0.004294081125408411,-0.034203775227069855
1751013722011997200,5.6279970703125,-0.026456907391548157,0.005307679995894432,-0.04832012951374054
1751013722021940200,5.637940185546875,-0.022772956639528275,0.010938401333987713,-0.059838831424713135
1751013722031883300,5.64788330078125,-0.010060090571641922,0.018638132140040398,-0.06217815354466438
1751013722041827300,5.657827392578125,0.004348942078649998,0.021870944648981094,-0.051722582429647446
1751013722051770000,5.66777001953125,0.015607722103595734,0.020846160128712654,-0.03376355767250061
1751013722061714200,5.677714111328125,0.014765630476176739,0.021048560738563538,-0.012834572233259678
1751013722071657200,5.6876572265625,0.007574562914669514,0.025258218869566917,-0.0033606430515646935
1751013722081601300,5.697601318359375,0.0021853898651897907,0.021196098998188972,-0.004815527703613043
1751013722091544300,5.70754443359375,-0.00330205331556499,0.016167784109711647,-0.009349026717245579
1751013722101487400,5.7174873046875,-0.005261074751615524,0.012571718543767929,-0.018701516091823578
1751013722111431400,5.727431396484375,-0.009014800190925598,0.0014748586108908057,-0.02395327016711235
1751013722121374500,5.73737451171875,-0.01570386253297329,-0.01375256385654211,-0.01750282756984234
1751013722131318300,5.747318359375,-0.02015187405049801,-0.02520868368446827,-0.01420343667268753
1751013722141261300,5.75726123046875,-0.01618749275803566,-0.032168056815862656,-0.005375057924538851
1751013722151205400,5.767205322265625,-0.01011095754802227,-0.034084733575582504,0.014867895282804966
1751013722161148400,5.7771484375,-0.00990376342087984,-0.03671460598707199,0.023803865537047386
1751013722171091200,5.78709130859375,-0.011168498545885086,-0.03677346184849739,0.02377297356724739
1751013722181035300,5.79703515625,-0.010749583132565022,-0.022424349561333656,0.023239009082317352
1751013722190978300,5.806978271484375,-0.005604356061667204,0.0018096179701387882,0.018331069499254227
1751013722200922400,5.81692236328125,0.0014199974248185754,0.03255661204457283,0.01134187076240778
1751013722210865200,5.826865234375,0.0012130698887631297,0.07275143265724182,-0.0070461914874613285
1751013722220809200,5.836809326171875,0.00726430444046855,0.11600543558597565,-0.02274579182267189
1751013722230752300,5.846752197265625,0.010943194851279259,0.14136351644992828,-0.05511491745710373
1751013722240695300,5.8566953125,0.011025220155715942,0.14838413894176483,-0.09290490299463272
1751013722250639000,5.86663916015625,0.0006897587445564568,0.13584358990192413,-0.1287824809551239
1751013722260582100,5.87658203125,-0.010494984686374664,0.12718698382377625,-0.17671911418437958
1751013722270526200,5.886526123046875,-0.018517758697271347,0.10644707828760147,-0.23006115853786469
1751013722280469200,5.89646923828125,-0.021697038784623146,0.07148057222366333,-0.2702655792236328
1751013722290413300,5.906413330078125,-0.01919127069413662,0.03249562531709671,-0.2617653012275696
1751013722300356400,5.9163564453125,-0.00944916158914566,0.013855361379683018,-0.21448034048080444
1751013722310299400,5.92629931640625,-0.0014253237750381231,0.017241837456822395,-0.1324579119682312
1751013722320243500,5.936243408203125,-0.001047687605023384,0.017663415521383286,-0.03720356151461601
1751013722330186200,5.946186279296875,-0.004833104554563761,0.018064487725496292,0.024478977546095848
1751013722340130300,5.95613037109375,-0.0043928842060267925,0.013522466644644737,0.06120583415031433
1751013722350073300,5.9660732421875,0.0030538467690348625,-0.00532578956335783,0.07342787832021713
1751013722360017400,5.976017333984375,0.01215972751379013,-0.016829047352075577,0.07140174508094788
1751013722369960200,5.985960205078125,0.021323664113879204,-0.018372615799307823,0.060492370277643204
1751013722379903200,5.9959033203125,0.02857119031250477,-0.018967565149068832,0.05034838989377022
1751013722389847300,6.005847412109375,0.0386190302670002,-0.02502812072634697,0.041431061923503876
1751013722399790300,6.015790283203125,0.045571211725473404,-0.027290742844343185,0.040049679577350616
1751013722409734100,6.025734130859375,0.049364086240530014,-0.029140308499336243,0.042158905416727066
1751013722419677200,6.03567724609375,0.05540759861469269,-0.03453134372830391,0.054853927344083786
1751013722429620200,6.0456201171875,0.05465232580900192,-0.03677985072135925,0.06702403724193573
1751013722439564300,6.055564208984375,0.04101907089352608,-0.038666702806949615,0.06514864414930344
1751013722449507300,6.06550732421875,0.025715749710798264,-0.033908963203430176,0.0471201092004776
1751013722459451100,6.075451171875,0.01876836083829403,-0.012082495726644993,0.026863837614655495
1751013722469394200,6.085394287109375,0.018442124128341675,0.022840334102511406,0.00734233483672142
1751013722479338200,6.095338134765625,0.02099822647869587,0.058639612048864365,-0.013605823740363121
1751013722489281300,6.10528125,0.02490960992872715,0.10535012185573578,-0.032999761402606964
1751013722499225300,6.115225341796875,0.027778901159763336,0.1271401047706604,-0.05091724172234535
1751013722509168400,6.12516845703125,0.018682342022657394,0.11064288765192032,-0.06595505028963089
1751013722519111400,6.135111328125,-0.00042530681821517646,0.06919664889574051,-0.0699833482503891
1751013722529055200,6.14505517578125,-0.026491528376936913,0.030602384358644485,-0.052624594420194626
1751013722538998300,6.154998291015625,-0.04387158527970314,0.0038224351592361927,-0.0339457169175148
1751013722548942300,6.1649423828125,-0.05217212438583374,-0.017491908743977547,-0.011331217363476753
1751013722558885400,6.174885498046875,-0.04785194620490074,-0.028183167800307274,0.008865929208695889
1751013722568828400,6.184828369140625,-0.03474173694849014,-0.04050081968307495,0.021140705794095993
1751013722578772200,6.194772216796875,-0.02328747883439064,-0.041067276149988174,0.02515036053955555
1751013722588715300,6.20471533203125,-0.01531983446329832,-0.03452016040682793,0.026562102138996124
1751013722598659300,6.214659423828125,-0.002372077666223049,-0.02335299365222454,0.024341825395822525
1751013722608602400,6.224602294921875,0.007388940546661615,-0.00749067310243845,0.024568192660808563
1751013722618542600,6.23454248046875,0.024761272594332695,0.013019927777349949,0.032822396606206894
1751013722628485600,6.244485595703125,0.034393392503261566,0.02094043605029583,0.04199938103556633
1751013722638428700,6.2544287109375,0.041361287236213684,0.009131446480751038,0.04165343567728996
1751013722648372700,6.264372802734375,0.034028008580207825,-0.02455008402466774,0.039312783628702164
1751013722658315800,6.274315673828125,0.0227428637444973,-0.07339885085821152,0.04535762593150139
1751013722668259600,6.284259521484375,0.005922603886574507,-0.11077285557985306,0.06485862284898758
1751013722678202600,6.29420263671875,-0.023255255073308945,-0.1323990523815155,0.08660866320133209
1751013722688146700,6.304146728515625,-0.05052575841546059,-0.13644039630889893,0.08832799643278122
1751013722698089500,6.31408935546875,-0.06992875039577484,-0.12355230003595352,0.07138443738222122
1751013722708032500,6.324032470703125,-0.06901635229587555,-0.08801721036434174,0.041317347437143326
1751013722717976600,6.3339765625,-0.0506432019174099,-0.04769748076796532,0.0032490564044564962
1751013722727919600,6.343919677734375,-0.025530127808451653,-0.007047256920486689,-0.03074859082698822
1751013722737863400,6.353863525390625,0.003291400847956538,0.02015799842774868,-0.055259525775909424
1751013722747806500,6.363806396484375,0.02972513809800148,0.04075382277369499,-0.06340986490249634
1751013722757750500,6.37375048828125,0.042275283485651016,0.050514839589595795,-0.05751895159482956
1751013722767693600,6.383693603515625,0.043771449476480484,0.05221660062670708,-0.045106757432222366
1751013722777636600,6.39363671875,0.04170270636677742,0.054192133247852325,-0.02479456178843975
1751013722787580700,6.40358056640625,0.03440884128212929,0.048525724560022354,-0.0040794298984110355
1751013722797523500,6.4135234375,0.011171960271894932,0.04483431577682495,0.006700513418763876
1751013722807467800,6.4234677734375,-0.012885438278317451,0.026149045675992966,0.003352653468027711
1751013722817410800,6.433410888671875,-0.02749527432024479,0.012981845065951347,-0.005970274563878775
1751013722827354600,6.443354736328125,-0.03340935707092285,0.005087170284241438,-0.022544190287590027
1751013722837297700,6.453297607421875,-0.02905482053756714,0.007904794998466969,-0.03370257094502449
1751013722847240700,6.46324072265625,-0.02123551443219185,0.02172846533358097,-0.04567693918943405
1751013722857184800,6.473184814453125,-0.01631505787372589,0.04374827817082405,-0.03930586203932762
1751013722867127600,6.48312744140625,-0.008826248347759247,0.06582961231470108,-0.02827637828886509
1751013722877071600,6.493071533203125,0.0008921589469537139,0.08734183013439178,-0.014513429254293442
1751013722887014700,6.5030146484375,0.009751963429152966,0.09725730866193771,0.0041249701753258705
1751013722896958500,6.51295849609375,0.02016226015985012,0.09364046901464462,0.01679815538227558
1751013722906901500,6.522901611328125,0.025888854637742043,0.07946047186851501,0.0252853836864233
1751013722916844500,6.532844482421875,0.016265256330370903,0.06346659362316132,0.02869316376745701
1751013722926788600,6.54278857421875,0.0025366609916090965,0.050760913640260696,0.029447637498378754
1751013722936731600,6.552731689453125,-0.025232385843992233,0.03401602432131767,0.023390278220176697
1751013722946675500,6.562675537109375,-0.0445709303021431,0.03303944319486618,0.024648621678352356
1751013722956618500,6.572618408203125,-0.06367991119623184,0.04217594861984253,0.02425260841846466
1751013722966562600,6.5825625,-0.06691378355026245,0.05433567613363266,0.017732391133904457
1751013722976505600,6.592505615234375,-0.06004975363612175,0.05736928433179855,0.006899451371282339
1751013722986448600,6.60244873046875,-0.0498032420873642,0.06137680634856224,0.0007571366732008755
1751013722996392700,6.612392822265625,-0.04011759161949158,0.06079091131687164,0.0021635519806295633
1751013723006335500,6.62233544921875,-0.033426664769649506,0.05975867062807083,0.007790278643369675
1751013723016279800,6.63227978515625,-0.02955629490315914,0.06209612637758255,0.015985358506441116
1751013723026222600,6.64222265625,-0.026066221296787262,0.05860099568963051,0.031031951308250427
1751013723036166700,6.652166748046875,-0.024569790810346603,0.05951738730072975,0.043163448572158813
1751013723046109700,6.662109619140625,-0.022493857890367508,0.058935221284627914,0.05076730623841286
1751013723056052700,6.672052734375,-0.01984907127916813,0.05573277175426483,0.04921548441052437
1751013723065996500,6.68199658203125,-0.022764168679714203,0.04427558556199074,0.0405556820333004
1751013723075939600,6.691939697265625,-0.03653910383582115,0.028206337243318558,0.008918659761548042
1751013723085883600,6.701883544921875,-0.05319824069738388,0.0028128307312726974,-0.03670049086213112
1751013723095826700,6.71182666015625,-0.0604843832552433,-0.016597619280219078,-0.07818295061588287
1751013723105770500,6.7217705078125,-0.060684919357299805,-0.021121796220541,-0.09936919808387756
1751013723115713500,6.731713623046875,-0.055394284427165985,-0.02424275502562523,-0.09911246597766876
1751013723125656600,6.741656494140625,-0.0586681067943573,-0.018313227221369743,-0.07962425798177719
1751013723135600600,6.7516005859375,-0.06043111905455589,-0.01606765016913414,-0.05561133101582527
1751013723145543700,6.761543701171875,-0.05590507760643959,-0.011552260257303715,-0.03508688136935234
1751013723155487500,6.771487548828125,-0.034807514399290085,-0.01194108184427023,-0.023435551673173904
1751013723165430500,6.781430419921875,-0.009139169938862324,-0.012267851270735264,-0.01332565862685442
1751013723175374600,6.79137451171875,0.013244166038930416,-0.022788137197494507,-0.0070222229696810246
1751013723185317600,6.801317626953125,0.022768428549170494,-0.040280845016241074,0.00418382603675127
1751013723195260400,6.811260498046875,0.018870094791054726,-0.04255731403827667,0.02943325601518154
1751013723205204700,6.821204833984375,0.011808988638222218,-0.03630447760224342,0.059970125555992126
1751013723215147800,6.831147705078125,0.002588059986010194,-0.02773123048245907,0.07341057062149048
1751013723225091600,6.841091552734375,0.0051984903402626514,-0.01715022511780262,0.08594659715890884
1751013723235034600,6.85103466796875,0.011788482777774334,-0.0007291734800674021,0.07579036802053452
1751013723244977700,6.860977783203125,0.01703064888715744,0.015025022439658642,0.05597804859280586
1751013723254921700,6.870921630859375,0.01745835319161415,0.022363895550370216,0.025363413617014885
1751013723264864800,6.88086474609375,0.013508085161447525,0.021770276129245758,-0.009807356633245945
1751013723274808600,6.89080859375,0.00746084563434124,0.009528790600597858,-0.036741502583026886
1751013723284751600,6.900751708984375,0.004260791465640068,0.0005555353709496558,-0.04577228054404259
1751013723294695700,6.91069580078125,-0.0009054747642949224,-0.009093097411096096,-0.04057672247290611
1751013723304638700,6.920638671875,-0.010890197940170765,-0.013549097813665867,-0.013708621263504028
1751013723314581800,6.930581787109375,-0.01986371912062168,-0.022594790905714035,0.01489479374140501
1751013723324525600,6.940525634765625,-0.03202797472476959,-0.027294738218188286,0.03789278864860535
1751013723334468600,6.950468505859375,-0.044134970754384995,-0.028985045850276947,0.04934784024953842
1751013723344412700,6.96041259765625,-0.05913469195365906,-0.03099360130727291,0.044923532754182816
1751013723354355500,6.97035546875,-0.06455768644809723,-0.026069683954119682,0.03530632704496384
1751013723364299500,6.980299560546875,-0.0661768913269043,-0.004789162427186966,0.025140240788459778
1751013723374242600,6.99024267578125,-0.06523892283439636,0.01727858930826187,0.00803315918892622
1751013723384185600,7.000185546875,-0.06332491338253021,0.03473720699548721,-0.009666209109127522
1751013723394129400,7.01012939453125,-0.05897889658808708,0.05444486439228058,-0.018246648833155632
1751013723404072400,7.020072509765625,-0.0486663393676281,0.07234849780797958,-0.030217556282877922
1751013723414016800,7.030016845703125,-0.03924114629626274,0.07749692350625992,-0.036066390573978424
1751013723423959800,7.039959716796875,-0.028851887211203575,0.08268395811319351,-0.03585653379559517
1751013723433903600,7.049903564453125,-0.02966814674437046,0.0809507742524147,-0.03641606494784355
1751013723443846700,7.0598466796875,-0.030841268599033356,0.06160823628306389,-0.0356791689991951
1751013723453789700,7.069789794921875,-0.03051290102303028,0.040413204580545425,-0.03003353253006935
1751013723463733800,7.079733642578125,-0.02694639563560486,0.018634937703609467,-0.021099425852298737
1751013723473676800,7.0896767578125,-0.027589283883571625,-0.005510879214853048,-0.007160973735153675
1751013723483620600,7.09962060546875,-0.033495642244815826,-0.029086779803037643,0.009465141221880913
1751013723493563600,7.109563720703125,-0.044607147574424744,-0.04693395271897316,0.027471572160720825
1751013723503507700,7.1195078125,-0.05796769633889198,-0.042575690895318985,0.050210174173116684
1751013723513450500,7.129450439453125,-0.06622083485126495,-0.02563931606709957,0.06760407984256744
1751013723523394600,7.13939453125,-0.0626860186457634,-0.0034975295420736074,0.06692443788051605
1751013723533337600,7.149337646484375,-0.054494667798280716,0.009820406325161457,0.05047888681292534
1751013723543280600,7.15928076171875,-0.03599555045366287,0.025423334911465645,0.016084427013993263
1751013723553224400,7.169224365234375,-0.015862585976719856,0.04586948826909065,-0.012781042605638504
1751013723563167500,7.17916748046875,0.003763579297810793,0.055448077619075775,-0.045087847858667374
1751013723573111600,7.189111572265625,0.014888668432831764,0.0524701327085495,-0.06496009230613708
1751013723583054600,7.1990546875,0.013401293195784092,0.03862994909286499,-0.0709972083568573
1751013723592997600,7.20899755859375,-0.0008194546680897474,0.021885057911276817,-0.06367937475442886
1751013723602941400,7.21894140625,-0.017797639593482018,-0.001344363670796156,-0.04541248828172684
1751013723612884500,7.228884521484375,-0.03675508499145508,-0.025669410824775696,-0.025971679016947746
1751013723622829000,7.2388291015625,-0.05433168262243271,-0.0468766950070858,-0.00809015054255724
1751013723632772000,7.248772216796875,-0.06675346195697784,-0.05476604402065277,-0.0005145227187313139
1751013723642716000,7.2587158203125,-0.0661742240190506,-0.04863384738564491,0.003915912006050348
1751013723652659000,7.268658935546875,-0.05295030027627945,-0.02917785942554474,0.0021486382465809584
1751013723662602000,7.27860205078125,-0.030429277569055557,-0.010959174484014511,-0.0020985708106309175
1751013723672545800,7.2885458984375,-0.00794607400894165,0.011363708414137363,-0.012803679332137108
1751013723682488800,7.29848876953125,0.014494254253804684,0.025501364842057228,-0.02172367088496685
1751013723692433000,7.308432861328125,0.023557256907224655,0.04074210301041603,-0.02706810273230076
1751013723702376000,7.3183759765625,0.026312563568353653,0.04641303792595863,-0.03181305527687073
1751013723712320000,7.328320068359375,0.017957162111997604,0.05213537439703941,-0.02773256227374077
1751013723722263000,7.338262939453125,0.005462143570184708,0.04568013548851013,-0.0193736981600523
1751013723732207000,7.34820703125,-0.010357299819588661,0.030177876353263855,-0.01955053210258484
1751013723742150100,7.358150146484375,-0.020085826516151428,0.0041404166258871555,-0.0185859352350235
1751013723752093200,7.36809326171875,-0.020474648103117943,-0.013042299076914787,-0.02002537250518799
1751013723762037000,7.378037109375,-0.023753799498081207,-0.011177552863955498,-0.019414709880948067
1751013723771980000,7.38797998046875,-0.020738035440444946,-0.011095261201262474,-0.016409866511821747
1751013723781924000,7.397924072265625,-0.012546418234705925,-0.000261788722127676,-0.014785603620111942
1751013723791867100,7.4078671875,-0.016564330086112022,0.015855396166443825,-0.015231417492032051
1751013723801810000,7.417809814453125,-0.012557603418827057,0.030175745487213135,-0.02220091037452221
1751013723811754000,7.42775390625,-0.0028487835079431534,0.037890657782554626,-0.023179886862635612
1751013723821697000,7.437697021484375,0.013262009248137474,0.04152746871113777,-0.021454425528645515
1751013723831640800,7.447640869140625,0.024322915822267532,0.030484938994050026,-0.01787753403186798
1751013723841583900,7.457583984375,0.027394872158765793,0.01902242749929428,-0.012687033042311668
1751013723851528000,7.46752783203125,0.03014831431210041,0.014026336371898651,-0.005544967483729124
1751013723861471000,7.477470947265625,0.029140574857592583,0.015208513475954533,0.00013635384675581008
1751013723871414000,7.4874140625,0.03339284285902977,0.019052786752581596,0.00361737166531384
1751013723881357800,7.49735791015625,0.029954437166452408,0.020677048712968826,0.008291219361126423
1751013723891300900,7.50730078125,0.02219238691031933,0.019783824682235718,0.004537227563560009
1751013723901245000,7.517244873046875,0.019358517602086067,0.004994226153939962,-0.005721002817153931
1751013723911188000,7.52718798828125,0.013762683607637882,-0.0019651465117931366,-0.011772236786782742
1751013723921132000,7.537132080078125,0.012493421323597431,-0.003270095447078347,-0.022011293098330498
1751013723931075000,7.547074951171875,0.004751878324896097,-0.003141997382044792,-0.025987658649683
1751013723941018000,7.55701806640625,0.008616924285888672,-0.013658820651471615,-0.03574122115969658
1751013723950962200,7.566962158203125,0.00196434766985476,-0.022903451696038246,-0.04848897084593773
1751013723960905000,7.576905029296875,0.0005483448621816933,-0.014976819045841694,-0.052086371928453445
1751013723970849000,7.58684912109375,0.008198807947337627,0.004474110435694456,-0.051487959921360016
1751013723980792000,7.5967919921875,0.015199192799627781,0.024056334048509598,-0.045998383313417435
1751013723990736100,7.606736083984375,0.02310345508158207,0.025256088003516197,-0.04830654710531235
1751013724000679000,7.616678955078125,0.0264851376414299,0.016220781952142715,-0.04069443419575691
1751013724010622000,7.6266220703125,0.025320004671812057,0.0005382248782552779,-0.02907266467809677
1751013724020566000,7.63656591796875,0.02467392012476921,-0.026765301823616028,-0.021953502669930458
1751013724030509000,7.646509033203125,0.015692677348852158,-0.05690775811672211,-0.013028183951973915
1751013724040452900,7.656452880859375,0.013714213855564594,-0.07445292919874191,-0.0001536643976578489
1751013724050396000,7.66639599609375,0.014638330787420273,-0.07499940693378448,0.009664079174399376
1751013724060340000,7.676340087890625,0.01636352762579918,-0.06721924990415573,0.014473214745521545
1751013724070283000,7.686282958984375,0.02274446003139019,-0.05898555740714073,0.012230567634105682
1751013724080226000,7.69622607421875,0.02424168959259987,-0.044669199734926224,0.0035473306197673082
1751013724090169900,7.706169921875,0.03850638121366501,-0.020064255222678185,-0.005575860384851694
1751013724100113000,7.71611279296875,0.053097840398550034,0.004252269398421049,-0.004838963504880667
1751013724110057000,7.726056884765625,0.07207925617694855,0.02039768360555172,-0.004177168011665344
1751013724120000000,7.736,0.07860932499170303,0.02598739229142666,-0.0019680759869515896
1751013724129944000,7.745944091796875,0.07976513355970383,0.03297339752316475,0.007406517397612333
1751013724139887000,7.75588720703125,0.07452590018510818,0.023265641182661057,0.019233349710702896
1751013724149830100,7.765830078125,0.06452280282974243,0.010553575120866299,0.03122369945049286
1751013724159774000,7.77577392578125,0.052926331758499146,-0.0038456046022474766,0.03838280960917473
1751013724169717000,7.785717041015625,0.03941531479358673,-0.0140170156955719,0.03669330105185509
1751013724179661000,7.7956611328125,0.037402499467134476,-0.01110218558460474,0.026936808601021767
1751013724189604000,7.80560400390625,0.04833131283521652,0.004554538056254387,0.018269818276166916
1751013724199548000,7.8155478515625,0.05943696200847626,0.029528331011533737,0.006874950136989355
1751013724209491000,7.825490966796875,0.07080146670341492,0.057317618280649185,-0.00697934627532959
1751013724219435000,7.83543505859375,0.07703539729118347,0.06501761823892593,-0.02269412763416767
1751013724229378000,7.8453779296875,0.06828691065311432,0.06663282215595245,-0.04163053259253502
1751013724239321000,7.855321044921875,0.04581595957279205,0.05225202068686485,-0.0719279870390892
1751013724249265000,7.865264892578125,0.017905764281749725,0.031014375388622284,-0.09598005563020706
1751013724259208000,7.8752080078125,-0.002897519152611494,0.013007677160203457,-0.10320867598056793
1751013724269152000,7.885152099609375,-0.011238805949687958,-0.000999484327621758,-0.10524147003889084
1751013724279095000,7.895094970703125,-0.0025212145410478115,-0.013005014508962631,-0.10538900643587112
1751013724289037800,7.905037841796875,0.009199091233313084,-0.019645873457193375,-0.09872764348983765
1751013724298982000,7.91498193359375,0.02496473863720894,-0.02725132741034031,-0.08364642411470413
1751013724308925000,7.924925048828125,0.02628752961754799,-0.0382765494287014,-0.07027922570705414
1751013724318869000,7.934868896484375,0.019829630851745605,-0.03747333958745003,-0.048838645219802856
1751013724328811800,7.944811767578125,0.009583651088178158,-0.03213876113295555,-0.028807945549488068
1751013724338756000,7.954756103515625,0.007635016459971666,-0.02695944532752037,-0.007200388703495264
1751013724348699100,7.96469921875,0.007929561659693718,-0.013903831131756306,0.007644870318472385
1751013724358643000,7.974642822265625,0.008492288179695606,-0.00663340138271451,0.0060120862908661366
1751013724368586000,7.9845859375,0.014563496224582195,0.003367567202076316,-0.003329217666760087
1751013724378529000,7.994529052734375,0.023211579769849777,0.02165629342198372,-0.014752048067748547
1751013724388473000,8.00447314453125,0.022905316203832626,0.0325680635869503,-0.035290081053972244
1751013724398416100,8.014416015625,0.025888854637742043,0.03403972461819649,-0.05510852485895157
1751013724408360000,8.02435986328125,0.025677666068077087,0.02761085517704487,-0.06504478305578232
1751013724418303000,8.034302978515624,0.023364711552858353,0.013436446897685528,-0.06700246781110764
1751013724428246000,8.04424609375,0.02082591876387596,0.0024644893128424883,-0.05816316977143288
1751013724438190000,8.054190185546876,0.01769244484603405,-0.007168430835008621,-0.04025980457663536
1751013724448132900,8.0641328125,0.01888500712811947,-0.008093879558146,-0.02166348323225975
1751013724458077000,8.074076904296875,0.015975505113601685,-0.014105166308581829,-0.0009872338268905878
1751013724468020000,8.08402001953125,0.010425209999084473,-0.022241922095417976,0.013042565435171127
1751013724477964000,8.093964111328125,0.005644037388265133,-0.030413299798965454,0.01895318552851677
1751013724487906800,8.10390673828125,0.009917345829308033,-0.031382691115140915,0.018969962373375893
1751013724497851000,8.113850830078125,0.017541708424687386,-0.013716611079871655,0.01452701073139906
1751013724507794000,8.1237939453125,0.02039448730647564,0.0040826257318258286,0.0004500742070376873
1751013724517737000,8.133737060546874,0.019028551876544952,0.012918195687234402,-0.03163915127515793
1751013724527680800,8.1436806640625,0.021559087559580803,0.01034611463546753,-0.06233661249279976
1751013724537623800,8.153623779296876,0.027574902400374413,0.016711335629224777,-0.07605322450399399
1751013724547568000,8.163568115234375,0.02149304188787937,0.019402991980314255,-0.08116862177848816
1751013724557511200,8.17351123046875,0.019266372546553612,0.014297446236014366,-0.07447769492864609
1751013724567455000,8.183455078125,0.01353498362004757,0.005459479987621307,-0.05542970448732376
1751013724577398000,8.19339794921875,0.007803328335285187,-0.006144179031252861,-0.033551834523677826
1751013724587341000,8.203341064453125,0.004540157038718462,-0.021982530131936073,-0.02299533039331436
1751013724597285000,8.21328515625,0.004043211229145527,-0.03183303028345108,-0.0171467624604702
1751013724607228200,8.223228271484375,0.0026791400741785765,-0.03050704300403595,-0.0169166661798954
1751013724617171500,8.23317138671875,0.0025827335193753242,-0.02636023424565792,-0.020447485148906708
1751013724627114500,8.243114501953125,0.003626160090789199,-0.011049455031752586,-0.03404664993286133
1751013724637058600,8.25305859375,0.011003116145730019,0.011808722279965878,-0.04862159863114357
1751013724647001600,8.263001708984374,0.017014669254422188,0.02840421162545681,-0.06067453324794769
1751013724656944600,8.272944580078125,0.01996944658458233,0.038370292633771896,-0.0673430860042572
1751013724666888400,8.282888427734376,0.01233123429119587,0.048224788159132004,-0.0697668269276619
1751013724676831500,8.29283154296875,0.007360178045928478,0.05254203826189041,-0.0709623247385025
1751013724686775600,8.302775634765625,-0.002410160843282938,0.04715845733880997,-0.06822938472032547
1751013724696718300,8.31271826171875,-0.009784187190234661,0.03630341216921806,-0.06526608765125275
1751013724706662400,8.322662353515625,-0.023577764630317688,0.03458833694458008,-0.059835635125637054
1751013724716605400,8.33260546875,-0.034862909466028214,0.04024995118379593,-0.05825185403227806
1751013724726548500,8.342548583984374,-0.0344993881881237,0.05770031362771988,-0.059125106781721115
1751013724736492300,8.3524921875,-0.0347401387989521,0.0676829069852829,-0.06235658377408981
1751013724746435300,8.362435302734376,-0.03128575161099434,0.08130870759487152,-0.06372039020061493
1751013724756379600,8.372379638671875,-0.0268289502710104,0.08068632334470749,-0.04854916036128998
1751013724766322400,8.382322509765626,-0.02056972309947014,0.0733375996351242,-0.02298867329955101
1751013724776266500,8.3922666015625,-0.01949087716639042,0.054001715034246445,0.004572913981974125
1751013724786209500,8.40220947265625,-0.019465576857328415,0.04911135509610176,0.034752387553453445
1751013724796152600,8.412152587890626,-0.02058969810605049,0.04601196572184563,0.04847698658704758
1751013724806096600,8.4220966796875,-0.02124137245118618,0.04385720193386078,0.04486920312047005
1751013724816039700,8.432039794921875,-0.013760020956397057,0.04927274212241173,0.0233500637114048
1751013724825983500,8.4419833984375,-0.00640783179551363,0.06018051505088806,-0.004346278961747885
1751013724835926500,8.451926513671875,0.0065135592594742775,0.06712151318788528,-0.035044535994529724
1751013724845870600,8.46187060546875,0.011886753141880035,0.0653475821018219,-0.057138651609420776
1751013724855813400,8.4718134765625,0.01992843486368656,0.05090818926692009,-0.06533879041671753
1751013724865756400,8.48175634765625,0.016390424221754074,0.02659379318356514,-0.05495539307594299
1751013724875700500,8.491700439453124,0.009818541817367077,-0.00023222764139063656,-0.036440566182136536
1751013724885643500,8.5016435546875,0.0016674051294103265,-0.025485917925834656,-0.00923424493521452
1751013724895587300,8.51158740234375,0.0006229133578017354,-0.03729730471968651,0.01571664586663246
1751013724905530400,8.5215302734375,0.004487426485866308,-0.026874225586652756,0.03321201354265213
1751013724915474400,8.531474365234375,0.01926477439701557,-0.022671757265925407,0.033474069088697433
1751013724925417500,8.54141748046875,0.033004555851221085,-0.014282266609370708,0.02262222208082676
1751013724935360500,8.551360595703125,0.04199698567390442,-0.010500578209757805,-0.0028421254828572273
1751013724945304300,8.56130419921875,0.04232189059257507,-0.013492905534803867,-0.027824707329273224
1751013724955247400,8.571247314453124,0.034867968410253525,-0.02359773777425289,-0.055209457874298096
1751013724965191700,8.581191650390625,0.027601001784205437,-0.035533227026462555,-0.07207445800304413
1751013724975134500,8.591134521484374,0.013084642589092255,-0.040517065674066544,-0.08395508676767349
1751013724985078500,8.60107861328125,-0.0013371731620281935,-0.03377633914351463,-0.0828634575009346
1751013724995021600,8.611021484375,-0.0049284459091722965,-0.021801436319947243,-0.07506545633077621
1751013725004964600,8.620964599609374,0.00339153571985662,-0.003817907767370343,-0.06753243505954742
1751013725014908700,8.63090869140625,0.00660463934764266,0.014509433880448341,-0.06142234802246094
1751013725024851500,8.6408515625,0.012180766090750694,0.025479793548583984,-0.07118922472000122
1751013725034795500,8.65079541015625,0.013513677753508091,0.021869080141186714,-0.09881313145160675
1751013725044738600,8.660738525390625,0.009516806341707706,0.017491109669208527,-0.13716185092926025
1751013725054682400,8.670682373046875,0.003228283952921629,0.004424575716257095,-0.17204660177230835
1751013725064625400,8.68062548828125,-0.0009512811084277928,-0.005307679995894432,-0.18922798335552216
1751013725074568400,8.690568359375,-0.006454969756305218,-0.024044616147875786,-0.1926024705171585
1751013725084512500,8.700512451171875,-0.019235480576753616,-0.03813007473945618,-0.18081745505332947
1751013725094455600,8.71045556640625,-0.0339190848171711,-0.05023973435163498,-0.16123390197753906
1751013725104399400,8.7203994140625,-0.04843997210264206,-0.06615931540727615,-0.14939135313034058
1751013725114342400,8.73034228515625,-0.06275659054517746,-0.07252852618694305,-0.15207235515117645
1751013725124286500,8.740286376953126,-0.0745709091424942,-0.08459078520536423,-0.16226400434970856
1751013725134229500,8.7502294921875,-0.09798941016197205,-0.10047201067209244,-0.18477784097194672
1751013725144172500,8.760172607421875,-0.10094818472862244,-0.10284755378961563,-0.21619568765163422
1751013725154116400,8.770116455078124,-0.09998118877410889,-0.10367286205291748,-0.24973686039447784
1751013725164059400,8.780059326171875,-0.09450573474168777,-0.08631837368011475,-0.28838518261909485
1751013725174003700,8.790003662109376,-0.08453486114740372,-0.05565420910716057,-0.3406428098678589
1751013725183946500,8.799946533203125,-0.07891159504652023,-0.01743917725980282,-0.43204009532928467
1751013725193890600,8.809890625,-0.06989199668169022,0.011751730926334858,-0.5426715612411499
1751013725203833600,8.81983349609375,-0.06818518042564392,0.041138116270303726,-0.6662454009056091
1751013725213776600,8.829776611328125,-0.06601949781179428,0.05505979061126709,-0.7975922226905823
1751013725223720400,8.839720458984376,-0.06657662987709045,0.06142687425017357,-0.907289981842041
1751013725233663500,8.84966357421875,-0.07040172815322876,0.05650002881884575,-0.9751784801483154
1751013725243607600,8.859607666015625,-0.10262544453144073,0.08901482820510864,-0.9855735898017883
1751013725253550600,8.869550537109374,-0.12406948208808899,0.055685099214315414,-0.924414336681366
1751013725263494400,8.879494384765625,-0.13840554654598236,0.03645974025130272,-0.8028144240379333
1751013725273437400,8.8894375,-0.1340869665145874,0.05692799761891365,-0.6485500335693359
1751013725283380500,8.89938037109375,-0.1020406112074852,0.07361243665218353,-0.5004149079322815
1751013725293324500,8.909324462890625,-0.06356272846460342,0.09327082335948944,-0.40027549862861633
1751013725303267600,8.919267578125,-0.02123285084962845,0.10611951351165771,-0.3471643626689911
1751013725313211400,8.92921142578125,0.012983709573745728,0.11296836286783218,-0.33387491106987
1751013725323154400,8.939154541015625,0.03591112792491913,0.1085568368434906,-0.3495742380619049
1751013725333098500,8.949098388671874,0.04668281599879265,0.10804124921560287,-0.3684147894382477
1751013725343041500,8.95904150390625,0.04541568458080292,0.11075208336114883,-0.3852880299091339
1751013725352984300,8.968984375,0.03811249881982803,0.0988626629114151,-0.4022558331489563
1751013725362928400,8.978928466796875,0.0258672833442688,0.08731892704963684,-0.4215400516986847
1751013725372871400,8.988871337890625,0.011110441759228706,0.08393404632806778,-0.440903902053833
1751013725382815500,8.9988154296875,-0.005841377656906843,0.0713261142373085,-0.45489346981048584
1751013725392758500,9.008758544921875,-0.023784425109624863,0.041077662259340286,-0.4669192433357239
1751013725402702600,9.01870263671875,-0.0429764948785305,0.013248161412775517,-0.4637990891933441
1751013725412645600,9.028645751953125,-0.05254177004098892,-0.008404403924942017,-0.4362148642539978
1751013725422588700,9.038588623046875,-0.05179794877767563,-0.006628341507166624,-0.3864547610282898
1751013725432532500,9.048532470703124,-0.03641127049922943,0.02449948340654373,-0.33312976360321045
1751013725442475500,9.0584755859375,-0.004372111521661282,0.06564559042453766,-0.2960470914840698
1751013725452419600,9.068419677734376,0.031066838651895523,0.10235832631587982,-0.2768006920814514
1751013725462362600,9.078362548828125,0.05650295689702034,0.09049954265356064,-0.2767311930656433
1751013725472306400,9.088306396484375,0.057742390781641006,0.05378679931163788,-0.2865641117095947
1751013725482249500,9.09824951171875,0.039681099355220795,0.022050973027944565,-0.2845286726951599
1751013725492192500,9.108192626953125,0.011724567040801048,0.030907316133379936,-0.29343533515930176
1751013725502136600,9.118136474609376,-0.02022351324558258,0.037697844207286835,-0.3066920340061188
1751013725512079400,9.128079345703124,-0.048838645219802856,0.019601929932832718,-0.3246297538280487
1751013725522023400,9.1380234375,-0.10748571157455444,-0.04416639730334282,-0.34877848625183105
1751013725531966500,9.147966552734376,-0.18309925496578217,-0.10866309702396393,-0.3574220538139343
1751013725541910500,9.15791064453125,-0.2476060688495636,-0.16863802075386047,-0.34421810507774353
1751013725551853300,9.167853271484375,-0.29066431522369385,-0.19006048142910004,-0.30589306354522705
1751013725561796400,9.17779638671875,-0.2875231206417084,-0.17655399441719055,-0.24831819534301758
1751013725571740400,9.187740478515625,-0.2547990083694458,-0.13720285892486572,-0.21199268102645874
1751013725581683500,9.197683349609376,-0.1804555207490921,-0.10641911625862122,-0.18278419971466064
1751013725591627500,9.20762744140625,-0.0876864418387413,-0.04820933938026428,-0.1619846373796463
1751013725601570600,9.217570556640625,0.00774660287424922,0.023779364302754402,-0.14571885764598846
1751013725611514600,9.2275146484375,0.06548047065734863,0.07805512100458145,-0.14610686898231506
1751013725621458200,9.237458251953125,0.08672744035720825,0.11340991407632828,-0.18085606396198273
1751013725631401000,9.24740087890625,0.09677927196025848,0.11233559250831604,-0.21758557856082916
1751013725641345300,9.25734521484375,0.09423888474702835,0.11714792996644974,-0.24789023399353027
1751013725651288300,9.267288330078125,0.08746033906936646,0.10490724444389343,-0.27099740505218506
1751013725661232000,9.277232177734374,0.08020588755607605,0.10679515451192856,-0.2819584608078003
1751013725671175200,9.287175048828125,0.07370378077030182,0.11918365210294724,-0.2608853876590729
1751013725681119200,9.297119140625,0.0417674221098423,0.10955099761486053,-0.23055411875247955
1751013725691062300,9.307062255859375,0.020175309851765633,0.08688110113143921,-0.19320833683013916
1751013725701005300,9.31700537109375,0.02298947237432003,0.05619775876402855,-0.15950976312160492
1751013725710949000,9.32694921875,0.03815404325723648,0.01522609032690525,-0.11584430932998657
1751013725720892200,9.33689208984375,0.04321750998497009,-0.029633792117238045,-0.06616676598787308
1751013725730836200,9.346836181640626,0.02978665754199028,-0.061706505715847015,-0.024344487115740776
1751013725740779300,9.356779296875,-0.0018879148410633206,-0.07996141165494919,0.003288471372798085
1751013725750723000,9.36672314453125,-0.03301680460572243,-0.07916565984487534,0.0027569043450057507
1751013725760666000,9.376666015625,-0.05373220518231392,-0.07233944535255432,-0.0017571536591276526
1751013725770609200,9.386609130859375,-0.07333333790302277,-0.0669686496257782,-0.015352324582636356
1751013725780553200,9.39655322265625,-0.0864693745970726,-0.047689758241176605,-0.00711809704080224
1751013725790496000,9.40649609375,-0.09663306921720505,0.019409118220210075,0.00698014535009861
1751013725800440000,9.416440185546875,-0.09062683582305908,0.12123508006334305,0.014097709208726883
1751013725810383000,9.426383056640624,-0.06989280134439468,0.2169826477766037,-0.015213840641081333
1751013725820327200,9.4363271484375,-0.03705815225839615,0.29082411527633667,-0.07647613435983658
1751013725830270000,9.44627001953125,0.011500062420964241,0.3188299238681793,-0.1509556919336319
1751013725840213000,9.456212890625,0.051837366074323654,0.29683539271354675,-0.20822271704673767
1751013725850157300,9.4661572265625,0.0861324891448021,0.2704043388366699,-0.2225574404001236
1751013725860100400,9.476100341796876,0.1073799878358841,0.22354760766029358,-0.21289363503456116
1751013725870044200,9.486044189453125,0.11200909316539764,0.15559251606464386,-0.19375775754451752
1751013725879987200,9.4959873046875,0.09523570537567139,0.06825069338083267,-0.16206534206867218
1751013725889931300,9.50593115234375,0.06120023876428604,-0.0003182477375958115,-0.10978908091783524
1751013725899874300,9.515874267578125,0.0212970320135355,-0.041487786918878555,-0.04665139317512512
1751013725909817300,9.5258173828125,-0.03297153115272522,-0.09767302870750427,0.005111671518534422
1751013725919761200,9.53576123046875,-0.07861225306987762,-0.12735874950885773,0.036134835332632065
1751013725929704200,9.5457041015625,-0.10315088927745819,-0.16314896941184998,0.04615764319896698
1751013725939648300,9.555648193359374,-0.10647238045930862,-0.18251708149909973,0.04637815058231354
1751013725949591000,9.565591064453125,-0.10383451730012894,-0.17996443808078766,0.05778846517205238
1751013725959535000,9.57553515625,-0.08408691734075546,-0.16808567941188812,0.07412029802799225
1751013725969478100,9.58547802734375,-0.0487947016954422,-0.15438823401927948,0.08814077824354172
1751013725979421200,9.595421142578125,-0.015566975809633732,-0.12886902689933777,0.079666867852211
1751013725989365000,9.605364990234374,0.020853616297245026,-0.09726689755916595,0.04652995243668556
1751013725999308000,9.61530810546875,0.05577697977423668,-0.0678192600607872,-0.013008742593228817
1751013726009252000,9.625252197265626,0.0721660703420639,-0.046899598091840744,-0.070729561150074
1751013726019195100,9.635195068359375,0.07312534004449844,-0.03943289443850517,-0.12147210538387299
1751013726029139000,9.645138916015625,0.0659254863858223,-0.05494314432144165,-0.14763818681240082
1751013726039082000,9.65508203125,0.04482286423444748,-0.07255329936742783,-0.1478445827960968
1751013726049025000,9.66502490234375,0.01949300803244114,-0.08121522516012192,-0.1323162317276001
1751013726058969300,9.67496923828125,-0.006888532545417547,-0.08693729341030121,-0.10435304045677185
1751013726068912400,9.684912353515625,-0.022528478875756264,-0.0844416469335556,-0.07080892473459244
1751013726078856200,9.694856201171875,-0.037642981857061386,-0.08327518403530121,-0.06808557361364365
1751013726088799200,9.70479931640625,-0.06313875317573547,-0.06012246012687683,-0.11168791353702545
1751013726098743300,9.714743408203125,-0.07601966708898544,-0.06180930510163307,-0.1809396892786026
1751013726108686300,9.724686279296876,-0.09782642871141434,-0.0928306058049202,-0.23851829767227173
1751013726118629000,9.734629150390624,-0.13457486033439636,-0.13037611544132233,-0.25531005859375
1751013726128573200,9.7445732421875,-0.1670723408460617,-0.14857375621795654,-0.2146369367837906
1751013726138516200,9.75451611328125,-0.17636917531490326,-0.1387445628643036,-0.13934670388698578
1751013726148460000,9.7644599609375,-0.16442090272903442,-0.12991565465927124,-0.04992681369185448
1751013726158403000,9.774403076171875,-0.13983699679374695,-0.11650077998638153,0.007985488511621952
1751013726168347100,9.78434716796875,-0.10480284690856934,-0.10663136839866638,0.025484055280685425
1751013726178290200,9.794290283203125,-0.06574545800685883,-0.08861668407917023,0.016538230702280998
1751013726188233200,9.804233154296876,-0.027414580807089806,-0.06250572204589844,-0.0021228056866675615
1751013726198177000,9.814177001953125,0.00782862864434719,-0.03755456581711769,-0.0060080913826823235
1751013726208120000,9.8241201171875,0.04315785691142082,-0.02509230375289917,-0.016627978533506393
1751013726218064100,9.834064208984374,0.06088145822286606,-0.025143437087535858,-0.026555711403489113
1751013726228007200,9.844007080078125,0.07187685370445251,-0.02148238942027092,-0.033183254301548004
1751013726237951000,9.853950927734376,0.06671910732984543,-0.02165203168988228,-0.03948056325316429
1751013726247894000,9.86389404296875,0.05294497311115265,-0.03027028776705265,-0.042448658496141434
1751013726257837000,9.873837158203125,0.03906164690852165,-0.05041869729757309,-0.04198659956455231
1751013726267781400,9.883781494140624,0.02437484823167324,-0.06367111951112747,-0.032945699989795685
1751013726277724200,9.89372412109375,0.01396002434194088,-0.06397205591201782,-0.012943228706717491
1751013726287668200,9.903668212890626,0.009489375166594982,-0.05447069928050041,0.0022021678742021322
1751013726297611300,9.913611328125,0.014675615355372429,-0.046425290405750275,0.01847914233803749
1751013726307555000,9.92355517578125,0.04147713631391525,-0.029855899512767792,0.0413421131670475
1751013726317498000,9.933498046875,0.0729391872882843,-0.019359050318598747,0.059854812920093536
1751013726327441200,9.943441162109375,0.09587805718183517,-0.021925805136561394,0.07855845987796783
1751013726337385200,9.95338525390625,0.08702624589204788,-0.052895437926054,0.07773048430681229
1751013726347328300,9.963328369140624,0.053516753017902374,-0.08285307139158249,0.07008348405361176
1751013726357272000,9.97327197265625,0.029575468972325325,-0.10618022829294205,0.07440739125013351
1751013726367215000,9.983215087890626,0.009798835031688213,-0.11518757790327072,0.0774196907877922
1751013726377159200,9.9931591796875,-0.001181644620373845,-0.11234518140554428,0.055578041821718216
1751013726387102200,10.003102294921876,-0.008896822109818459,-0.11073104292154312,0.006310626398772001
1751013726397045200,10.013045166015624,-0.004756139125674963,-0.10897389054298401,-0.05089700222015381
1751013726406989000,10.022989013671875,0.006933539640158415,-0.09882991015911102,-0.10069119185209274
1751013726416932000,10.03293212890625,0.010951451025903225,-0.07689451426267624,-0.1388460397720337
1751013726426876200,10.042876220703125,0.016874054446816444,-0.04621463268995285,-0.15550597012043
1751013726436819200,10.052819091796875,0.031185615807771683,-0.011442005634307861,-0.1537802368402481
1751013726446763000,10.062762939453124,0.040216393768787384,0.010783937759697437,-0.13580790162086487
1751013726456706000,10.0727060546875,0.03111264482140541,0.04673954099416733,-0.1213458701968193
1751013726466649000,10.082649169921876,0.008284561336040497,0.09495314210653305,-0.11393295973539352
1751013726476593200,10.09259326171875,-0.011375159956514835,0.10577090084552765,-0.12932896614074707
1751013726486536200,10.1025361328125,-0.03688504546880722,0.059232164174318314,-0.1513458490371704
1751013726496480300,10.112480224609374,-0.08407972007989883,0.004800081718713045,-0.1668478399515152
1751013726506423300,10.12242333984375,-0.13494344055652618,-0.0503649041056633,-0.16683079302310944
1751013726516367000,10.1323671875,-0.16175560653209686,-0.10175751894712448,-0.12822134792804718
1751013726526310100,10.14231005859375,-0.17050568759441376,-0.13597701489925385,-0.07229550182819366
1751013726536253200,10.152253173828125,-0.17265619337558746,-0.1430402398109436,-0.026198048144578934
1751013726546197200,10.162197265625,-0.16438628733158112,-0.13884896039962769,-0.007956726476550102
1751013726556140300,10.172140380859375,-0.13987001776695251,-0.13249465823173523,-0.019571037963032722
1751013726566084000,10.182083984375,-0.10795203596353531,-0.11742676049470901,-0.04620744287967682
1751013726576027100,10.192027099609374,-0.07704098522663116,-0.10698690265417099,-0.06479816883802414
1751013726585971200,10.20197119140625,-0.05662199854850769,-0.08861029148101807,-0.06226976588368416
1751013726595914200,10.211914306640624,-0.036434441804885864,-0.06792286038398743,-0.039389483630657196
1751013726605857000,10.22185693359375,-0.019092734903097153,-0.05360330641269684,-0.02221076376736164
1751013726615801000,10.231801025390626,-0.01696380414068699,-0.06042765825986862,-0.01828952506184578
1751013726625744100,10.241744140625,-0.02484969049692154,-0.0678006187081337,-0.007812915369868279
1751013726635688200,10.251688232421875,-0.03050624392926693,-0.06071341410279274,0.008953813463449478
1751013726645631000,10.261630859375,-0.03544667363166809,-0.039318911731243134,0.024434769526124
1751013726655575000,10.271574951171875,-0.03334304317831993,-0.017602162435650826,0.03768399730324745
1751013726665518000,10.28151806640625,-0.019035743549466133,-0.0026849990244954824,0.04196316376328468
1751013726675461000,10.291461181640624,-0.002626942005008459,0.01037647482007742,0.035828571766614914
1751013726685405000,10.301405029296875,0.013997307978570461,0.021558288484811783,0.027110978960990906
1751013726695348000,10.311347900390626,0.03383572772145271,0.039503734558820724,0.0344352051615715
1751013726705292000,10.3212919921875,0.03639928624033928,0.05024079978466034,0.039682965725660324
1751013726715235000,10.331235107421875,0.014184794388711452,0.04556801915168762,0.04387664422392845
1751013726725178000,10.34117822265625,-0.016021843999624252,0.06863471865653992,0.03032914362847805
1751013726735122000,10.351121826171875,-0.045511823147535324,0.09442610293626785,0.019514579325914383
1751013726745065000,10.36106494140625,-0.04309900104999542,0.125543013215065,0.01648044027388096
1751013726755009000,10.371009033203125,-0.010294449515640736,0.13935282826423645,0.03086337447166443
1751013726764952000,10.3809521484375,0.038174018263816833,0.1379227191209793,0.05194708704948425
1751013726774896000,10.390896240234374,0.07603191584348679,0.1166994497179985,0.07003820687532425
1751013726784839000,10.4008388671875,0.08254041522741318,0.07357461750507355,0.06528259813785553
1751013726794782000,10.410781982421875,0.07939469069242477,0.029195168986916542,0.035536423325538635
1751013726804726000,10.42072607421875,0.07797655463218689,-0.013614611700177193,-0.00022264027211349458
1751013726814669000,10.4306689453125,0.07819094508886337,-0.034747593104839325,-0.013881194405257702
1751013726824613000,10.440613037109374,0.08393590897321701,-0.026863038539886475,-0.007714911364018917
1751013726834556200,10.45055615234375,0.08716738969087601,-0.014101171866059303,0.0143507095053792
1751013726844500000,10.4605,0.0794663280248642,-0.009793775156140327,0.03892635926604271
1751013726854443000,10.470443115234374,0.0609150156378746,-0.005311674904078245,0.0525343157351017
1751013726864386000,10.480385986328125,0.03346315026283264,-0.0031989889685064554,0.046233806759119034
1751013726874330000,10.490330078125,0.01637471280992031,-0.01871456578373909,0.019301792606711388
1751013726884273200,10.500273193359375,0.011723767966032028,-0.029325664043426514,-0.0059753344394266605
1751013726894217000,10.510217041015625,0.015485215932130814,-0.028899557888507843,-0.018388062715530396
1751013726904160000,10.520159912109374,0.019055983051657677,-0.013689713552594185,-0.014163223095238209
1751013726914104000,10.53010400390625,0.020239491015672684,0.000012783173588104546,0.005160939879715443
1751013726924047000,10.540047119140626,0.02110981196165085,0.007711449172347784,0.02407870441675186
1751013726933990000,10.549989990234375,0.019151324406266212,0.015154452063143253,0.030551251024007797
1751013726943934000,10.559933837890625,0.01852814480662346,0.018095912411808968,0.015674833208322525
1751013726953877000,10.569876953125,0.022640597075223923,0.021387048065662384,-0.016453009098768234
1751013726963821000,10.579821044921875,0.030946463346481323,0.030585072934627533,-0.047210656106472015
1751013726973763800,10.589763916015626,0.04261190816760063,0.03959561139345169,-0.06933140009641647
1751013726983708200,10.599708251953125,0.044621530920267105,0.04158179834485054,-0.08458385616540909
1751013726993651000,10.60965087890625,0.04506334662437439,0.03188709169626236,-0.08237530291080475
1751013727003594000,10.619593994140626,0.040159136056900024,0.028956018388271332,-0.06529431790113449
1751013727013538000,10.6295380859375,0.03398380056023598,0.02690378576517105,-0.042810313403606415
1751013727023481000,10.639481201171876,0.02791179157793522,0.011226288974285126,-0.011979164555668831
1751013727033425200,10.649425048828125,0.023321833461523056,-0.0028280108235776424,0.016454607248306274
1751013727043368200,10.6593681640625,0.024215856567025185,-0.018745990470051765,0.03976818546652794
1751013727053312000,10.66931201171875,0.02738448604941368,-0.02690884657204151,0.043346941471099854
1751013727063255000,10.679255126953125,0.04166169464588165,-0.028363730758428574,0.03537316992878914
1751013727073198000,10.689197998046875,0.0560198612511158,-0.02780047245323658,0.019098592922091484
1751013727083142100,10.69914208984375,0.06671298295259476,-0.015180550515651703,0.0016322514275088906
1751013727093085000,10.7090849609375,0.06741206347942352,-0.009291502647101879,-0.02768542431294918
1751013727103029000,10.719029052734374,0.05686221644282341,-0.007949535734951496,-0.048713475465774536
1751013727112972000,10.728971923828125,0.04424575716257095,0.004029362928122282,-0.05288238823413849
1751013727122915000,10.7389150390625,0.03416569158434868,0.028415130451321602,-0.04790707305073738
1751013727132859000,10.74885888671875,0.037507958710193634,0.052023254334926605,-0.035886626690626144
1751013727142802000,10.758802001953125,0.04954252019524574,0.0579056441783905,-0.027935760095715523
1751013727152746000,10.76874609375,0.05392182245850563,0.04957474395632744,-0.02257375232875347
1751013727162689000,10.77868896484375,0.045455899089574814,0.043053194880485535,-0.021433653309941292
1751013727172632800,10.7886328125,0.026215093210339546,0.02798183262348175,-0.0296055618673563
1751013727182575900,10.798575927734374,0.013778396882116795,0.022425679489970207,-0.038603052496910095
1751013727192519000,10.808518798828125,0.018992599099874496,0.02028210274875164,-0.05603983253240585
1751013727202463200,10.818463134765626,0.04403829947113991,0.02864682488143444,-0.0664575845003128
1751013727212406000,10.828406005859375,0.05397827923297882,0.03762354329228401,-0.06647703051567078
1751013727222350000,10.83835009765625,0.05601586401462555,0.048647698014974594,-0.05520040541887283
1751013727232293000,10.848293212890624,0.05379878357052803,0.061344049870967865,-0.031034348532557487
1751013727242237200,10.8582373046875,0.046958986669778824,0.07128802686929703,-0.008566057309508324
1751013727252180200,10.86818017578125,0.040759678930044174,0.07663698494434357,0.007535414304584265
1751013727262123000,10.878123046875,0.04788576811552048,0.07589796185493469,0.0075577846728265285
1751013727272067000,10.888067138671875,0.06278535723686218,0.0837114080786705,-0.009366603568196297
1751013727282010000,10.898010009765626,0.08628934621810913,0.09139436483383179,-0.0314766988158226
1751013727291954000,10.907953857421875,0.10428406298160553,0.10421162098646164,-0.043365851044654846
1751013727301897000,10.91789697265625,0.11902572214603424,0.09955934435129166,-0.05921671912074089
1751013727311841000,10.927841064453125,0.11860654503107071,0.11255504190921783,-0.027293672785162926
1751013727321784000,10.9377841796875,0.07459993660449982,0.17911569774150848,0.1321987807750702
1751013727331727000,10.94772705078125,0.019642410799860954,-0.012551478110253811,0.16597379744052887
1751013727341671000,10.9576708984375,0.009135175496339798,-0.12998835742473602,0.12966345250606537
1751013727351614000,10.967614013671875,0.06422239542007446,-0.12228090316057205,0.07963970303535461
1751013727361558000,10.97755810546875,0.10857041925191879,-0.12852895259857178,0.00558251840993762
1751013727371501000,10.9875009765625,0.12861230969429016,-0.09414727240800858,-0.046487871557474136
1751013727381444000,10.997444091796876,0.13617701828479767,-0.03778386488556862,-0.05006396770477295
