time,seconds_elapsed,z,y,x
1751013646996668200,0.131668212890625,-391.4732360839844,-202.5303192138672,-17.735565185546875
1751013647006709000,0.141708984375,-391.724609375,-202.1598358154297,-17.5654296875
1751013647016751000,0.151751220703125,-391.50872802734375,-201.88067626953125,-17.666824340820312
1751013647026793000,0.16179296875,-391.843017578125,-202.38653564453125,-17.387893676757812
1751013647036835000,0.1718349609375,-392.23040771484375,-202.1190643310547,-17.627548217773438
1751013647046878200,0.181878173828125,-392.0714111328125,-202.11672973632812,-17.16973876953125
1751013647056921000,0.191921142578125,-392.3227233886719,-202.37770080566406,-17.301849365234375
1751013647066963000,0.201962890625,-392.1330261230469,-202.058837890625,-17.19537353515625
1751013647077004000,0.212004150390625,-391.88067626953125,-202.02137756347656,-17.141876220703125
1751013647087047200,0.222047119140625,-392.00738525390625,-201.5941619873047,-17.219619750976562
1751013647097088000,0.232087890625,-392.5067138671875,-201.61691284179688,-17.4228515625
1751013647107130000,0.242130126953125,-392.57513427734375,-201.74551391601562,-17.348831176757812
1751013647117172000,0.252171875,-392.18890380859375,-201.3199920654297,-17.416183471679688
1751013647127214000,0.262214111328125,-392.5063171386719,-201.1334228515625,-17.23052978515625
1751013647137256000,0.272255859375,-392.2391357421875,-201.00303649902344,-17.191452026367188
1751013647147297000,0.282297119140625,-392.3512878417969,-201.06019592285156,-17.103500366210938
1751013647157339100,0.292339111328125,-392.1835021972656,-201.3318634033203,-16.848236083984375
1751013647167380000,0.3023798828125,-392.2911682128906,-201.47238159179688,-17.202194213867188
1751013647177422000,0.312422119140625,-392.66973876953125,-201.355224609375,-17.454803466796875
1751013647187463200,0.322463134765625,-392.3199462890625,-201.5698699951172,-17.590240478515625
1751013647197504000,0.33250390625,-392.4400939941406,-201.7064208984375,-18.031539916992188
1751013647207545000,0.342545166015625,-392.0733947753906,-201.52069091796875,-18.168014526367188
1751013647217586000,0.3525859375,-392.5556640625,-201.56283569335938,-18.0179443359375
1751013647227628000,0.3626279296875,-392.2605895996094,-201.5953369140625,-17.717071533203125
1751013647237668900,0.3726689453125,-393.05731201171875,-201.64669799804688,-18.054061889648438
1751013647247712000,0.3827119140625,-392.8966369628906,-201.56524658203125,-17.8375244140625
1751013647257754000,0.392754150390625,-392.7899475097656,-201.24513244628906,-17.927276611328125
1751013647267795200,0.402795166015625,-392.72088623046875,-201.38311767578125,-18.082168579101562
1751013647277836000,0.4128359375,-393.16278076171875,-201.21719360351562,-18.115158081054688
1751013647287877000,0.422877197265625,-392.8689270019531,-201.44126892089844,-17.887786865234375
1751013647297918200,0.432918212890625,-392.9207763671875,-201.45457458496094,-18.231643676757812
1751013647307959000,0.442958984375,-393.2245178222656,-201.38302612304688,-18.191024780273438
1751013647318000000,0.453000244140625,-392.80267333984375,-201.35910034179688,-18.202072143554688
1751013647328041000,0.463041015625,-392.916259765625,-201.55972290039062,-18.175674438476562
1751013647338082000,0.47308203125,-392.7447509765625,-201.83132934570312,-18.286178588867188
1751013647348123100,0.483123046875,-392.61309814453125,-201.45147705078125,-18.406661987304688
1751013647358165000,0.4931650390625,-392.65142822265625,-201.5675811767578,-18.124786376953125
1751013647368208000,0.503207763671875,-392.5874938964844,-201.5374755859375,-18.097183227539062
1751013647378250000,0.51325,-392.81353759765625,-201.61582946777344,-18.305938720703125
1751013647388293000,0.523293212890625,-393.2139892578125,-201.9471435546875,-18.126480102539062
1751013647398335000,0.5333349609375,-392.9569091796875,-202.11341857910156,-18.2183837890625
1751013647408376800,0.543376953125,-392.73712158203125,-201.75885009765625,-18.275772094726562
1751013647418419000,0.5534189453125,-392.5008544921875,-202.07302856445312,-18.25250244140625
1751013647428461000,0.5634609375,-392.55206298828125,-201.6981964111328,-17.640701293945312
1751013647438503000,0.5735029296875,-392.3622741699219,-201.929931640625,-17.831893920898438
1751013647448545000,0.583544921875,-392.36602783203125,-201.76620483398438,-17.813201904296875
1751013647458585900,0.5935859375,-392.7429504394531,-201.89678955078125,-17.603042602539062
1751013647468628000,0.6036279296875,-392.92083740234375,-201.84303283691406,-17.892730712890625
1751013647478669800,0.613669921875,-392.5997314453125,-202.01849365234375,-17.810836791992188
1751013647488712200,0.623712158203125,-392.64599609375,-201.94754028320312,-17.8829345703125
1751013647498754000,0.633754150390625,-392.7821960449219,-201.7021484375,-18.033477783203125
1751013647508794000,0.643794189453125,-392.64727783203125,-201.7077178955078,-17.785247802734375
1751013647518835000,0.6538349609375,-392.328857421875,-201.90267944335938,-17.614151000976562
1751013647528877000,0.663876953125,-392.4896240234375,-202.02903747558594,-17.323150634765625
1751013647538919000,0.6739189453125,-392.81097412109375,-201.83570861816406,-17.598861694335938
1751013647548960000,0.6839599609375,-392.7325439453125,-201.69715881347656,-17.405242919921875
1751013647559001900,0.694001953125,-392.3784484863281,-202.02288818359375,-17.478912353515625
1751013647569044000,0.7040439453125,-392.6719665527344,-202.04881286621094,-17.693756103515625
1751013647579086000,0.714086181640625,-392.656005859375,-201.9933624267578,-17.737380981445312
1751013647589128000,0.7241279296875,-392.49359130859375,-201.9239959716797,-17.634674072265625
1751013647599170000,0.734170166015625,-392.5584716796875,-201.93490600585938,-17.72076416015625
1751013647609210000,0.744210205078125,-393.18109130859375,-202.1967315673828,-17.63226318359375
1751013647619251000,0.7542509765625,-392.7936706542969,-202.0175018310547,-17.271697998046875
1751013647629292000,0.7642919921875,-392.97723388671875,-202.39205932617188,-17.295608520507812
1751013647639333000,0.7743330078125,-392.93572998046875,-202.0178680419922,-17.69866943359375
1751013647649375000,0.784375,-392.7853088378906,-202.35816955566406,-17.286865234375
1751013647659416800,0.794416748046875,-393.4261474609375,-202.08302307128906,-17.527908325195312
1751013647669459200,0.804459228515625,-393.0067138671875,-202.07662963867188,-17.608993530273438
1751013647679501000,0.8145009765625,-392.48712158203125,-202.33816528320312,-17.700531005859375
1751013647689542100,0.824542236328125,-393.09307861328125,-202.66737365722656,-17.775222778320312
1751013647699583000,0.8345830078125,-393.01336669921875,-201.98828125,-17.70916748046875
1751013647709625900,0.8446259765625,-392.97430419921875,-202.1924285888672,-17.733200073242188
1751013647719667000,0.8546669921875,-393.1226501464844,-202.20338439941406,-17.781036376953125
1751013647729708800,0.864708740234375,-393.03271484375,-202.01446533203125,-17.524993896484375
1751013647739750000,0.87475,-393.006103515625,-201.81141662597656,-17.700607299804688
1751013647749792000,0.8847919921875,-393.268798828125,-201.73719787597656,-17.62249755859375
1751013647759833000,0.8948330078125,-392.9883117675781,-201.9453887939453,-17.440750122070312
1751013647769875000,0.904875,-392.95068359375,-201.7241973876953,-17.485931396484375
1751013647779916000,0.914916015625,-392.892333984375,-201.74349975585938,-17.477523803710938
1751013647789957000,0.92495703125,-393.091552734375,-201.938232421875,-17.730316162109375
1751013647799999000,0.9349990234375,-393.0673828125,-201.85926818847656,-17.471542358398438
1751013647810040000,0.9450400390625,-393.26409912109375,-201.9350128173828,-17.551803588867188
1751013647820082000,0.95508203125,-393.1418151855469,-201.96080017089844,-17.5843505859375
1751013647830125000,0.965125,-392.83282470703125,-201.9835968017578,-17.558258056640625
1751013647840167200,0.975167236328125,-392.9478759765625,-201.5950469970703,-17.66522216796875
1751013647850208000,0.9852080078125,-393.1239318847656,-201.545166015625,-17.509414672851562
1751013647860249000,0.9952490234375,-393.4769287109375,-201.2823486328125,-17.536026000976562
1751013647870290000,1.0052900390625,-393.2293701171875,-201.6508026123047,-17.20751953125
1751013647880331000,1.0153310546875,-393.5569763183594,-201.8712921142578,-17.372406005859375
1751013647890372000,1.0253720703125,-393.03204345703125,-201.95193481445312,-17.424880981445312
1751013647900414000,1.0354140625,-392.8699951171875,-201.8324737548828,-17.657577514648438
1751013647910456800,1.045456787109375,-393.21612548828125,-201.99400329589844,-17.855117797851562
1751013647920499200,1.055499267578125,-393.128662109375,-202.03211975097656,-17.82928466796875
1751013647930541000,1.065541015625,-392.9981384277344,-201.6272735595703,-17.6455078125
1751013647940582100,1.07558203125,-393.03118896484375,-201.649658203125,-17.822174072265625
1751013647950623000,1.085623046875,-393.42205810546875,-201.73519897460938,-17.378768920898438
1751013647960665000,1.0956650390625,-392.8626403808594,-201.65098571777344,-17.698837280273438
1751013647970707000,1.10570703125,-393.10321044921875,-201.32623291015625,-17.267074584960938
1751013647980748000,1.115748046875,-392.865966796875,-201.86044311523438,-17.782241821289062
1751013647990788900,1.125788818359375,-392.8021240234375,-201.91673278808594,-17.200759887695312
1751013648000832000,1.13583203125,-392.9896545410156,-201.663330078125,-17.551315307617188
1751013648010873000,1.145873046875,-393.3531494140625,-201.73880004882812,-17.49920654296875
1751013648020915000,1.1559150390625,-392.9320983886719,-201.83753967285156,-17.490966796875
1751013648030957000,1.16595703125,-393.2222900390625,-201.48455810546875,-17.625244140625
1751013648040999000,1.1759990234375,-393.0614013671875,-201.68429565429688,-17.423355102539062
1751013648051042000,1.1860419921875,-393.8082275390625,-201.32920837402344,-17.286941528320312
1751013648061083100,1.196083251953125,-393.79473876953125,-201.2727813720703,-17.763473510742188
1751013648071126000,1.2061259765625,-393.8748779296875,-201.18312072753906,-17.269699096679688
1751013648081170200,1.216170166015625,-393.89276123046875,-201.0968017578125,-17.34893798828125
1751013648091213800,1.2262138671875,-393.1536560058594,-201.16659545898438,-17.491119384765625
1751013648101257000,1.236257080078125,-393.54345703125,-201.22898864746094,-17.094039916992188
1751013648111300000,1.246300048828125,-393.16046142578125,-201.14791870117188,-16.864242553710938
1751013648121343000,1.256343017578125,-393.4781494140625,-201.00515747070312,-16.823989868164062
1751013648131385000,1.266385009765625,-393.3739318847656,-200.6117401123047,-17.03607177734375
1751013648141427000,1.276427001953125,-393.488525390625,-200.9973602294922,-17.297592163085938
1751013648151469800,1.2864697265625,-393.5994873046875,-201.07647705078125,-17.156051635742188
1751013648161512000,1.296511962890625,-393.536865234375,-200.6914520263672,-16.916748046875
1751013648171555000,1.30655517578125,-393.7552490234375,-200.9292449951172,-17.086502075195312
1751013648181597000,1.316596923828125,-393.5600891113281,-201.15704345703125,-17.437728881835938
1751013648191641000,1.32664111328125,-393.7817687988281,-200.7713165283203,-17.631439208984375
1751013648201683000,1.336682861328125,-393.7925720214844,-200.60862731933594,-17.470901489257812
1751013648211722000,1.346721923828125,-393.793212890625,-200.6017303466797,-17.5921630859375
1751013648221771000,1.35677099609375,-394.0692138671875,-200.74658203125,-17.536514282226562
1751013648231814000,1.36681396484375,-394.2552490234375,-200.60049438476562,-17.726959228515625
1751013648241856000,1.37685595703125,-393.84967041015625,-200.7862548828125,-17.38677978515625
1751013648251899000,1.38689892578125,-393.84442138671875,-200.76036071777344,-17.923019409179688
1751013648261943000,1.396943115234375,-393.9818420410156,-200.942626953125,-17.762908935546875
1751013648271982000,1.406982177734375,-393.8934326171875,-201.18069458007812,-17.767730712890625
1751013648282030000,1.417030029296875,-393.80047607421875,-200.9051513671875,-17.48834228515625
1751013648292073000,1.427072998046875,-394.1590576171875,-200.80062866210938,-17.396377563476562
1751013648302115000,1.437114990234375,-393.75616455078125,-200.7678985595703,-17.352935791015625
1751013648312158200,1.447158203125,-393.74810791015625,-200.87954711914062,-17.564788818359375
1751013648322200000,1.457199951171875,-393.8467102050781,-201.11788940429688,-17.422622680664062
1751013648332243000,1.467242919921875,-393.99163818359375,-200.916748046875,-17.675399780273438
1751013648342286000,1.4772861328125,-393.34405517578125,-200.91676330566406,-17.293014526367188
1751013648352327200,1.4873271484375,-393.959228515625,-200.85421752929688,-17.459274291992188
1751013648362370000,1.4973701171875,-393.7371826171875,-200.9013214111328,-17.376129150390625
1751013648372413000,1.507412841796875,-393.2599182128906,-200.92335510253906,-17.348220825195312
1751013648382456000,1.5174560546875,-393.40704345703125,-201.0010528564453,-17.323104858398438
1751013648392500000,1.5275,-393.04022216796875,-200.74440002441406,-17.186660766601562
1751013648402544000,1.537544189453125,-393.185791015625,-200.62030029296875,-17.3104248046875
1751013648412583000,1.5475830078125,-392.81304931640625,-200.86410522460938,-17.014846801757812
1751013648422632000,1.5576318359375,-393.47161865234375,-200.7393035888672,-17.099960327148438
1751013648432677000,1.567677001953125,-393.51568603515625,-201.07766723632812,-17.36944580078125
1751013648442719000,1.577718994140625,-393.35711669921875,-200.5814208984375,-17.293548583984375
1751013648452761900,1.587761962890625,-393.30792236328125,-201.2710723876953,-17.283172607421875
1751013648462805000,1.597804931640625,-393.04595947265625,-200.88157653808594,-17.31671142578125
1751013648472848000,1.607847900390625,-392.87591552734375,-201.08883666992188,-17.256942749023438
1751013648482891000,1.61789111328125,-393.4723815917969,-201.1686553955078,-17.219711303710938
1751013648492933000,1.62793310546875,-393.4727783203125,-200.8330078125,-17.209579467773438
1751013648502976000,1.63797607421875,-393.25787353515625,-200.82208251953125,-17.163421630859375
1751013648513020200,1.648020263671875,-393.8155822753906,-200.81272888183594,-17.519271850585938
1751013648523063000,1.65806298828125,-393.52545166015625,-200.93341064453125,-17.54998779296875
1751013648533106200,1.668106201171875,-394.0980529785156,-201.03903198242188,-17.682113647460938
1751013648543149800,1.67814990234375,-393.34136962890625,-201.15029907226562,-17.406570434570312
1751013648553194000,1.688194091796875,-393.843017578125,-200.8476104736328,-17.4927978515625
1751013648563237000,1.698237060546875,-393.9298095703125,-200.98895263671875,-17.813507080078125
1751013648573280000,1.708280029296875,-393.63616943359375,-200.5744171142578,-17.441986083984375
1751013648583323000,1.718322998046875,-393.25732421875,-200.79153442382812,-17.76922607421875
1751013648593367000,1.728366943359375,-393.56964111328125,-200.63047790527344,-17.878189086914062
1751013648603410000,1.738409912109375,-393.65875244140625,-201.24386596679688,-17.92529296875
1751013648613454000,1.7484541015625,-393.7917175292969,-201.1345977783203,-18.128097534179688
1751013648623498200,1.758498291015625,-393.5469970703125,-200.8631591796875,-18.09539794921875
1751013648633540000,1.7685400390625,-393.8780822753906,-201.11595153808594,-17.912353515625
1751013648643583000,1.7785830078125,-394.1321716308594,-201.0557861328125,-18.377883911132812
1751013648653624000,1.7886240234375,-393.7071533203125,-200.74575805664062,-18.463455200195312
1751013648663666000,1.798666015625,-393.5969543457031,-200.9747314453125,-18.344619750976562
1751013648673707000,1.80870703125,-394.2567138671875,-201.1990203857422,-18.335800170898438
1751013648683749000,1.8187490234375,-394.0269775390625,-201.21351623535156,-18.0509033203125
1751013648693791200,1.828791259765625,-394.326904296875,-201.22433471679688,-18.107681274414062
1751013648703833000,1.8388330078125,-394.0342102050781,-201.02005004882812,-18.21917724609375
1751013648713874200,1.848874267578125,-394.3164367675781,-201.42665100097656,-18.14453125
1751013648723916000,1.858916015625,-393.66278076171875,-201.1576385498047,-18.071365356445312
1751013648733957000,1.86895703125,-393.88568115234375,-200.9903564453125,-18.281967163085938
1751013648743999000,1.8789990234375,-393.7347412109375,-201.19467163085938,-18.33233642578125
1751013648754041000,1.889041015625,-394.28961181640625,-201.38804626464844,-18.223770141601562
1751013648764083200,1.899083251953125,-394.13031005859375,-201.24862670898438,-18.046844482421875
1751013648774125000,1.909125,-393.95635986328125,-201.22869873046875,-17.807083129882812
1751013648784168000,1.91916796875,-393.843017578125,-201.01327514648438,-17.730178833007812
1751013648794211000,1.929211181640625,-393.63897705078125,-200.82827758789062,-17.768020629882812
1751013648804254000,1.93925390625,-393.69879150390625,-200.88180541992188,-17.377853393554688
1751013648814297000,1.949297119140625,-393.53173828125,-201.1075897216797,-17.777435302734375
1751013648824340200,1.95934033203125,-393.74798583984375,-200.99334716796875,-17.408126831054688
1751013648834382000,1.969382080078125,-393.4795227050781,-200.88331604003906,-17.727859497070312
1751013648844423200,1.979423095703125,-393.5586242675781,-201.1318359375,-17.653366088867188
1751013648854464000,1.989464111328125,-393.77154541015625,-200.92611694335938,-17.597366333007812
1751013648864506000,1.999506103515625,-393.8773193359375,-200.982666015625,-17.201507568359375
1751013648874547000,2.009546875,-393.3528137207031,-201.13735961914062,-17.66748046875
1751013648884589300,2.01958935546875,-393.2911376953125,-200.9173126220703,-17.25311279296875
1751013648894630100,2.029630126953125,-393.22003173828125,-200.905029296875,-17.441162109375
1751013648904671200,2.039671142578125,-393.2760925292969,-201.275146484375,-17.597442626953125
1751013648914713000,2.049713134765625,-393.3123779296875,-201.56707763671875,-17.860076904296875
1751013648924756000,2.059755859375,-392.95196533203125,-200.73594665527344,-17.203155517578125
1751013648934798000,2.069798095703125,-393.1713562011719,-201.21249389648438,-17.237472534179688
1751013648944839000,2.0798388671875,-393.386962890625,-200.7554168701172,-17.335418701171875
1751013648954881300,2.08988134765625,-392.947265625,-201.29312133789062,-17.45831298828125
1751013648964923100,2.099923095703125,-393.7320251464844,-201.2747039794922,-17.244461059570312
1751013648974965000,2.109965087890625,-393.3705139160156,-201.1966094970703,-17.361663818359375
1751013648985007000,2.120007080078125,-392.6334228515625,-201.28009033203125,-17.275787353515625
1751013648995044400,2.13004443359375,-393.51904296875,-201.3726348876953,-17.410552978515625
1751013649005092000,2.140092041015625,-393.0546569824219,-201.28245544433594,-17.38385009765625
1751013649015134200,2.15013427734375,-393.04193115234375,-201.11859130859375,-17.2386474609375
1751013649025177000,2.160177001953125,-393.5069580078125,-201.1416778564453,-17.355789184570312
1751013649035220200,2.17022021484375,-393.351806640625,-201.21238708496094,-17.295089721679688
1751013649045263000,2.18026318359375,-392.9998779296875,-200.9300079345703,-17.064010620117188
1751013649055300400,2.19030029296875,-393.47418212890625,-201.0865936279297,-17.368194580078125
1751013649065347000,2.20034716796875,-393.5282287597656,-201.0164794921875,-16.9530029296875
1751013649075389200,2.21038916015625,-393.47039794921875,-200.61109924316406,-17.0438232421875
1751013649085430300,2.22043017578125,-393.53680419921875,-200.85853576660156,-16.874053955078125
1751013649095472000,2.23047216796875,-393.3187255859375,-200.74368286132812,-17.072158813476562
1751013649105514000,2.240513916015625,-393.5759582519531,-200.56723022460938,-17.075515747070312
1751013649115555000,2.25055517578125,-393.83624267578125,-200.96861267089844,-16.964797973632812
1751013649125597000,2.260596923828125,-393.5401306152344,-200.55284118652344,-16.875076293945312
1751013649135639300,2.270639404296875,-393.2906494140625,-200.8263397216797,-16.810440063476562
1751013649145681200,2.28068115234375,-393.5292663574219,-200.84458923339844,-16.992538452148438
1751013649155721200,2.29072119140625,-393.37628173828125,-200.7733154296875,-17.009841918945312
1751013649165762300,2.30076220703125,-393.4962158203125,-200.8046417236328,-17.022430419921875
1751013649175805200,2.31080517578125,-392.8885803222656,-200.8855743408203,-16.820449829101562
1751013649185847000,2.320846923828125,-393.36358642578125,-200.874267578125,-16.784225463867188
1751013649195885000,2.330885009765625,-393.65887451171875,-200.98533630371094,-17.09844970703125
1751013649205933000,2.34093310546875,-393.4995422363281,-201.0902099609375,-17.22174072265625
1751013649215974100,2.35097412109375,-393.47430419921875,-200.95762634277344,-16.885665893554688
1751013649226016000,2.36101611328125,-392.9783630371094,-200.9591827392578,-16.793472290039062
1751013649236057000,2.37105712890625,-393.3817443847656,-200.59725952148438,-17.05670166015625
1751013649246100200,2.381100341796875,-393.05401611328125,-200.83563232421875,-16.78070068359375
1751013649256137200,2.39113720703125,-393.25286865234375,-200.9449462890625,-17.010589599609375
1751013649266184200,2.40118408203125,-393.0775146484375,-200.96690368652344,-16.758056640625
1751013649276226000,2.41122607421875,-393.33941650390625,-200.75619506835938,-16.622833251953125
1751013649286268200,2.42126806640625,-393.5580139160156,-200.75669860839844,-16.680221557617188
1751013649296311000,2.43131103515625,-393.08697509765625,-200.57542419433594,-16.609954833984375
1751013649306353200,2.441353271484375,-393.5786437988281,-200.5672149658203,-16.7440185546875
1751013649316395000,2.45139501953125,-393.4779052734375,-200.13063049316406,-16.441802978515625
1751013649326437000,2.46143701171875,-393.05572509765625,-200.4918212890625,-16.5238037109375
1751013649336480300,2.471480224609375,-393.4478454589844,-200.42120361328125,-16.389434814453125
1751013649346522000,2.481522216796875,-393.969482421875,-200.50115966796875,-16.603759765625
1751013649356565000,2.49156494140625,-393.967041015625,-200.5495147705078,-16.828994750976562
1751013649366607000,2.501607177734375,-393.51763916015625,-200.25730895996094,-16.780563354492188
1751013649376649200,2.511649169921875,-393.6832275390625,-200.3584747314453,-16.996658325195312
1751013649386692000,2.521692138671875,-393.8300476074219,-200.37646484375,-17.01312255859375
1751013649396733000,2.53173291015625,-393.883056640625,-200.40411376953125,-16.68035888671875
1751013649406775300,2.541775390625,-393.6315002441406,-200.1176300048828,-16.484466552734375
1751013649416817200,2.551817138671875,-393.41357421875,-200.27467346191406,-16.694793701171875
1751013649426859300,2.561859375,-393.5591735839844,-200.50694274902344,-16.4859619140625
1751013649436900000,2.571900146484375,-393.8773193359375,-200.31112670898438,-16.820693969726562
1751013649446941200,2.581941162109375,-393.5799560546875,-200.77877807617188,-16.835464477539062
1751013649456982000,2.59198193359375,-393.9405517578125,-200.56817626953125,-16.962478637695312
1751013649467023000,2.602023193359375,-393.42901611328125,-200.55966186523438,-16.400131225585938
1751013649477064200,2.612064208984375,-393.4562072753906,-200.36256408691406,-16.606842041015625
1751013649487106000,2.62210595703125,-394.318603515625,-200.7117462158203,-16.798233032226562
1751013649497149200,2.632149169921875,-393.4202575683594,-200.4600830078125,-16.747573852539062
1751013649507192000,2.642192138671875,-393.13018798828125,-200.73550415039062,-16.541015625
1751013649517235000,2.65223486328125,-393.4853515625,-200.4824981689453,-16.811843872070312
1751013649527278000,2.662278076171875,-393.91632080078125,-200.8132781982422,-16.717361450195312
1751013649537322000,2.672322021484375,-393.59454345703125,-200.1563720703125,-16.758438110351562
1751013649547364400,2.6823642578125,-393.9283142089844,-200.31007385253906,-17.3634033203125
1751013649557407000,2.692406982421875,-393.23577880859375,-200.67918395996094,-16.895111083984375
1751013649567449900,2.702449951171875,-393.6877746582031,-201.05044555664062,-16.99639892578125
1751013649577493000,2.712492919921875,-393.5330810546875,-200.66598510742188,-17.062286376953125
1751013649587536000,2.722535888671875,-393.60845947265625,-200.436767578125,-17.346527099609375
1751013649597577700,2.73257763671875,-393.4508972167969,-200.52151489257812,-16.97149658203125
1751013649607620900,2.742620849609375,-393.3130798339844,-200.03561401367188,-16.976593017578125
1751013649617663700,2.752663818359375,-393.13714599609375,-200.32110595703125,-17.047714233398438
1751013649627707000,2.762706787109375,-393.57794189453125,-200.4528350830078,-16.993896484375
1751013649637750000,2.77275,-393.5325927734375,-200.15682983398438,-17.222885131835938
1751013649647793000,2.78279296875,-393.31597900390625,-200.44061279296875,-17.053085327148438
1751013649657836800,2.7928369140625,-393.34075927734375,-200.487060546875,-16.6407470703125
1751013649667879000,2.80287890625,-393.39923095703125,-200.23085021972656,-16.922897338867188
1751013649677921800,2.812921875,-393.8087463378906,-200.3848419189453,-16.639495849609375
1751013649687963000,2.822962890625,-393.6021423339844,-200.11227416992188,-17.0093994140625
1751013649698003700,2.833003662109375,-393.6465759277344,-200.17471313476562,-17.338531494140625
1751013649708046000,2.843046142578125,-394.009765625,-200.32510375976562,-16.856689453125
1751013649718087000,2.8530869140625,-393.4139404296875,-200.2322998046875,-16.943695068359375
1751013649728128000,2.8631279296875,-393.38726806640625,-200.13192749023438,-17.0167236328125
1751013649738169900,2.873169921875,-393.88897705078125,-200.27093505859375,-16.846832275390625
1751013649748207900,2.883207763671875,-393.6302490234375,-200.7536163330078,-16.73663330078125
1751013649758254800,2.8932548828125,-394.107421875,-200.41879272460938,-17.24755859375
1751013649768297000,2.903296875,-393.94879150390625,-200.41294860839844,-16.6514892578125
1751013649778338800,2.9133388671875,-393.51104736328125,-200.31210327148438,-16.919143676757812
1751013649788381000,2.923380859375,-393.71343994140625,-200.4312744140625,-17.170516967773438
1751013649798421800,2.933421875,-393.831298828125,-200.04087829589844,-16.956939697265625
1751013649808464000,2.9434638671875,-393.7731018066406,-200.15353393554688,-16.895767211914062
1751013649818507000,2.953507080078125,-393.92755126953125,-200.13937377929688,-17.077560424804688
1751013649828550000,2.9635498046875,-393.7421875,-200.23312377929688,-17.0997314453125
1751013649838592800,2.9735927734375,-393.86981201171875,-200.41542053222656,-17.093963623046875
1751013649848633900,2.9836337890625,-393.8106994628906,-200.3218994140625,-17.15704345703125
1751013649858676000,2.993676025390625,-394.3861083984375,-200.16046142578125,-16.977996826171875
1751013649868717800,3.0037177734375,-394.01666259765625,-200.19740295410156,-16.877304077148438
1751013649878760000,3.013760009765625,-394.25665283203125,-200.48257446289062,-17.146774291992188
1751013649888801800,3.0238017578125,-393.74725341796875,-200.3687744140625,-16.868423461914062
1751013649898843000,3.0338427734375,-393.7235107421875,-200.55413818359375,-17.152862548828125
1751013649908884700,3.043884765625,-393.96929931640625,-200.2271270751953,-17.221038818359375
1751013649918926800,3.0539267578125,-394.12261962890625,-200.1925506591797,-17.074203491210938
1751013649928970000,3.063969970703125,-394.22784423828125,-200.3678741455078,-17.256134033203125
1751013649939011800,3.07401171875,-393.9364013671875,-199.97927856445312,-17.0098876953125
1751013649949055000,3.084054931640625,-393.9694519042969,-200.55030822753906,-17.0682373046875
1751013649959096800,3.094096923828125,-393.98199462890625,-200.44198608398438,-17.060516357421875
1751013649969139700,3.1041396484375,-393.883544921875,-200.10574340820312,-17.173614501953125
1751013649979181800,3.114181884765625,-394.2375183105469,-200.07937622070312,-16.943023681640625
1751013649989224000,3.124223876953125,-393.9471435546875,-199.90188598632812,-17.0379638671875
1751013649999266800,3.134266845703125,-393.8001708984375,-200.07156372070312,-17.442855834960938
1751013650009309700,3.144309814453125,-393.90191650390625,-199.95712280273438,-17.044509887695312
1751013650019352000,3.15435205078125,-394.11260986328125,-200.3614959716797,-17.1744384765625
1751013650029393000,3.164392822265625,-394.1214904785156,-200.412109375,-17.1048583984375
1751013650039435000,3.17443505859375,-393.96856689453125,-200.0092010498047,-17.309371948242188
1751013650049475800,3.184475830078125,-394.2156677246094,-200.26141357421875,-17.023834228515625
1751013650059517000,3.194516845703125,-393.9510498046875,-200.3136444091797,-17.177093505859375
1751013650069559800,3.204559814453125,-393.51751708984375,-200.33920288085938,-16.87994384765625
1751013650079601000,3.214600830078125,-394.16229248046875,-200.36248779296875,-16.917312622070312
1751013650089641700,3.224641845703125,-394.1385498046875,-200.2676544189453,-16.87493896484375
1751013650099682800,3.234682861328125,-393.8357238769531,-200.07955932617188,-16.9676513671875
1751013650109724700,3.244724609375,-393.8056945800781,-200.15512084960938,-17.056289672851562
1751013650119765800,3.254765869140625,-393.5649719238281,-200.07493591308594,-16.910110473632812
1751013650129809000,3.264808837890625,-394.0162353515625,-199.91873168945312,-16.88848876953125
1751013650139850000,3.27485009765625,-393.7509765625,-200.49659729003906,-17.006118774414062
1751013650149890000,3.28489013671875,-393.7923583984375,-200.0523223876953,-16.486343383789062
1751013650159931000,3.294930908203125,-393.73028564453125,-200.39146423339844,-16.47552490234375
1751013650169972000,3.304971923828125,-393.37408447265625,-200.40496826171875,-16.687881469726562
1751013650180013800,3.315013916015625,-393.28570556640625,-200.19937133789062,-16.8055419921875
1751013650190055000,3.325054931640625,-393.6153869628906,-200.2230224609375,-16.573867797851562
1751013650200096800,3.3350966796875,-393.4630126953125,-200.49520874023438,-16.26556396484375
1751013650210137900,3.345137939453125,-393.60809326171875,-200.10693359375,-16.395416259765625
1751013650220179000,3.355178955078125,-393.864013671875,-200.47824096679688,-16.477035522460938
1751013650230220800,3.365220703125,-394.10308837890625,-200.2874298095703,-16.14666748046875
1751013650240264000,3.375263916015625,-393.63824462890625,-200.30938720703125,-16.402130126953125
1751013650250306800,3.385306884765625,-393.52496337890625,-200.4586181640625,-16.760528564453125
1751013650260349700,3.395349609375,-393.8525390625,-200.19517517089844,-16.629867553710938
1751013650270392800,3.405392822265625,-393.1080017089844,-200.1593017578125,-16.517257690429688
1751013650280435700,3.415435791015625,-393.4832763671875,-200.3707275390625,-16.724319458007812
1751013650290478800,3.425478759765625,-393.83087158203125,-200.05908203125,-16.420196533203125
1751013650300521700,3.435521728515625,-393.6717224121094,-200.0022430419922,-16.284133911132812
1751013650310564900,3.44556494140625,-393.68841552734375,-200.249267578125,-16.2144775390625
1751013650320608000,3.45560791015625,-393.7158508300781,-200.263427734375,-16.611602783203125
1751013650330649900,3.46564990234375,-393.8292236328125,-200.20465087890625,-16.538223266601562
1751013650340692700,3.475692626953125,-393.8140563964844,-200.14016723632812,-16.499114990234375
1751013650350734800,3.48573486328125,-393.3863220214844,-199.9931640625,-16.560256958007812
1751013650360777000,3.49577685546875,-393.9505615234375,-199.90774536132812,-16.65069580078125
1751013650370819800,3.50581982421875,-393.607666015625,-200.02003479003906,-16.539047241210938
1751013650380863000,3.515863037109375,-394.0992431640625,-199.97610473632812,-16.355712890625
1751013650390900700,3.525900634765625,-393.87554931640625,-200.05194091796875,-16.521240234375
1751013650400950000,3.535949951171875,-393.58660888671875,-200.21165466308594,-16.669662475585938
1751013650410993000,3.545992919921875,-393.8695068359375,-200.2561798095703,-16.44390869140625
1751013650421037000,3.556037109375,-394.33880615234375,-200.3323516845703,-16.516555786132812
1751013650431075800,3.566075927734375,-393.610107421875,-200.1822509765625,-16.192306518554688
1751013650441124900,3.576124755859375,-394.231689453125,-200.3750457763672,-16.3258056640625
1751013650451167700,3.586167724609375,-394.2166748046875,-200.376220703125,-16.543563842773438
1751013650461207000,3.59620703125,-394.1278076171875,-199.8369903564453,-16.107406616210938
1751013650471254800,3.6062548828125,-393.8136291503906,-200.2758331298828,-16.22357177734375
1751013650481298000,3.6162978515625,-394.161376953125,-200.32276916503906,-16.04669189453125
1751013650491341800,3.626341796875,-394.0467529296875,-200.2416229248047,-16.207351684570312
1751013650501385000,3.636385009765625,-393.87921142578125,-200.3860321044922,-16.14556884765625
1751013650511426800,3.6464267578125,-393.76531982421875,-200.38333129882812,-16.132888793945312
1751013650521470000,3.656469970703125,-393.84295654296875,-200.4197998046875,-15.969146728515625
1751013650531511800,3.66651171875,-394.10797119140625,-200.3848419189453,-16.017074584960938
1751013650541553000,3.676552978515625,-393.9761962890625,-200.35665893554688,-16.140945434570312
1751013650551597000,3.68659716796875,-393.70343017578125,-200.6193084716797,-16.226943969726562
1751013650561640000,3.696639892578125,-394.0326232910156,-200.45703125,-16.394134521484375
1751013650571681000,3.706680908203125,-393.7945251464844,-200.38853454589844,-16.412124633789062
1751013650581723100,3.71672314453125,-393.8283386230469,-200.0021514892578,-16.12481689453125
1751013650591765200,3.72676513671875,-393.8367919921875,-200.61431884765625,-16.177688598632812
1751013650601807000,3.73680712890625,-393.42645263671875,-200.59683227539062,-16.290145874023438
1751013650611848200,3.74684814453125,-393.4503173828125,-200.35523986816406,-16.19573974609375
1751013650621889000,3.756888916015625,-393.150146484375,-200.19822692871094,-16.442092895507812
1751013650631929000,3.76692919921875,-393.87957763671875,-199.9188232421875,-16.177291870117188
1751013650641969200,3.77696923828125,-394.276611328125,-200.12413024902344,-16.474716186523438
1751013650652010200,3.78701025390625,-394.0906066894531,-200.38536071777344,-16.38946533203125
1751013650662051300,3.79705126953125,-393.9000549316406,-200.06954956054688,-16.385223388671875
1751013650672092200,3.807092041015625,-394.25384521484375,-199.986083984375,-16.500198364257812
1751013650682134300,3.81713427734375,-393.25360107421875,-200.02589416503906,-16.094970703125
1751013650692176100,3.827176025390625,-393.5788269042969,-199.909423828125,-16.386688232421875
1751013650702218000,3.837218017578125,-394.26190185546875,-200.11172485351562,-16.480865478515625
1751013650712261000,3.84726123046875,-394.2796936035156,-200.38136291503906,-16.188461303710938
1751013650722304000,3.857303955078125,-394.3131103515625,-200.41380310058594,-16.393569946289062
1751013650732343300,3.86734326171875,-394.3885498046875,-199.69186401367188,-16.477020263671875
1751013650742391000,3.87739111328125,-394.37091064453125,-199.86273193359375,-16.335739135742188
1751013650752435200,3.887435302734375,-394.33380126953125,-199.98699951171875,-16.049102783203125
1751013650762478000,3.89747802734375,-393.9874267578125,-199.9359130859375,-15.993026733398438
1751013650772521000,3.90752099609375,-393.8056945800781,-199.85687255859375,-16.477340698242188
1751013650782562000,3.91756201171875,-393.7783203125,-200.3675079345703,-16.40264892578125
1751013650792602000,3.92760205078125,-394.1517639160156,-199.9852752685547,-16.247940063476562
1751013650802645200,3.937645263671875,-394.0775146484375,-199.7567596435547,-16.5325927734375
1751013650812686000,3.94768603515625,-393.7439880371094,-199.94955444335938,-16.004867553710938
1751013650822729200,3.957729248046875,-394.2332763671875,-199.96482849121094,-16.078689575195312
1751013650832772000,3.967772216796875,-393.91815185546875,-199.80845642089844,-16.110260009765625
1751013650842815200,3.977815185546875,-393.8712158203125,-199.83445739746094,-16.112472534179688
1751013650852858000,3.987858154296875,-393.99749755859375,-200.10964965820312,-16.202392578125
1751013650862901200,3.9979013671875,-393.27935791015625,-200.03187561035156,-16.552871704101562
1751013650872943000,4.007943115234375,-393.4443359375,-199.9181671142578,-16.501358032226562
1751013650882987000,4.017987060546875,-393.9720458984375,-200.33583068847656,-16.224746704101562
1751013650893030100,4.028030029296875,-393.6340026855469,-200.00547790527344,-16.238327026367188
1751013650903072000,4.038072021484375,-393.68896484375,-200.1031951904297,-16.07879638671875
1751013650913115100,4.048115234375,-393.7873840332031,-200.29249572753906,-16.208206176757812
1751013650923157200,4.0581572265625,-393.7071533203125,-199.82252502441406,-16.3001708984375
1751013650933201200,4.068201171875,-393.83935546875,-199.8105926513672,-16.657791137695312
1751013650943244300,4.078244384765625,-393.5381774902344,-200.09503173828125,-16.470413208007812
1751013650953287200,4.088287109375,-393.6709899902344,-200.29542541503906,-16.158432006835938
1751013650963329000,4.0983291015625,-393.8670654296875,-200.45730590820312,-16.6605224609375
1751013650973371100,4.10837109375,-394.26116943359375,-200.01393127441406,-16.302825927734375
1751013650983414300,4.118414306640625,-393.5782470703125,-200.08724975585938,-16.393081665039062
1751013650993458000,4.1284580078125,-394.355712890625,-200.11964416503906,-16.366409301757812
1751013651003501000,4.1385009765625,-394.15826416015625,-200.08807373046875,-16.1531982421875
1751013651013544200,4.148544189453125,-393.5181884765625,-200.06381225585938,-16.143081665039062
1751013651023588000,4.158588134765625,-393.80126953125,-199.9529571533203,-16.2200927734375
1751013651033632000,4.168632080078125,-393.9104309082031,-200.04002380371094,-16.275375366210938
1751013651043675100,4.178675048828125,-394.24481201171875,-199.84234619140625,-16.387237548828125
1751013651053719000,4.188718994140625,-394.2127685546875,-200.02413940429688,-16.507843017578125
1751013651063758000,4.198758056640625,-394.464599609375,-200.15855407714844,-16.189651489257812
1751013651073807000,4.20880712890625,-394.26727294921875,-200.20872497558594,-16.541671752929688
1751013651083848000,4.218847900390625,-394.23040771484375,-200.0460662841797,-16.066909790039062
1751013651093890300,4.228890380859375,-394.11865234375,-200.47071838378906,-16.214157104492188
1751013651103933200,4.23893310546875,-393.444580078125,-200.24542236328125,-16.574310302734375
1751013651113975000,4.24897509765625,-393.7752380371094,-200.465576171875,-16.3826904296875
1751013651124017000,4.259016845703125,-393.51800537109375,-200.60401916503906,-16.442916870117188
1751013651134059300,4.269059326171875,-393.6583557128906,-200.2794952392578,-16.385528564453125
1751013651144102100,4.27910205078125,-393.613037109375,-200.4128875732422,-16.22467041015625
1751013651154145000,4.28914501953125,-393.787841796875,-200.54995727539062,-16.659454345703125
1751013651164187100,4.299187255859375,-393.4393005371094,-200.34710693359375,-16.169525146484375
1751013651174227000,4.30922705078125,-394.2774353027344,-200.5421905517578,-16.60479736328125
1751013651184275200,4.319275146484375,-393.66558837890625,-200.42201232910156,-16.40179443359375
1751013651194318000,4.329318115234375,-393.98260498046875,-200.52978515625,-16.189071655273438
1751013651204360000,4.33935986328125,-393.94927978515625,-200.10813903808594,-16.512176513671875
1751013651214402300,4.34940234375,-393.8095397949219,-200.27005004882812,-16.498947143554688
1751013651224446000,4.359446044921875,-393.50115966796875,-200.33126831054688,-16.34844970703125
1751013651234489000,4.369489013671875,-393.64556884765625,-200.05787658691406,-16.163848876953125
1751013651244532200,4.3795322265625,-393.2688293457031,-200.4669189453125,-16.303756713867188
1751013651254574000,4.389573974609375,-394.08099365234375,-200.4505615234375,-16.431137084960938
1751013651264616000,4.399615966796875,-393.71484375,-200.23727416992188,-16.038589477539062
1751013651274658300,4.409658203125,-394.338134765625,-200.31832885742188,-16.336761474609375
1751013651284699100,4.41969921875,-393.74151611328125,-200.30462646484375,-16.585357666015625
1751013651294742000,4.429741943359375,-393.9464111328125,-200.32154846191406,-16.420242309570312
1751013651304784100,4.4397841796875,-393.6932067871094,-200.45956420898438,-16.526397705078125
1751013651314826000,4.449825927734375,-393.5357666015625,-200.2065887451172,-16.66741943359375
1751013651324868000,4.4598681640625,-393.4817199707031,-200.1510772705078,-16.449325561523438
1751013651334910200,4.46991015625,-393.3539733886719,-200.4541778564453,-16.544021606445312
1751013651344952000,4.4799521484375,-393.4127197265625,-200.32830810546875,-16.251266479492188
1751013651354996200,4.489996337890625,-393.849853515625,-200.28736877441406,-16.497268676757812
1751013651365038000,4.5000380859375,-393.4888000488281,-200.3240966796875,-16.588241577148438
1751013651375081000,4.5100810546875,-393.7477722167969,-199.99700927734375,-16.515228271484375
1751013651385123000,4.520123046875,-393.4874572753906,-200.49964904785156,-16.564834594726562
1751013651395165200,4.530165283203125,-393.40264892578125,-200.14208984375,-16.389923095703125
1751013651405208000,4.5402080078125,-393.51751708984375,-200.3418426513672,-16.584808349609375
1751013651415249200,4.550249267578125,-393.831787109375,-200.55966186523438,-16.334762573242188
1751013651425291000,4.560291015625,-393.3924560546875,-200.26443481445312,-16.419891357421875
1751013651435334100,4.570334228515625,-393.2768859863281,-199.67425537109375,-16.428909301757812
1751013651445379000,4.580379150390625,-393.6051025390625,-199.97755432128906,-16.429458618164062
1751013651455422200,4.590422119140625,-393.6265563964844,-199.87887573242188,-16.518280029296875
1751013651465464000,4.600464111328125,-393.8353576660156,-199.958984375,-16.380996704101562
1751013651475507000,4.6105068359375,-393.99237060546875,-200.3611297607422,-16.545822143554688
1751013651485550000,4.620550048828125,-393.7554016113281,-199.8360595703125,-16.281341552734375
1751013651495593000,4.630593017578125,-393.6105041503906,-199.9168243408203,-16.6219482421875
1751013651505636000,4.640635986328125,-393.507568359375,-200.20916748046875,-16.584152221679688
1751013651515678200,4.65067822265625,-393.5146484375,-200.095458984375,-16.394989013671875
1751013651525720000,4.660719970703125,-393.776611328125,-199.9617462158203,-16.519073486328125
1751013651535762200,4.67076220703125,-394.03094482421875,-199.5364227294922,-16.393280029296875
1751013651545805300,4.680805419921875,-393.85601806640625,-199.8691864013672,-16.602127075195312
1751013651555842800,4.6908427734375,-394.4788513183594,-200.08106994628906,-16.510360717773438
1751013651565887000,4.700886962890625,-393.8320617675781,-199.87493896484375,-16.343963623046875
1751013651575928800,4.7109287109375,-393.696044921875,-199.86167907714844,-16.536895751953125
1751013651585971700,4.7209716796875,-393.8906555175781,-199.8321075439453,-16.540740966796875
1751013651596014000,4.73101416015625,-394.14263916015625,-200.1848907470703,-16.4466552734375
1751013651606057000,4.741056884765625,-393.599609375,-200.5182342529297,-16.77099609375
1751013651616098800,4.751098876953125,-393.5994873046875,-199.7791748046875,-16.509597778320312
1751013651626140000,4.761139892578125,-394.46209716796875,-200.144287109375,-16.308853149414062
1751013651636181800,4.771181640625,-394.0715026855469,-199.9712371826172,-16.411865234375
1751013651646222800,4.781222900390625,-394.09295654296875,-200.254150390625,-16.663345336914062
1751013651656265000,4.791264892578125,-393.85040283203125,-200.07833862304688,-16.676605224609375
1751013651666307000,4.80130712890625,-393.8408508300781,-200.0825958251953,-16.616104125976562
1751013651676349000,4.811348876953125,-394.0738525390625,-200.01809692382812,-16.56195068359375
1751013651686390800,4.821390869140625,-393.41845703125,-200.0358428955078,-16.441314697265625
1751013651696433000,4.831432861328125,-394.002197265625,-199.6654815673828,-16.753341674804688
1751013651706473700,4.8414736328125,-393.8756408691406,-200.2722930908203,-16.242584228515625
1751013651716516000,4.85151611328125,-393.827392578125,-200.17388916015625,-16.421646118164062
1751013651726559000,4.86155908203125,-393.8836669921875,-200.09967041015625,-16.649856567382812
1751013651736600800,4.871600830078125,-394.18170166015625,-200.01792907714844,-16.312026977539062
1751013651746643000,4.881642822265625,-394.13348388671875,-200.17247009277344,-16.528533935546875
1751013651756685000,4.89168505859375,-393.8232421875,-200.1339874267578,-16.45068359375
1751013651766727000,4.901726806640625,-393.7742919921875,-199.52752685546875,-16.074371337890625
1751013651776764000,4.911763916015625,-394.48211669921875,-199.96311950683594,-16.613479614257812
1751013651786811000,4.921810791015625,-394.1673583984375,-199.8279571533203,-16.490280151367188
1751013651796852700,4.931852783203125,-394.76617431640625,-199.99691772460938,-16.21099853515625
1751013651806893800,4.941893798828125,-394.4881591796875,-199.97238159179688,-16.723175048828125
1751013651816936000,4.95193603515625,-394.4522705078125,-199.93789672851562,-16.505630493164062
1751013651826977000,4.96197705078125,-394.46533203125,-200.10475158691406,-16.548477172851562
1751013651837019000,4.972018798828125,-393.95184326171875,-199.94253540039062,-16.52789306640625
1751013651847060000,4.98206005859375,-394.51177978515625,-200.20428466796875,-16.79620361328125
1751013651857101000,4.99210107421875,-393.82379150390625,-199.85025024414062,-16.883499145507812
1751013651867143000,5.002142822265625,-393.7626953125,-199.9150390625,-16.655380249023438
1751013651877184800,5.012184814453125,-394.1370849609375,-199.96490478515625,-17.177276611328125
1751013651887225900,5.022225830078125,-394.1280212402344,-199.82789611816406,-16.8387451171875
1751013651897267000,5.032266845703125,-393.690185546875,-199.617431640625,-16.769134521484375
1751013651907307800,5.042307861328125,-394.51434326171875,-200.0459747314453,-16.902496337890625
1751013651917347800,5.052347900390625,-394.5959167480469,-199.6010284423828,-17.280715942382812
1751013651927389000,5.062388916015625,-394.284912109375,-199.6964111328125,-16.929656982421875
1751013651937430000,5.072429931640625,-393.9063720703125,-199.6802215576172,-16.997268676757812
1751013651947470800,5.082470947265625,-394.2742919921875,-199.64906311035156,-17.150238037109375
1751013651957512000,5.092511962890625,-394.73651123046875,-199.67234802246094,-17.463424682617188
1751013651967553000,5.102552978515625,-394.4100341796875,-200.02928161621094,-17.345809936523438
1751013651977596000,5.112595947265625,-394.56787109375,-199.79588317871094,-17.006103515625
1751013651987636700,5.12263671875,-394.2938232421875,-200.0145721435547,-17.1331787109375
1751013651997677800,5.132677734375,-394.70440673828125,-199.34356689453125,-17.245391845703125
1751013652007719000,5.142718994140625,-394.4627685546875,-199.58102416992188,-17.187149047851562
1751013652017759700,5.152759765625,-394.50091552734375,-199.55364990234375,-17.367111206054688
1751013652027802000,5.162802001953125,-394.50390625,-199.94656372070312,-16.948974609375
1751013652037843000,5.172843017578125,-394.42327880859375,-199.54754638671875,-16.74774169921875
1751013652047885000,5.182885009765625,-394.4484558105469,-199.8565673828125,-17.375396728515625
1751013652057926000,5.19292578125,-394.6220703125,-199.57168579101562,-16.987197875976562
1751013652067968000,5.202968017578125,-394.42987060546875,-199.4097137451172,-16.99127197265625
1751013652078009900,5.213009765625,-394.5134582519531,-199.25942993164062,-16.739013671875
1751013652088047000,5.223047119140625,-394.5502014160156,-199.44529724121094,-16.959976196289062
1751013652098094800,5.2330947265625,-394.666259765625,-199.27719116210938,-17.24346923828125
1751013652108137700,5.2431376953125,-394.59149169921875,-199.53086853027344,-16.896408081054688
1751013652118178800,5.2531787109375,-394.893798828125,-199.5709991455078,-16.923721313476562
1751013652128220000,5.263219970703125,-394.8831787109375,-199.8926544189453,-17.18365478515625
1751013652138261800,5.27326171875,-394.7320861816406,-199.5842742919922,-17.034271240234375
1751013652148304000,5.283303955078125,-394.6575927734375,-199.47512817382812,-16.861709594726562
1751013652158346000,5.293345947265625,-394.77191162109375,-199.60122680664062,-16.92144775390625
1751013652168383700,5.3033837890625,-394.5281982421875,-199.47332763671875,-16.9378662109375
1751013652178432000,5.313431884765625,-395.0118408203125,-199.2459716796875,-17.1002197265625
1751013652188473900,5.323473876953125,-394.9246826171875,-199.660400390625,-17.260528564453125
1751013652198516000,5.333515869140625,-394.6123046875,-199.7449951171875,-17.1927490234375
1751013652208557800,5.343557861328125,-394.92449951171875,-199.96951293945312,-17.1168212890625
1751013652218599700,5.353599609375,-394.864501953125,-199.61561584472656,-16.927490234375
1751013652228640800,5.363640869140625,-394.7900390625,-199.9931640625,-17.12200927734375
1751013652238681900,5.373681884765625,-394.77880859375,-199.6513214111328,-17.108917236328125
1751013652248722000,5.383721923828125,-394.96923828125,-199.57952880859375,-17.009185791015625
1751013652258764000,5.393763916015625,-395.24114990234375,-199.6678009033203,-17.123580932617188
1751013652268805000,5.40380517578125,-394.7674560546875,-199.7193145751953,-17.036163330078125
1751013652278846000,5.413845947265625,-394.37518310546875,-199.77810668945312,-17.132339477539062
1751013652288888000,5.42388818359375,-394.8780517578125,-199.56118774414062,-16.788772583007812
1751013652298930000,5.433929931640625,-394.49700927734375,-199.8542938232422,-16.90325927734375
1751013652308971800,5.4439716796875,-395.0860290527344,-199.6309356689453,-16.809188842773438
1751013652319015000,5.454014892578125,-395.61663818359375,-199.81988525390625,-16.792236328125
1751013652329057000,5.46405712890625,-394.9843444824219,-199.70571899414062,-17.10125732421875
1751013652339099000,5.474098876953125,-394.93756103515625,-199.64320373535156,-17.147308349609375
1751013652349141000,5.48414111328125,-394.3529357910156,-199.59500122070312,-16.858428955078125
1751013652359184100,5.49418408203125,-394.89544677734375,-199.6985626220703,-17.234573364257812
1751013652369226000,5.50422607421875,-394.6553955078125,-199.84584045410156,-17.113265991210938
1751013652379268900,5.514268798828125,-394.99639892578125,-199.7699432373047,-17.031280517578125
1751013652389310000,5.52431005859375,-394.7008056640625,-199.54833984375,-16.7783203125
1751013652399353900,5.534353759765625,-395.0342102050781,-199.56202697753906,-16.909042358398438
1751013652409396000,5.54439599609375,-395.05255126953125,-199.71971130371094,-17.087890625
1751013652419437800,5.554437744140625,-395.0799865722656,-199.70806884765625,-17.0867919921875
1751013652429480700,5.564480712890625,-395.1893310546875,-199.6295623779297,-16.975631713867188
1751013652439523000,5.574523193359375,-394.546630859375,-199.52857971191406,-17.07623291015625
1751013652449566000,5.58456591796875,-395.0574951171875,-199.77041625976562,-17.27813720703125
1751013652459608800,5.59460888671875,-394.661865234375,-199.5207977294922,-17.318374633789062
1751013652469652000,5.60465185546875,-394.96624755859375,-199.57760620117188,-17.286788940429688
1751013652479694800,5.61469482421875,-395.1798095703125,-199.6063232421875,-17.151947021484375
1751013652489736700,5.62473681640625,-394.90179443359375,-199.65341186523438,-17.245132446289062
1751013652499779000,5.634779052734375,-394.9119873046875,-199.65281677246094,-16.935012817382812
1751013652509822700,5.64482275390625,-394.66876220703125,-199.3762969970703,-16.926055908203125
1751013652519864800,5.65486474609375,-394.3935546875,-199.74075317382812,-17.007614135742188
1751013652529907000,5.664906982421875,-394.7100830078125,-199.79713439941406,-16.968551635742188
1751013652539948000,5.674947998046875,-394.72930908203125,-199.9713897705078,-17.337432861328125
1751013652549990000,5.684989990234375,-394.8931579589844,-199.6559600830078,-17.07379150390625
1751013652560031200,5.69503125,-394.9195556640625,-199.45651245117188,-16.941864013671875
1751013652570072000,5.705072021484375,-394.3752746582031,-199.57955932617188,-16.997756958007812
1751013652580116000,5.715115966796875,-394.95416259765625,-199.9012451171875,-17.251068115234375
1751013652590158300,5.725158447265625,-394.5059814453125,-199.83863830566406,-17.003265380859375
1751013652600200200,5.7352001953125,-394.63873291015625,-199.90353393554688,-16.932861328125
1751013652610242000,5.745241943359375,-395.17401123046875,-199.86021423339844,-17.229354858398438
1751013652620284200,5.7552841796875,-394.71612548828125,-200.00440979003906,-17.4384765625
1751013652630326000,5.765325927734375,-394.2773132324219,-199.7362060546875,-17.231582641601562
1751013652640367000,5.7753671875,-394.6864013671875,-199.8587646484375,-17.545089721679688
1751013652650410200,5.78541015625,-394.36151123046875,-199.8324432373047,-17.144058227539062
1751013652660453000,5.795453125,-394.71771240234375,-199.85321044921875,-17.254180908203125
1751013652670496300,5.805496337890625,-394.53912353515625,-200.10350036621094,-17.154953002929688
1751013652680539100,5.8155390625,-394.3372497558594,-199.62081909179688,-17.24365234375
1751013652690582000,5.82558203125,-394.84429931640625,-199.5625,-17.023666381835938
1751013652700625200,5.835625244140625,-394.8297119140625,-199.7432861328125,-17.374771118164062
1751013652710667000,5.8456669921875,-394.81976318359375,-199.70448303222656,-17.244918823242188
1751013652720709000,5.855709228515625,-394.76513671875,-199.70216369628906,-17.285781860351562
1751013652730751000,5.8657509765625,-394.38763427734375,-199.27845764160156,-16.870208740234375
1751013652740793300,5.87579345703125,-394.6531982421875,-199.69232177734375,-17.4532470703125
1751013652750837000,5.8858369140625,-394.9689025878906,-199.5917510986328,-17.401321411132812
1751013652760879000,5.895879150390625,-394.5365295410156,-199.44728088378906,-17.407699584960938
1751013652770921200,5.905921142578125,-394.73138427734375,-199.76217651367188,-17.259521484375
1751013652780963000,5.915963134765625,-394.52935791015625,-199.78533935546875,-17.1085205078125
1751013652791003100,5.926003173828125,-394.60858154296875,-199.5789337158203,-16.735427856445312
1751013652801041200,5.936041259765625,-394.71099853515625,-199.60414123535156,-17.153488159179688
1751013652811088100,5.946088134765625,-394.5103759765625,-199.61073303222656,-17.106857299804688
1751013652821130000,5.9561298828125,-394.4215087890625,-199.43617248535156,-16.967819213867188
1751013652831172400,5.96617236328125,-394.8128662109375,-199.69482421875,-16.678192138671875
1751013652841214200,5.976214111328125,-394.8294372558594,-199.53302001953125,-17.020721435546875
1751013652851258000,5.986258056640625,-394.88018798828125,-199.7054443359375,-17.134674072265625
1751013652861302000,5.996302001953125,-394.6552734375,-199.58926391601562,-16.921890258789062
1751013652871346200,6.00634619140625,-394.7664794921875,-199.84600830078125,-17.015655517578125
1751013652881390000,6.01639013671875,-394.9317626953125,-199.56629943847656,-17.112274169921875
1751013652891434200,6.026434326171875,-394.8948059082031,-199.61668395996094,-17.050247192382812
1751013652901476000,6.03647607421875,-394.2840576171875,-199.45458984375,-16.635345458984375
1751013652911519000,6.04651904296875,-394.987548828125,-199.5845489501953,-16.671783447265625
1751013652921562000,6.05656201171875,-394.513671875,-199.62173461914062,-16.666946411132812
1751013652931605000,6.06660498046875,-394.22943115234375,-199.59291076660156,-16.735198974609375
1751013652941648100,6.076648193359375,-394.5622253417969,-199.81027221679688,-16.72625732421875
1751013652951692000,6.086692138671875,-394.5171203613281,-199.94940185546875,-16.6241455078125
1751013652961735000,6.09673486328125,-394.44989013671875,-200.06881713867188,-16.63824462890625
1751013652971779000,6.106779052734375,-394.1925048828125,-199.9694061279297,-16.625686645507812
1751013652981822000,6.116822021484375,-394.6317138671875,-199.91317749023438,-16.503372192382812
1751013652991866000,6.1268662109375,-394.22332763671875,-199.71994018554688,-16.46038818359375
1751013653001910300,6.13691015625,-394.0928039550781,-199.8138427734375,-16.529617309570312
1751013653011952000,6.1469521484375,-394.4671936035156,-199.79730224609375,-16.469558715820312
1751013653021995000,6.1569951171875,-394.13824462890625,-199.4923858642578,-16.490798950195312
1751013653032037000,6.167037109375,-394.20184326171875,-199.55465698242188,-16.278564453125
1751013653042079200,6.177079345703125,-393.97637939453125,-199.59320068359375,-16.678924560546875
1751013653052123100,6.187123046875,-394.52227783203125,-199.5666046142578,-16.692123413085938
1751013653062167000,6.1971669921875,-394.627197265625,-199.55152893066406,-16.553009033203125
1751013653072210200,6.207210205078125,-394.24285888671875,-199.65347290039062,-16.767837524414062
1751013653082252000,6.217251953125,-394.48516845703125,-199.6853790283203,-16.351043701171875
1751013653092295200,6.227295166015625,-394.16693115234375,-199.5316162109375,-16.360916137695312
1751013653102337000,6.2373369140625,-394.686767578125,-199.83311462402344,-16.703155517578125
1751013653112379100,6.247379150390625,-394.7647705078125,-199.6304473876953,-16.414886474609375
1751013653122422300,6.25742236328125,-394.4998779296875,-199.78025817871094,-16.28094482421875
1751013653132465200,6.267465087890625,-395.0943603515625,-199.6795654296875,-16.203689575195312
1751013653142508000,6.277508056640625,-393.8930358886719,-199.62562561035156,-16.677291870117188
1751013653152550100,6.287550048828125,-393.84735107421875,-199.39581298828125,-16.52264404296875
1751013653162593000,6.297593017578125,-394.4158935546875,-199.45729064941406,-16.178009033203125
1751013653172636200,6.30763623046875,-394.3133850097656,-199.68270874023438,-16.390853881835938
1751013653182678300,6.31767822265625,-394.55322265625,-199.3882598876953,-16.224853515625
1751013653192721200,6.32772119140625,-394.623779296875,-199.6274871826172,-16.807525634765625
1751013653202764000,6.337763916015625,-394.94573974609375,-199.43728637695312,-16.6121826171875
1751013653212806100,6.34780615234375,-394.806396484375,-199.3607177734375,-16.548599243164062
1751013653222850000,6.35785009765625,-394.80792236328125,-199.2566375732422,-16.308837890625
1751013653232892200,6.36789208984375,-394.1644287109375,-199.40911865234375,-16.291824340820312
1751013653242935300,6.377935302734375,-394.22235107421875,-199.54400634765625,-16.510482788085938
1751013653252978200,6.387978271484375,-394.4310302734375,-199.26632690429688,-16.600860595703125
1751013653263021300,6.398021240234375,-394.45703125,-199.1424102783203,-16.461685180664062
1751013653273064200,6.408064208984375,-394.17498779296875,-199.26571655273438,-16.618896484375
1751013653283107000,6.418107177734375,-394.900634765625,-199.1464080810547,-16.382583618164062
1751013653293149200,6.428149169921875,-394.09124755859375,-199.16070556640625,-16.261932373046875
1751013653303190300,6.438190185546875,-393.99591064453125,-199.22369384765625,-16.287826538085938
1751013653313232100,6.448232177734375,-395.14215087890625,-199.2865753173828,-16.481613159179688
1751013653323274200,6.458274169921875,-394.56658935546875,-199.2407989501953,-16.262985229492188
1751013653333315000,6.468315185546875,-394.6096496582031,-199.2193603515625,-16.1378173828125
1751013653343357200,6.478357177734375,-394.2481384277344,-199.27120971679688,-16.28021240234375
1751013653353399000,6.48839892578125,-394.71435546875,-198.98965454101562,-16.38275146484375
1751013653363442200,6.498442138671875,-394.748291015625,-199.03810119628906,-16.441116333007812
1751013653373485000,6.508485107421875,-394.6749267578125,-198.77960205078125,-16.2635498046875
1751013653383528200,6.518528076171875,-394.597900390625,-198.9252166748047,-16.298019409179688
1751013653393570300,6.5285703125,-394.65020751953125,-199.1672821044922,-16.455642700195312
1751013653403613200,6.53861328125,-394.3089599609375,-198.9738311767578,-16.047225952148438
1751013653413655000,6.548655029296875,-394.57550048828125,-198.9971160888672,-16.243728637695312
1751013653423697200,6.558697265625,-394.0140686035156,-199.0484161376953,-15.99322509765625
1751013653433739300,6.5687392578125,-394.78466796875,-199.148681640625,-16.23565673828125
1751013653443781000,6.578781005859375,-394.32403564453125,-199.1352081298828,-16.098220825195312
1751013653453823000,6.588822998046875,-394.64971923828125,-199.3450164794922,-16.277175903320312
1751013653463865000,6.598864990234375,-394.69732666015625,-199.11392211914062,-16.149215698242188
1751013653473908200,6.608908203125,-394.6833801269531,-198.7875213623047,-16.383377075195312
1751013653483952000,6.6189521484375,-394.34857177734375,-199.063720703125,-16.202545166015625
1751013653493996000,6.62899609375,-394.11260986328125,-199.2437744140625,-16.217666625976562
1751013653504040000,6.6390400390625,-394.1074523925781,-199.18626403808594,-16.142440795898438
1751013653514080000,6.649080078125,-394.90460205078125,-199.04461669921875,-16.226470947265625
1751013653524130000,6.659130126953125,-394.6463623046875,-199.11129760742188,-16.526214599609375
1751013653534173000,6.6691728515625,-394.2392883300781,-199.1006317138672,-16.143295288085938
1751013653544216000,6.679216064453125,-394.5970458984375,-199.09104919433594,-16.28338623046875
1751013653554259000,6.689259033203125,-394.5240783691406,-198.89976501464844,-16.151473999023438
1751013653564302000,6.699302001953125,-394.68133544921875,-199.1798858642578,-16.100387573242188
1751013653574346000,6.709345947265625,-394.04669189453125,-199.23471069335938,-16.271759033203125
1751013653584389000,6.71938916015625,-394.5050048828125,-198.99545288085938,-15.948013305664062
1751013653594431200,6.72943115234375,-394.7542724609375,-199.04495239257812,-16.362548828125
1751013653604469000,6.739468994140625,-394.144287109375,-199.24525451660156,-16.259979248046875
1751013653614517200,6.749517333984375,-394.6974792480469,-198.98277282714844,-16.295120239257812
1751013653624561200,6.75956103515625,-394.23779296875,-199.0904083251953,-16.383224487304688
1751013653634605000,6.76960498046875,-394.1370849609375,-199.12350463867188,-16.550765991210938
1751013653644647200,6.779647216796875,-394.15106201171875,-199.2154083251953,-16.073699951171875
1751013653654689000,6.78968896484375,-394.47235107421875,-199.35574340820312,-16.306167602539062
1751013653664731100,6.799731201171875,-394.0306396484375,-199.2233428955078,-16.011825561523438
1751013653674772000,6.80977197265625,-394.40057373046875,-199.16978454589844,-16.500457763671875
1751013653684813000,6.81981298828125,-393.9809875488281,-199.06427001953125,-16.001007080078125
1751013653694855200,6.829855224609375,-394.4068603515625,-199.15512084960938,-15.955413818359375
1751013653704897300,6.839897216796875,-394.1200866699219,-199.2465057373047,-16.075836181640625
1751013653714939100,6.849939208984375,-394.3402099609375,-199.13954162597656,-15.747039794921875
1751013653724981000,6.85998095703125,-394.40216064453125,-199.01524353027344,-16.201309204101562
1751013653735023000,6.870023193359375,-394.17169189453125,-199.2364044189453,-16.1302490234375
1751013653745065200,6.880065185546875,-394.14764404296875,-199.23838806152344,-16.061782836914062
1751013653755107000,6.890107177734375,-394.4600524902344,-199.0062255859375,-16.26226806640625
1751013653765151000,6.90015087890625,-394.0030517578125,-199.17503356933594,-15.844314575195312
1751013653775195100,6.910195068359375,-394.22076416015625,-199.0657958984375,-16.128005981445312
1751013653785238000,6.920238037109375,-394.12139892578125,-199.0936279296875,-15.86114501953125
1751013653795277000,6.930277099609375,-393.8988037109375,-199.10475158691406,-16.204696655273438
1751013653805325000,6.940324951171875,-394.49658203125,-198.85011291503906,-16.026397705078125
1751013653815368200,6.9503681640625,-394.37982177734375,-199.1295928955078,-15.85272216796875
1751013653825410000,6.96041015625,-394.2900695800781,-199.60061645507812,-16.266128540039062
1751013653835451100,6.970451171875,-394.3673095703125,-199.4899139404297,-16.046630859375
1751013653845494000,6.980493896484375,-394.09625244140625,-199.147216796875,-16.351959228515625
1751013653855536000,6.9905361328125,-394.54302978515625,-199.06886291503906,-16.1724853515625
1751013653865578200,7.000578125,-393.8018798828125,-199.1983642578125,-16.530258178710938
1751013653875619000,7.010619140625,-394.27069091796875,-199.1881561279297,-16.0733642578125
1751013653885660200,7.02066015625,-394.36016845703125,-199.21705627441406,-16.237777709960938
1751013653895703000,7.030703125,-394.14788818359375,-199.15589904785156,-15.936294555664062
1751013653905746200,7.04074609375,-394.56549072265625,-199.24398803710938,-16.160598754882812
1751013653915789000,7.0507890625,-394.3262023925781,-199.4889373779297,-15.883712768554688
1751013653925828000,7.060828125,-393.9561767578125,-199.42245483398438,-16.09381103515625
1751013653935876000,7.0708759765625,-394.4219970703125,-199.48179626464844,-16.24993896484375
1751013653945919000,7.0809189453125,-393.50579833984375,-199.750732421875,-15.933395385742188
1751013653955962000,7.090962158203125,-393.82080078125,-199.5725860595703,-15.730865478515625
1751013653966005000,7.1010048828125,-393.235107421875,-199.58599853515625,-15.951950073242188
1751013653976048000,7.111048095703125,-394.09564208984375,-199.2353515625,-16.096450805664062
1751013653986090200,7.12109033203125,-394.6827697753906,-200.021484375,-15.8544921875
1751013653996133000,7.131133056640625,-394.4485168457031,-199.31068420410156,-16.130813598632812
1751013654006175000,7.141175048828125,-393.96575927734375,-199.4469451904297,-15.890823364257812
1751013654016217300,7.15121728515625,-394.2265625,-199.6393280029297,-16.2672119140625
1751013654026258200,7.161258056640625,-394.56005859375,-199.52139282226562,-15.8319091796875
1751013654036300300,7.17130029296875,-394.38775634765625,-199.84417724609375,-16.259735107421875
1751013654046342100,7.181342041015625,-393.8858642578125,-199.80841064453125,-16.0435791015625
1751013654056383200,7.19138330078125,-393.8542175292969,-199.50143432617188,-16.08831787109375
1751013654066424000,7.201424072265625,-394.23651123046875,-199.44444274902344,-16.07452392578125
1751013654076464000,7.211464111328125,-394.0203857421875,-199.43199157714844,-16.197113037109375
1751013654086506200,7.22150634765625,-393.8529052734375,-199.5267333984375,-16.200164794921875
1751013654096548000,7.231548095703125,-393.83795166015625,-199.4581298828125,-16.20391845703125
1751013654106590000,7.24158984375,-393.9305419921875,-199.94546508789062,-16.039535522460938
1751013654116633000,7.251633056640625,-393.46240234375,-199.54168701171875,-16.0321044921875
1751013654126675200,7.26167529296875,-394.2145080566406,-199.57579040527344,-16.30438232421875
1751013654136718000,7.271718017578125,-393.83233642578125,-199.22666931152344,-16.320220947265625
1751013654146760200,7.28176025390625,-393.94927978515625,-199.76031494140625,-16.1971435546875
1751013654156803000,7.291802978515625,-393.75030517578125,-199.49171447753906,-16.235824584960938
1751013654166845200,7.30184521484375,-394.113525390625,-199.27813720703125,-16.066314697265625
1751013654176887000,7.311886962890625,-394.18939208984375,-198.98985290527344,-16.218276977539062
1751013654186929200,7.32192919921875,-393.9901123046875,-199.12904357910156,-16.049026489257812
1751013654196971300,7.33197119140625,-393.73944091796875,-199.38864135742188,-16.390090942382812
1751013654207013000,7.34201318359375,-393.6519470214844,-199.30328369140625,-16.367950439453125
1751013654217054200,7.35205419921875,-393.70263671875,-199.1187286376953,-16.294021606445312
1751013654227097000,7.36209716796875,-394.18896484375,-199.3980712890625,-16.157928466796875
1751013654237139200,7.37213916015625,-393.742431640625,-199.15135192871094,-16.11724853515625
1751013654247179000,7.382178955078125,-393.8570251464844,-199.04421997070312,-16.029754638671875
1751013654257221000,7.39222119140625,-394.07427978515625,-198.97853088378906,-16.077484130859375
1751013654267263200,7.40226318359375,-393.492919921875,-199.05673217773438,-16.146438598632812
1751013654277305000,7.41230517578125,-394.2492980957031,-199.48858642578125,-15.73028564453125
1751013654287346200,7.42234619140625,-394.26806640625,-199.39346313476562,-16.011474609375
1751013654297388000,7.432387939453125,-393.9101257324219,-199.46939086914062,-16.222305297851562
1751013654307430100,7.44243017578125,-393.45941162109375,-199.20492553710938,-15.975784301757812
1751013654317472300,7.45247216796875,-394.45916748046875,-199.61997985839844,-16.2353515625
1751013654327514000,7.46251416015625,-394.16705322265625,-199.40069580078125,-16.5008544921875
1751013654337557000,7.472556884765625,-393.97564697265625,-199.4657745361328,-16.07318115234375
1751013654347598000,7.48259814453125,-393.9938659667969,-199.4531707763672,-15.971481323242188
1751013654357640000,7.492639892578125,-394.76849365234375,-199.1386260986328,-16.218276977539062
1751013654367682300,7.502682373046875,-394.3509521484375,-199.07945251464844,-16.210952758789062
1751013654377725200,7.51272509765625,-394.8739318847656,-199.16046142578125,-16.0440673828125
1751013654387767000,7.52276708984375,-394.4622802734375,-199.31201171875,-16.178070068359375
1751013654397808000,7.53280810546875,-394.20654296875,-199.35923767089844,-16.358139038085938
1751013654407850000,7.54285009765625,-394.08111572265625,-199.1763458251953,-16.249038696289062
1751013654417891000,7.55289111328125,-394.1990051269531,-199.35350036621094,-16.634933471679688
1751013654427933200,7.56293310546875,-394.3377380371094,-199.21542358398438,-16.253433227539062
1751013654437974300,7.572974365234375,-394.28387451171875,-199.22718811035156,-16.430999755859375
1751013654448017200,7.58301708984375,-394.33428955078125,-199.33233642578125,-16.454574584960938
1751013654458059000,7.59305908203125,-394.622314453125,-199.22840881347656,-16.386886596679688
1751013654468102100,7.60310205078125,-394.24200439453125,-199.4436492919922,-16.11846923828125
1751013654478145000,7.61314501953125,-394.4696044921875,-199.38882446289062,-16.112213134765625
1751013654488188000,7.62318798828125,-394.162353515625,-199.15235900878906,-15.9029541015625
1751013654498232000,7.633232177734375,-393.993896484375,-199.0178985595703,-16.227645874023438
1751013654508275000,7.64327490234375,-394.2451171875,-199.6528778076172,-16.253616333007812
1751013654518318000,7.653318115234375,-394.37078857421875,-199.40023803710938,-16.54327392578125
1751013654528357000,7.663357177734375,-394.34173583984375,-199.25454711914062,-16.426483154296875
1751013654538406100,7.67340625,-394.5642395019531,-199.40399169921875,-16.1920166015625
1751013654548451000,7.683451171875,-393.7966613769531,-199.65916442871094,-15.843032836914062
1751013654558495500,7.69349560546875,-393.96270751953125,-199.13172912597656,-16.174835205078125
1751013654568538400,7.703538330078125,-394.2547607421875,-199.43821716308594,-16.006637573242188
1751013654578582500,7.71358251953125,-394.0859375,-199.61355590820312,-16.20086669921875
1751013654588625400,7.72362548828125,-394.243408203125,-199.5308837890625,-15.8214111328125
1751013654598669600,7.733669677734375,-394.42156982421875,-199.6041717529297,-16.245391845703125
1751013654608713500,7.74371337890625,-394.49530029296875,-199.46885681152344,-16.03387451171875
1751013654618756600,7.753756591796875,-393.6199951171875,-199.1973876953125,-16.2412109375
1751013654628800500,7.763800537109375,-394.350341796875,-199.25347900390625,-16.059051513671875
1751013654638844400,7.773844482421875,-393.9307556152344,-199.34005737304688,-16.1514892578125
1751013654648886500,7.783886474609375,-394.0721435546875,-199.22723388671875,-15.99591064453125
1751013654658928400,7.793928466796875,-394.07037353515625,-199.48870849609375,-15.99945068359375
1751013654668971500,7.803971435546875,-394.13970947265625,-199.8103790283203,-16.1895751953125
1751013654679014400,7.814014404296875,-394.03424072265625,-199.42340087890625,-16.020462036132812
1751013654689056500,7.824056396484375,-394.1580810546875,-199.6788787841797,-16.2115478515625
1751013654699098600,7.8340986328125,-394.4142150878906,-199.52838134765625,-16.167953491210938
1751013654709140500,7.844140380859375,-394.23907470703125,-199.6180877685547,-16.378189086914062
1751013654719183400,7.854183349609375,-393.8140563964844,-199.38006591796875,-15.93780517578125
1751013654729227500,7.8642275390625,-393.7755126953125,-199.64405822753906,-15.95880126953125
1751013654739268600,7.8742685546875,-394.0985107421875,-199.67295837402344,-16.259567260742188
1751013654749310500,7.884310546875,-394.417236328125,-199.42733764648438,-16.112258911132812
1751013654759351600,7.8943515625,-394.9310607910156,-199.56141662597656,-16.04620361328125
1751013654769393400,7.904393310546875,-394.6205139160156,-199.4735870361328,-16.1658935546875
1751013654779435500,7.914435546875,-394.86492919921875,-199.4229278564453,-16.24969482421875
1751013654789477600,7.9244775390625,-394.5954895019531,-199.8667449951172,-16.234848022460938
1751013654799519500,7.93451953125,-393.9877014160156,-199.6068572998047,-16.135787963867188
1751013654809561600,7.9445615234375,-394.69830322265625,-199.4467010498047,-15.932876586914062
1751013654819603500,7.954603515625,-393.970458984375,-199.22579956054688,-16.27850341796875
1751013654829645300,7.964645263671875,-394.63543701171875,-199.79425048828125,-16.309707641601562
1751013654839686400,7.974686279296875,-394.3055419921875,-199.6256103515625,-16.176239013671875
1751013654849727500,7.9847275390625,-394.4713134765625,-199.825439453125,-16.410491943359375
1751013654859769600,7.99476953125,-394.19464111328125,-199.3604736328125,-16.260665893554688
1751013654869809400,8.004809326171875,-394.91943359375,-199.76902770996094,-16.191268920898438
1751013654879851500,8.0148515625,-394.30169677734375,-199.3949432373047,-16.269332885742188
1751013654889892600,8.024892578125,-394.1184997558594,-199.5196075439453,-15.774581909179688
1751013654899934500,8.0349345703125,-394.72589111328125,-199.8809814453125,-16.265655517578125
1751013654909976600,8.0449765625,-394.4740295410156,-199.82469177246094,-16.393783569335938
1751013654920019500,8.05501953125,-394.8283386230469,-199.61000061035156,-16.318450927734375
1751013654930061600,8.0650615234375,-394.296142578125,-199.84657287597656,-16.575271606445312
1751013654940103400,8.075103515625,-394.6455383300781,-200.07156372070312,-16.525970458984375
1751013654950146600,8.085146484375,-394.47052001953125,-200.092529296875,-16.579269409179688
1751013654960189700,8.095189697265624,-394.4031982421875,-199.42337036132812,-16.372711181640625
1751013654970232600,8.105232666015626,-394.5328674316406,-199.95541381835938,-16.429885864257812
1751013654980274400,8.1152744140625,-394.3143005371094,-199.6842803955078,-16.370285034179688
1751013654990315500,8.1253154296875,-394.5809020996094,-199.89495849609375,-16.432342529296875
1751013655000356400,8.1353564453125,-394.30682373046875,-199.5921173095703,-16.320465087890625
1751013655010397400,8.1453974609375,-394.109130859375,-199.60482788085938,-15.990859985351562
1751013655020438500,8.1554384765625,-394.3343505859375,-199.5335693359375,-16.027496337890625
1751013655030479400,8.165479248046875,-394.71771240234375,-199.8662109375,-16.0484619140625
1751013655040520400,8.1755205078125,-394.524658203125,-199.519775390625,-16.394424438476562
1751013655050562300,8.185562255859375,-394.6997985839844,-199.8701171875,-16.164443969726562
1751013655060604700,8.195604736328125,-394.056396484375,-199.4966583251953,-16.1904296875
1751013655070646500,8.205646484375,-394.36700439453125,-199.9520721435547,-16.121658325195312
1751013655080690400,8.2156904296875,-394.67144775390625,-199.7692108154297,-16.45855712890625
1751013655090733600,8.225733642578126,-393.9544677734375,-199.6511688232422,-15.953521728515625
1751013655100775400,8.235775390625,-394.47808837890625,-199.9105682373047,-16.039962768554688
1751013655110817500,8.245817626953125,-394.50115966796875,-199.8535614013672,-15.950347900390625
1751013655120859400,8.255859375,-394.0693054199219,-199.6621551513672,-16.113677978515625
1751013655130904300,8.265904296875,-393.44317626953125,-199.6320037841797,-16.016998291015625
1751013655140947500,8.275947509765626,-394.2889709472656,-199.80136108398438,-16.256607055664062
1751013655150991400,8.285991455078126,-393.77392578125,-199.8718719482422,-16.122665405273438
1751013655161035500,8.296035400390625,-394.2120056152344,-199.98233032226562,-15.994903564453125
1751013655171077400,8.306077392578125,-393.9725341796875,-199.84268188476562,-15.876678466796875
1751013655181120500,8.31612060546875,-394.3851318359375,-199.61622619628906,-16.244369506835938
1751013655191163600,8.32616357421875,-393.9313049316406,-199.66220092773438,-16.012985229492188
1751013655201206500,8.33620654296875,-394.5869140625,-199.5713653564453,-16.007095336914062
1751013655211248400,8.346248291015625,-394.6954040527344,-199.61410522460938,-16.139633178710938
1751013655221290500,8.35629052734375,-394.02410888671875,-199.74896240234375,-15.996719360351562
1751013655231332600,8.36633251953125,-394.05859375,-199.91758728027344,-16.155288696289062
1751013655241374500,8.37637451171875,-394.31121826171875,-199.8231964111328,-16.354568481445312
1751013655251416300,8.386416259765625,-394.3026123046875,-200.0392608642578,-16.572021484375
1751013655261457400,8.39645751953125,-393.8998718261719,-199.8129119873047,-16.16693115234375
1751013655271500500,8.40650048828125,-394.134033203125,-199.82699584960938,-16.23260498046875
1751013655281542700,8.416542724609375,-393.9779052734375,-199.7243194580078,-15.832443237304688
1751013655291584500,8.42658447265625,-394.01080322265625,-199.57859802246094,-16.108734130859375
1751013655301626400,8.43662646484375,-394.0923156738281,-199.90057373046875,-16.18328857421875
1751013655311668500,8.44666845703125,-394.365234375,-199.70883178710938,-16.161224365234375
1751013655321710600,8.456710693359375,-394.0101318359375,-199.65576171875,-16.028411865234375
1751013655331751700,8.466751708984376,-394.75445556640625,-199.54559326171875,-15.94696044921875
1751013655341794600,8.476794677734375,-394.17022705078125,-199.4125213623047,-15.96942138671875
1751013655351834600,8.486834716796874,-393.9945068359375,-199.94680786132812,-16.11297607421875
1751013655361877500,8.49687744140625,-393.62115478515625,-199.58782958984375,-16.088790893554688
1751013655371920600,8.506920654296875,-393.8627624511719,-199.56497192382812,-16.077651977539062
1751013655381958400,8.51695849609375,-393.5721130371094,-199.41148376464844,-15.96807861328125
1751013655392007700,8.527007568359375,-394.3497314453125,-199.60635375976562,-16.123077392578125
1751013655402046500,8.53704638671875,-394.2451171875,-199.85516357421875,-16.422607421875
1751013655412095500,8.547095458984375,-394.3532409667969,-199.59873962402344,-15.940750122070312
1751013655422139400,8.557139404296874,-394.1440734863281,-199.7202911376953,-16.466934204101562
1751013655432184600,8.5671845703125,-394.1170654296875,-199.5746307373047,-16.237106323242188
1751013655442227700,8.577227783203124,-394.20147705078125,-199.74122619628906,-16.37432861328125
1751013655452270600,8.5872705078125,-394.2563781738281,-199.7007293701172,-16.191925048828125
1751013655462313500,8.5973134765625,-393.8309631347656,-199.82704162597656,-16.28448486328125
1751013655472356600,8.607356689453125,-394.0639343261719,-199.73226928710938,-16.237579345703125
1751013655482398500,8.6173984375,-394.44757080078125,-199.819580078125,-16.033218383789062
1751013655492440600,8.627440673828126,-394.519775390625,-199.88746643066406,-16.343978881835938
1751013655502482400,8.637482421875,-394.42730712890625,-199.8892822265625,-16.52777099609375
1751013655512523500,8.6475234375,-393.8431396484375,-199.67608642578125,-16.288253784179688
1751013655522565600,8.657565673828126,-393.4716796875,-199.61837768554688,-16.417678833007812
1751013655532608500,8.6676083984375,-393.7982177734375,-199.7904510498047,-16.166046142578125
1751013655542651400,8.6776513671875,-393.9640197753906,-199.66983032226562,-16.26129150390625
1751013655552692500,8.6876923828125,-393.76275634765625,-199.59042358398438,-15.983795166015625
1751013655562734600,8.697734619140626,-394.14013671875,-199.72035217285156,-16.287887573242188
1751013655572776400,8.7077763671875,-393.9912109375,-199.8234100341797,-16.463119506835938
1751013655582818600,8.717818603515624,-394.138916015625,-199.60438537597656,-16.2913818359375
1751013655592860400,8.7278603515625,-394.379150390625,-199.93125915527344,-16.170303344726562
1751013655602901500,8.737901611328125,-393.3728332519531,-200.00253295898438,-16.138092041015625
1751013655612943400,8.747943359375,-394.06591796875,-199.7893524169922,-16.150146484375
1751013655622985700,8.75798583984375,-393.7696228027344,-199.70703125,-16.237457275390625
1751013655633026600,8.768026611328125,-394.0701904296875,-199.85073852539062,-16.437652587890625
1751013655643067600,8.778067626953124,-394.1249084472656,-199.95095825195312,-16.430191040039062
1751013655653107500,8.788107421875,-394.2942810058594,-199.93038940429688,-16.257431030273438
1751013655663148300,8.798148193359374,-394.05426025390625,-199.66586303710938,-16.215866088867188
1751013655673191400,8.80819140625,-394.2950134277344,-199.76422119140625,-16.528717041015625
1751013655683234600,8.818234619140625,-393.835205078125,-199.86941528320312,-16.228546142578125
1751013655693277700,8.828277587890625,-393.84027099609375,-199.75108337402344,-16.254928588867188
1751013655703321300,8.8383212890625,-393.5989990234375,-199.8184814453125,-16.48211669921875
1751013655713364500,8.848364501953125,-393.5635986328125,-199.61497497558594,-16.4449462890625
1751013655723407600,8.85840771484375,-393.67462158203125,-199.83352661132812,-16.137176513671875
1751013655733450500,8.868450439453126,-393.58966064453125,-199.95706176757812,-16.292282104492188
1751013655743493600,8.87849365234375,-393.6363830566406,-199.7021942138672,-16.52392578125
1751013655753535500,8.888535400390625,-393.5604553222656,-199.52777099609375,-16.222625732421875
1751013655763577300,8.898577392578124,-393.9598388671875,-200.0270233154297,-16.45074462890625
1751013655773621500,8.90862158203125,-393.73931884765625,-199.64138793945312,-16.061874389648438
1751013655783664400,8.918664306640625,-393.5849304199219,-199.7972869873047,-16.373001098632812
1751013655793707500,8.92870751953125,-393.8494873046875,-199.793701171875,-16.4346923828125
1751013655803749600,8.93874951171875,-393.8201904296875,-199.94314575195312,-16.389083862304688
1751013655813792500,8.94879248046875,-393.92620849609375,-199.72677612304688,-16.197967529296875
1751013655823834400,8.95883447265625,-393.45465087890625,-199.69593811035156,-16.316390991210938
1751013655833876700,8.968876708984375,-393.4333801269531,-199.94830322265625,-16.246414184570312
1751013655843918600,8.978918701171875,-393.49981689453125,-200.06504821777344,-16.265869140625
1751013655853962500,8.98896240234375,-393.3565673828125,-199.9190216064453,-16.398757934570312
1751013655864005600,8.999005615234376,-393.65655517578125,-199.97393798828125,-16.557708740234375
1751013655874046500,9.00904638671875,-394.2519836425781,-199.45716857910156,-16.074966430664062
1751013655884088600,9.019088623046875,-394.14306640625,-200.0531005859375,-16.469741821289062
1751013655894130400,9.02913037109375,-394.150390625,-199.95025634765625,-16.598358154296875
1751013655904172500,9.039172607421875,-393.9751892089844,-200.0995330810547,-16.588790893554688
1751013655914215700,9.049215576171875,-393.7949523925781,-199.94178771972656,-16.406234741210938
1751013655924258600,9.059258544921875,-394.51361083984375,-200.1038360595703,-16.525039672851562
1751013655934300400,9.069300537109376,-393.77569580078125,-199.859130859375,-16.265884399414062
1751013655944343600,9.079343505859375,-393.4368896484375,-200.05528259277344,-16.27740478515625
1751013655954386400,9.089386474609375,-394.03045654296875,-199.94432067871094,-16.137527465820312
1751013655964428500,9.099428466796875,-394.15032958984375,-200.1736602783203,-16.459228515625
1751013655974470400,9.109470458984376,-393.51910400390625,-199.99923706054688,-16.251052856445312
1751013655984507600,9.119507568359374,-394.256591796875,-200.0394287109375,-16.293701171875
1751013655994555400,9.129555419921875,-394.3860778808594,-199.70623779296875,-16.444839477539062
1751013656004597500,9.139597412109374,-393.8941650390625,-199.61029052734375,-16.322799682617188
1751013656014639400,9.149639404296876,-394.0301513671875,-199.80807495117188,-16.056304931640625
1751013656024682500,9.1596826171875,-393.68743896484375,-200.0822296142578,-16.37652587890625
1751013656034724400,9.169724365234375,-393.7897033691406,-199.8459014892578,-16.589385986328125
1751013656044767500,9.179767578125,-393.9425048828125,-199.92010498046875,-16.131805419921875
1751013656054810600,9.189810546875,-394.47772216796875,-199.5405731201172,-16.158676147460938
1751013656064853500,9.199853515625,-393.93072509765625,-199.87957763671875,-15.991897583007812
1751013656074896600,9.209896728515625,-394.6279602050781,-199.81790161132812,-16.124893188476562
1751013656084940500,9.2199404296875,-394.22259521484375,-199.7253875732422,-15.913467407226562
1751013656094984400,9.229984375,-394.32574462890625,-199.87789916992188,-16.099777221679688
1751013656105022500,9.2400224609375,-394.208984375,-200.00906372070312,-16.259780883789062
1751013656115070500,9.250070556640624,-394.1739501953125,-199.6870880126953,-16.24517822265625
1751013656125113600,9.260113525390626,-393.974365234375,-200.03204345703125,-16.237823486328125
1751013656135155500,9.270155517578125,-394.05389404296875,-199.6250762939453,-16.209320068359375
1751013656145199600,9.28019970703125,-393.6388244628906,-199.55174255371094,-16.067626953125
1751013656155242500,9.290242431640625,-393.83721923828125,-199.6011505126953,-16.206756591796875
1751013656165285600,9.30028564453125,-394.40924072265625,-199.56800842285156,-16.304443359375
1751013656175327500,9.310327392578126,-394.0689697265625,-199.87588500976562,-16.095260620117188
1751013656185370400,9.320370361328125,-393.8602294921875,-199.71292114257812,-16.092575073242188
1751013656195413500,9.33041357421875,-394.36181640625,-200.10459899902344,-16.264724731445312
1751013656205456400,9.340456298828125,-393.904296875,-199.7157440185547,-16.115249633789062
1751013656215499500,9.35049951171875,-393.8549499511719,-199.91287231445312,-16.027450561523438
1751013656225541600,9.360541748046876,-394.15557861328125,-200.30381774902344,-16.19171142578125
1751013656235583500,9.37058349609375,-393.91497802734375,-199.9408416748047,-16.05328369140625
1751013656245626400,9.38062646484375,-394.31298828125,-200.0341796875,-15.967544555664062
1751013656255669500,9.39066943359375,-393.9756774902344,-199.63050842285156,-16.020034790039062
1751013656265711600,9.400711669921876,-393.7593994140625,-199.8645782470703,-16.041793823242188
1751013656275753500,9.41075341796875,-394.36328125,-199.81434631347656,-16.082931518554688
1751013656285796400,9.42079638671875,-393.867919921875,-199.7927703857422,-15.70465087890625
1751013656295839500,9.430839599609374,-394.31817626953125,-199.40240478515625,-16.192855834960938
1751013656305880600,9.440880615234375,-394.25286865234375,-199.6006317138672,-16.01641845703125
1751013656315922400,9.45092236328125,-394.18414306640625,-199.5319061279297,-16.104217529296875
1751013656325964500,9.460964599609374,-394.63568115234375,-199.71131896972656,-16.394027709960938
1751013656336006400,9.47100634765625,-394.4894104003906,-199.69105529785156,-16.5372314453125
1751013656346048500,9.481048583984375,-393.9276428222656,-199.90274047851562,-16.27935791015625
1751013656356092400,9.491092529296875,-393.9593505859375,-199.88800048828125,-16.207855224609375
1751013656366136600,9.501136474609375,-394.011474609375,-199.98402404785156,-16.543624877929688
1751013656376180500,9.511180419921875,-393.96575927734375,-199.691162109375,-16.453155517578125
1751013656386223600,9.5212236328125,-393.10565185546875,-199.53538513183594,-15.972640991210938
1751013656396266500,9.5312666015625,-393.6940612792969,-199.8153533935547,-16.405441284179688
1751013656406309600,9.5413095703125,-393.79522705078125,-200.0234375,-16.253952026367188
1751013656416351500,9.5513515625,-394.0003967285156,-200.05210876464844,-16.34332275390625
1751013656426394400,9.561394287109374,-394.0185546875,-199.80755615234375,-16.2626953125
1751013656436437500,9.5714375,-394.0721435546875,-199.753173828125,-16.44915771484375
1751013656446481400,9.5814814453125,-394.53533935546875,-199.83615112304688,-16.575424194335938
1751013656456525600,9.591525634765626,-394.0604553222656,-200.08517456054688,-16.31451416015625
1751013656466569500,9.601569580078126,-393.926025390625,-200.10379028320312,-16.142715454101562
1751013656476613600,9.611613525390625,-394.2296447753906,-199.8246307373047,-16.151443481445312
1751013656486656500,9.621656494140625,-394.47216796875,-199.7377166748047,-15.783447265625
1751013656496698400,9.631698486328125,-394.03155517578125,-199.47805786132812,-16.282150268554688
1751013656506741500,9.641741455078124,-394.12701416015625,-199.55995178222656,-16.11376953125
1751013656516784400,9.651784423828126,-394.4315185546875,-199.6539764404297,-16.3404541015625
1751013656526827500,9.66182763671875,-394.07147216796875,-199.7521514892578,-16.144393920898438
1751013656536870400,9.671870361328125,-394.2400817871094,-199.92515563964844,-15.988784790039062
1751013656546913300,9.681913330078125,-393.90435791015625,-199.57440185546875,-15.963226318359375
1751013656556956400,9.691956298828124,-394.38446044921875,-199.97573852539062,-16.549102783203125
1751013656566999300,9.701999267578126,-393.721435546875,-199.9684600830078,-16.25299072265625
1751013656577040100,9.7120400390625,-394.34173583984375,-199.92626953125,-16.412460327148438
1751013656587082200,9.722082275390624,-393.73956298828125,-199.93637084960938,-16.263839721679688
1751013656597123000,9.732123046875,-393.94940185546875,-199.94216918945312,-16.458358764648438
1751013656607165400,9.74216552734375,-394.24676513671875,-199.97019958496094,-16.495529174804688
1751013656617207300,9.752207275390624,-393.8601989746094,-199.75051879882812,-16.011123657226562
1751013656627248400,9.762248291015625,-393.96856689453125,-199.96212768554688,-16.207916259765625
1751013656637290200,9.772290283203125,-393.990234375,-199.82693481445312,-16.2847900390625
1751013656647332000,9.78233203125,-394.31884765625,-199.89959716796875,-16.623703002929688
1751013656657373200,9.792373291015625,-394.3155822753906,-199.84783935546875,-16.398483276367188
1751013656667416300,9.802416259765625,-393.9855041503906,-199.9037628173828,-15.87060546875
1751013656677458200,9.812458251953124,-394.0364990234375,-199.94781494140625,-16.230209350585938
1751013656687499300,9.822499267578126,-394.02117919921875,-199.99525451660156,-16.03143310546875
1751013656697540400,9.832540283203125,-394.1143798828125,-200.0825958251953,-16.20208740234375
1751013656707582200,9.842582275390624,-394.37567138671875,-199.7683563232422,-16.66748046875
1751013656717623300,9.852623291015625,-393.7901916503906,-199.9480438232422,-16.260055541992188
1751013656727664000,9.8626640625,-393.95849609375,-199.67669677734375,-16.279144287109375
1751013656737705200,9.872705322265626,-393.735595703125,-199.7955780029297,-16.525390625
1751013656747746300,9.882746337890625,-393.74322509765625,-200.0824432373047,-16.4560546875
1751013656757786400,9.892786376953126,-393.9810791015625,-199.60813903808594,-16.417007446289062
1751013656767827200,9.9028271484375,-394.21881103515625,-199.79165649414062,-16.346054077148438
1751013656777869300,9.912869384765624,-393.915283203125,-199.7174530029297,-16.884201049804688
1751013656787911200,9.9229111328125,-393.8126525878906,-199.7938690185547,-16.475265502929688
1751013656797953000,9.932953125,-394.13397216796875,-199.89573669433594,-16.0394287109375
1751013656807996200,9.94299609375,-393.934326171875,-200.0789337158203,-16.532562255859375
1751013656818038300,9.953038330078124,-394.2703857421875,-200.1084442138672,-16.756423950195312
1751013656828082400,9.96308251953125,-394.0699462890625,-200.1085662841797,-16.56268310546875
1751013656838125300,9.973125244140626,-393.794921875,-199.84896850585938,-16.48834228515625
1751013656848168200,9.983168212890625,-394.388916015625,-200.0611572265625,-16.393661499023438
1751013656858211300,9.99321142578125,-394.1180114746094,-199.91249084472656,-16.53167724609375
1751013656868254200,10.003254150390624,-394.0721740722656,-199.71139526367188,-16.379959106445312
1751013656878298400,10.01329833984375,-394.1195373535156,-199.97190856933594,-16.47503662109375
1751013656888341200,10.02334130859375,-393.958740234375,-199.92129516601562,-16.681106567382812
1751013656898383000,10.033383056640625,-393.91888427734375,-200.18284606933594,-16.57025146484375
1751013656908427300,10.04342724609375,-394.06243896484375,-199.88055419921875,-16.460769653320312
1751013656918469000,10.05346923828125,-394.62158203125,-200.05230712890625,-16.59051513671875
1751013656928512300,10.06351220703125,-394.03955078125,-200.0733184814453,-16.512588500976562
1751013656938555100,10.07355517578125,-394.44122314453125,-199.732666015625,-16.446441650390625
1751013656948599300,10.083599365234376,-393.95281982421875,-200.04432678222656,-16.365127563476562
1751013656958643200,10.093643310546875,-394.00384521484375,-200.0956268310547,-16.327774047851562
1751013656968686300,10.103686279296875,-394.1796875,-199.98907470703125,-16.572433471679688
1751013656978729200,10.113729248046875,-394.464111328125,-199.93870544433594,-16.479156494140625
1751013656988772000,10.123772216796874,-394.4027099609375,-199.96214294433594,-16.203536987304688
1751013656998816300,10.133816162109374,-394.00439453125,-200.21641540527344,-16.533233642578125
1751013657008859100,10.143859130859376,-394.4110107421875,-200.13148498535156,-16.565887451171875
1751013657018902300,10.15390234375,-394.33544921875,-200.1151885986328,-16.507843017578125
1751013657028945200,10.163945068359375,-394.0452880859375,-199.8234405517578,-16.35662841796875
1751013657038988300,10.17398828125,-394.16619873046875,-199.94528198242188,-16.561187744140625
1751013657049031200,10.18403125,-393.97625732421875,-199.866455078125,-16.312240600585938
1751013657059074000,10.194073974609376,-393.84429931640625,-200.0897979736328,-16.266494750976562
1751013657069116400,10.204116455078125,-394.4080505371094,-200.38743591308594,-16.283767700195312
1751013657079159300,10.2141591796875,-394.36376953125,-200.32159423828125,-16.39288330078125
1751013657089197000,10.224197021484375,-394.16644287109375,-199.88902282714844,-16.191635131835938
1751013657099245300,10.234245361328124,-394.4633483886719,-199.9940643310547,-16.561767578125
1751013657109287200,10.244287109375,-394.15765380859375,-200.0260467529297,-16.270782470703125
1751013657119328300,10.254328369140625,-393.9911804199219,-200.0772247314453,-16.180450439453125
1751013657129370000,10.2643701171875,-394.4922790527344,-199.838623046875,-16.481689453125
1751013657139410200,10.27441015625,-394.2247009277344,-199.92330932617188,-16.153900146484375
1751013657149451300,10.284451171875,-394.20477294921875,-199.85769653320312,-16.20245361328125
1751013657159492400,10.294492431640625,-394.295654296875,-199.8577117919922,-16.315933227539062
1751013657169532400,10.304532470703125,-394.4283752441406,-200.05323791503906,-16.3184814453125
1751013657179573200,10.3145732421875,-394.4696350097656,-199.82073974609375,-16.10931396484375
1751013657189614300,10.3246142578125,-394.2462463378906,-200.0249786376953,-16.220809936523438
1751013657199655200,10.3346552734375,-394.2955322265625,-199.723388671875,-16.064041137695312
1751013657209696300,10.3446962890625,-394.20721435546875,-199.91818237304688,-16.370986938476562
1751013657219738400,10.35473828125,-394.2152099609375,-199.63909912109375,-16.435165405273438
1751013657229781200,10.36478125,-394.3089294433594,-199.69833374023438,-16.330841064453125
1751013657239823400,10.3748232421875,-394.5284423828125,-199.9278106689453,-16.534011840820312
1751013657249865200,10.384865234375,-394.42010498046875,-199.82208251953125,-16.1839599609375
1751013657259908000,10.394908203125,-394.2861022949219,-199.73370361328125,-16.240097045898438
1751013657269951200,10.404951171875,-394.41888427734375,-199.90530395507812,-16.405624389648438
1751013657279992300,10.414992431640625,-394.2899169921875,-199.64215087890625,-16.268310546875
1751013657290033400,10.425033447265625,-394.4576416015625,-199.59536743164062,-16.157394409179688
1751013657300074200,10.43507421875,-394.5713806152344,-199.39149475097656,-16.050857543945312
1751013657310116400,10.445116455078125,-394.88787841796875,-199.60882568359375,-16.132659912109375
1751013657320155100,10.455155029296876,-395.0697021484375,-199.9255828857422,-16.65167236328125
1751013657330202400,10.465202392578124,-395.0014343261719,-199.73313903808594,-16.407211303710938
1751013657340245200,10.475245361328126,-395.2630615234375,-199.9285888671875,-16.650146484375
1751013657350287000,10.485287109375,-394.69000244140625,-199.8743438720703,-16.26373291015625
1751013657360330200,10.495330322265625,-394.5625,-199.6190948486328,-16.242904663085938
1751013657370373400,10.505373291015625,-394.49737548828125,-199.83648681640625,-16.490402221679688
1751013657380416300,10.515416259765624,-394.727783203125,-199.89808654785156,-16.540252685546875
1751013657390459400,10.52545947265625,-395.2261962890625,-199.93177795410156,-16.584136962890625
1751013657400501200,10.535501220703125,-394.8443603515625,-199.87330627441406,-15.945449829101562
1751013657410544000,10.545544189453125,-394.6824645996094,-199.9524383544922,-16.415451049804688
1751013657420586200,10.555586181640624,-394.44366455078125,-199.40463256835938,-15.61224365234375
1751013657430629400,10.56562939453125,-393.79107666015625,-199.9761505126953,-15.5517578125
1751013657440671200,10.575671142578125,-393.8860778808594,-200.11224365234375,-15.764602661132812
1751013657450712300,10.58571240234375,-393.9517822265625,-199.84837341308594,-15.671112060546875
1751013657460755500,10.59575537109375,-393.9690856933594,-200.08380126953125,-15.454254150390625
1751013657470797300,10.60579736328125,-393.81402587890625,-200.58692932128906,-15.632476806640625
1751013657480838400,10.61583837890625,-394.0048828125,-200.62210083007812,-15.887313842773438
1751013657490879200,10.625879150390626,-393.9661865234375,-200.4496307373047,-15.719024658203125
1751013657500920300,10.63592041015625,-393.9742431640625,-200.61814880371094,-15.649612426757812
1751013657510961400,10.64596142578125,-394.36370849609375,-200.64840698242188,-16.023818969726562
1751013657521003300,10.656003173828125,-393.79071044921875,-200.3726043701172,-15.750701904296875
