time,seconds_elapsed,z,y,x
1751013820217664800,0.125664794921875,0.12070857733488083,-0.003951332066208124,0.08970697969198227
1751013820227607800,0.13560791015625,0.0973353385925293,-0.003916444722563028,0.047435957938432693
1751013820237551600,0.145551513671875,0.06588447093963623,-0.004002997186034918,0.004983839578926563
1751013820247494700,0.15549462890625,0.04357064515352249,-0.007207845337688923,-0.02996162697672844
1751013820257438700,0.165438720703125,0.029504362493753433,-0.015789614990353584,-0.05302859842777252
1751013820267381800,0.1753818359375,0.020895695313811302,-0.030722226947546005,-0.057792726904153824
1751013820277324800,0.18532470703125,0.024392690509557724,-0.03316833823919296,-0.03965526819229126
1751013820287268600,0.1952685546875,0.036135900765657425,-0.033360619097948074,-0.013332316651940346
1751013820297211600,0.205211669921875,0.03784378618001938,-0.026671025902032852,0.014349112287163734
1751013820307155700,0.21515576171875,0.03948748856782913,-0.01931324414908886,0.034151844680309296
1751013820317098500,0.225098388671875,0.04216636344790459,-0.004543086513876915,0.052498362958431244
1751013820327042600,0.23504248046875,0.04017990827560425,0.008845423348248005,0.056114401668310165
1751013820336985600,0.244985595703125,0.03160053491592407,0.017525464296340942,0.041059285402297974
1751013820346929700,0.2549296875,0.024476580321788788,0.02919144183397293,0.03635401278734207
1751013820356872400,0.26487255859375,0.01865570992231369,0.032221321016550064,0.0359707847237587
1751013820366815500,0.2748154296875,0.005822735372930765,0.0378432534635067,0.031449802219867706
1751013820376759600,0.284759521484375,-0.001386441639624536,0.03904780000448227,0.034633610397577286
1751013820386702600,0.29470263671875,-0.008925584144890308,0.032351814210414886,0.03946378454566002
1751013820396646400,0.304646484375,-0.01389690674841404,0.02520388923585415,0.04308701679110527
1751013820406589400,0.31458935546875,-0.0102004399523139,0.024597488343715668,0.04397944360971451
1751013820416533800,0.32453369140625,0.003613909473642707,0.02538391947746277,0.050989147275686264
1751013820426476800,0.334476806640625,0.010480604134500027,0.027580760419368744,0.05246400833129883
1751013820436420600,0.344420654296875,0.009333580732345581,0.03508634865283966,0.05509813874959946
1751013820446363600,0.35436376953125,0.004728176165372133,0.0378967821598053,0.054364971816539764
1751013820456306700,0.364306640625,-0.0012282498646527529,0.04439729079604149,0.053408361971378326
1751013820466250800,0.374250732421875,-0.00304638990201056,0.050025083124637604,0.04764395207166672
1751013820476193800,0.38419384765625,-0.000002663161012605997,0.048771265894174576,0.04520636051893234
1751013820486137600,0.3941376953125,0.0016642092959955335,0.049070607870817184,0.04634459689259529
1751013820496080600,0.40408056640625,0.009282980114221573,0.0549846887588501,0.054794538766145706
1751013820506024700,0.414024658203125,0.017196830362081528,0.06860809028148651,0.06877613812685013
1751013820515967500,0.423967529296875,0.020045081153512,0.08348823338747025,0.07642260193824768
1751013820525911600,0.43391162109375,0.028979720547795296,0.08504192531108856,0.07154422253370285
1751013820535854600,0.4438544921875,0.05903402343392372,0.09457497298717499,0.07426571100950241
1751013820545797600,0.453797607421875,0.10066668689250946,0.10625480115413666,0.08552155643701553
1751013820555741400,0.463741455078125,0.12958355247974396,0.10367206484079361,0.0781475305557251
1751013820565684500,0.4736845703125,0.1295156478881836,0.09105613827705383,0.05557830631732941
1751013820575628500,0.483628662109375,0.11165942251682281,0.06946908682584763,0.0294891819357872
1751013820585571600,0.493571533203125,0.08046261966228485,0.05176359415054321,0.0016783240716904402
1751013820595515600,0.503515625,0.05007035657763481,0.034201111644506454,-0.014097709208726883
1751013820605458400,0.51345849609375,0.015592807903885841,0.027779433876276016,-0.01786022260785103
1751013820615402800,0.52340283203125,-0.013407152146100998,0.020924989134073257,-0.0002822950773406774
1751013820625345800,0.533345703125,-0.03121783956885338,0.003180613275617361,0.034340664744377136
1751013820635288800,0.543288818359375,-0.03937830030918121,-0.012020976282656193,0.07315250486135483
1751013820645232600,0.553232666015625,-0.034989409148693085,-0.027240941300988197,0.09871858358383179
1751013820655175700,0.56317578125,-0.021701833233237267,-0.032156337052583694,0.111533984541893
1751013820665119700,0.57311962890625,-0.005008607171475887,-0.032347820699214935,0.10696879029273987
1751013820675062800,0.583062744140625,0.009818541817367077,-0.022172946482896805,0.08972375839948654
1751013820685006600,0.593006591796875,0.019572636112570763,-0.007546066772192717,0.06310652941465378
1751013820694949600,0.60294970703125,0.023975906893610954,0.006102900020778179,0.023986559361219406
1751013820704893700,0.612893798828125,0.018682874739170074,0.023374032229185104,-0.0076331524178385735
1751013820714836500,0.62283642578125,0.01296480093151331,0.033779799938201904,-0.02515089325606823
1751013820724779500,0.632779541015625,-0.002814428647980094,0.04117646440863609,-0.029336316511034966
1751013820734723600,0.6427236328125,-0.02371038869023323,0.02979225106537342,-0.025655828416347504
1751013820744666600,0.65266650390625,-0.04282123222947121,0.01625220663845539,0.00974264182150364
1751013820754610400,0.6626103515625,-0.06166975572705269,-0.01654755137860775,0.06064363941550255
1751013820764553500,0.672553466796875,-0.09194537252187729,-0.07855020463466644,0.12486550211906433
1751013820774497500,0.68249755859375,-0.11793515831232071,-0.1367136389017105,0.21347872912883759
1751013820784440600,0.692440673828125,-0.11431299149990082,-0.10016041994094849,0.31835055351257324
1751013820794384600,0.702384521484375,-0.05230927839875221,0.0388328842818737,0.3698025643825531
1751013820804327700,0.71232763671875,0.037046436220407486,0.21277831494808197,0.3279786705970764
1751013820814270500,0.7222705078125,0.13638687133789062,0.3069937527179718,0.19500091671943665
1751013820824214800,0.73221484375,0.18784020841121674,0.298117458820343,0.02364966832101345
1751013820834157800,0.74215771484375,0.17531882226467133,0.21206751465797424,-0.10785163193941116
1751013820844101600,0.7521015625,0.11549277603626251,0.09921686351299286,-0.14751781523227692
1751013820854044700,0.762044677734375,0.040233172476291656,0.029936859384179115,-0.09439201653003693
1751013820863988700,0.77198876953125,-0.018318021669983864,0.009156746789813042,-0.007811584044247866
1751013820873931500,0.781931640625,-0.05396363139152527,-0.028360001742839813,0.04442605376243591
1751013820883875600,0.79187548828125,-0.07111439108848572,-0.060377854853868484,0.05395164713263512
1751013820893818600,0.801818603515625,-0.06094644218683243,-0.06301571428775787,0.04746472090482712
1751013820903761700,0.81176171875,-0.04376639053225517,-0.06348363310098648,0.026126675307750702
1751013820913705500,0.82170556640625,-0.04448411241173744,-0.07464440912008286,-0.003238936420530081
1751013820923648500,0.8316484375,-0.0409756638109684,-0.07244890183210373,-0.01739683374762535
1751013820933592600,0.841592529296875,-0.023427560925483704,-0.04747883602976799,-0.020740166306495667
1751013820943535600,0.85153564453125,0.007221161387860775,-0.007299458142369986,-0.02094096876680851
1751013820953479400,0.8614794921875,0.04295119643211365,0.03717027232050896,-0.025650767609477043
1751013820963422500,0.87142236328125,0.07119108736515045,0.060745105147361755,-0.051724180579185486
1751013820973365500,0.881365478515625,0.08520757406949997,0.05350929871201515,-0.06751859188079834
1751013820983309600,0.8913095703125,0.07897470891475677,0.03828560188412666,-0.06851035356521606
1751013820993252600,0.901252685546875,0.05197185277938843,0.02075694315135479,-0.056774865835905075
1751013821003196700,0.91119677734375,0.025366876274347305,0.003531617810949683,-0.03966645151376724
1751013821013139700,0.9211396484375,-0.0062858592718839645,-0.0103181516751647,-0.022229671478271484
1751013821023083800,0.931083740234375,-0.027408454567193985,-0.009299492463469505,-0.005832589231431484
1751013821033026800,0.94102685546875,-0.039673108607530594,0.006121009588241577,0.00791677925735712
1751013821042970600,0.950970703125,-0.04005713760852814,0.014795457944273949,0.021744176745414734
1751013821052913700,0.96091357421875,-0.03837215527892113,0.02359028160572052,0.022649385035037994
1751013821062856700,0.970856689453125,-0.022721823304891586,0.07051464915275574,0.0265935268253088
1751013821072800500,0.980800537109375,-0.011020692996680737,0.07687560468912125,0.024946361780166626
1751013821082743600,0.99074365234375,-0.01894466206431389,0.06232516095042229,0.014597850851714611
1751013821092687600,1.0006875,-0.015586948953568935,0.10882741212844849,0.014285994693636894
1751013821102630700,1.010630615234375,0.00866219773888588,0.1492273062467575,0.0007307713967747986
1751013821112574500,1.020574462890625,0.02124376967549324,0.1314360499382019,-0.03340083360671997
1751013821122517500,1.030517578125,0.002409894485026598,0.0658852756023407,-0.07872410863637924
1751013821132461600,1.040461669921875,-0.03983290120959282,0.024757543578743935,-0.10440869629383087
1751013821142404600,1.050404541015625,-0.07694671303033829,-0.00809148233383894,-0.09669751673936844
1751013821152347600,1.06034765625,-0.11439981311559677,-0.07010744512081146,-0.05674796923995018
1751013821162291500,1.07029150390625,-0.16453221440315247,-0.10413732379674911,0.020368654280900955
1751013821172234500,1.080234375,-0.19725288450717926,-0.09977905452251434,0.1056196391582489
1751013821182178600,1.090178466796875,-0.19110125303268433,-0.09550228714942932,0.14332200586795807
1751013821192121600,1.10012158203125,-0.16052842140197754,-0.08521529287099838,0.13353168964385986
1751013821202065700,1.110065673828125,-0.11383282393217087,-0.05604036524891853,0.08912800997495651
1751013821212008700,1.1200087890625,-0.06906109303236008,-0.02454209513962269,0.02985004149377346
1751013821221952800,1.129952880859375,-0.026679813861846924,0.013952833600342274,-0.022878417745232582
1751013821231895800,1.139895751953125,0.008812133222818375,0.03747786581516266,-0.07230668514966965
1751013821241838600,1.149838623046875,0.01582290604710579,0.04567507654428482,-0.09380638599395752
1751013821251782700,1.15978271484375,-0.0038488004356622696,0.026333069428801537,-0.08766460418701172
1751013821261725700,1.1697255859375,-0.0269466619938612,0.028905950486660004,-0.04300632327795029
1751013821271669500,1.17966943359375,-0.021258417516946793,0.07044780254364014,0.011663580313324928
1751013821281612500,1.189612548828125,0.036487702280282974,0.14698518812656403,0.045762162655591965
1751013821291556600,1.199556640625,0.13000939786434174,0.26868098974227905,0.03557876497507095
1751013821301499600,1.209499755859375,0.21087947487831116,0.39333051443099976,-0.03484826162457466
1751013821311443500,1.219443359375,0.24970917403697968,0.45738300681114197,-0.1511588990688324
1751013821321386500,1.229386474609375,0.23750895261764526,0.39009344577789307,-0.2561817169189453
1751013821331329500,1.23932958984375,0.16168397665023804,0.245016947388649,-0.28935325145721436
1751013821341273600,1.249273681640625,0.050447460263967514,0.08831148594617844,-0.22441233694553375
1751013821351216600,1.259216552734375,-0.047266848385334015,-0.050447728484869,-0.0913674607872963
1751013821361160400,1.269160400390625,-0.13845135271549225,-0.1665911078453064,0.04255038872361183
1751013821371103500,1.279103515625,-0.19353990256786346,-0.24406538903713226,0.12575286626815796
1751013821381047800,1.2890478515625,-0.2080962061882019,-0.28901049494743347,0.14535559713840485
1751013821390990600,1.298990478515625,-0.19687125086784363,-0.2874099314212799,0.11938844621181488
1751013821400933600,1.30893359375,-0.17758117616176605,-0.2557678520679474,0.059607136994600296
1751013821410877700,1.318877685546875,-0.14988882839679718,-0.19787180423736572,-0.010926417075097561
1751013821420820700,1.32882080078125,-0.11200642585754395,-0.1347181349992752,-0.08708164095878601
1751013821430764800,1.338764892578125,-0.061154432594776154,-0.08507201820611954,-0.15478532016277313
1751013821440707600,1.34870751953125,-0.019216304644942284,-0.0438244454562664,-0.19477854669094086
1751013821450651600,1.358651611328125,0.0027614317368716,-0.027721377089619637,-0.19636285305023193
1751013821460594700,1.3685947265625,0.009645436890423298,-0.029099294915795326,-0.16903509199619293
1751013821470538500,1.37853857421875,-0.007476292084902525,-0.041724544018507004,-0.10942316055297852
1751013821480481500,1.3884814453125,-0.02580336667597294,-0.045522741973400116,-0.04484177380800247
1751013821490424600,1.398424560546875,-0.054133277386426926,-0.04951109364628792,-0.006621683482080698
1751013821500368600,1.40836865234375,-0.08012572675943375,-0.05546672269701958,0.012951484881341457
1751013821510311700,1.418311767578125,-0.09543997049331665,-0.047447942197322845,0.012829512357711792
1751013821520255500,1.42825537109375,-0.09385831654071808,-0.02550589293241501,0.00010146643762709573
1751013821530198500,1.438198486328125,-0.08093932271003723,-0.013730726204812527,-0.036621659994125366
1751013821540142600,1.448142578125,-0.05549095571041107,-0.016752881929278374,-0.0753842368721962
1751013821550085600,1.458085693359375,-0.030464164912700653,-0.025904301553964615,-0.10312452167272568
1751013821560029400,1.468029541015625,-0.011171960271894932,-0.02911953628063202,-0.0979342833161354
1751013821569972500,1.477972412109375,0.007994276471436024,-0.016804812476038933,-0.07356982678174973
1751013821579915500,1.48791552734375,0.01828792691230774,-0.001770203118212521,-0.03681314364075661
1751013821589859800,1.49785986328125,0.023924773558974266,0.010553575120866299,-0.00018642126815393567
1751013821599802600,1.507802734375,0.025422003120183945,0.023748738691210747,0.03261120617389679
1751013821609746700,1.51774658203125,0.030968835577368736,0.03303065523505211,0.052622463554143906
1751013821619689700,1.527689697265625,0.03927390277385712,0.04092426225543022,0.06352091580629349
1751013821629633800,1.5376337890625,0.0486823171377182,0.044497162103652954,0.06707091629505157
1751013821639576600,1.54757666015625,0.05017928034067154,0.043774645775556564,0.054360710084438324
1751013821649520600,1.557520751953125,0.04381033033132553,0.033304162323474884,0.03767174482345581
1751013821659463700,1.567463623046875,0.03196938335895538,0.008932774886488914,0.021134579554200172
1751013821669406700,1.57740673828125,0.018032796680927277,-0.009578591212630272,0.01800030656158924
1751013821679350500,1.5873505859375,0.015596536919474602,-0.00948245171457529,0.028379177674651146
1751013821689293600,1.59729345703125,0.013548033311963081,0.011260643601417542,0.04249659553170204
1751013821699237600,1.607237548828125,0.014985340647399426,0.04994545504450798,0.06449856609106064
1751013821709180700,1.6171806640625,0.022066419944167137,0.11366451531648636,0.08145038783550262
1751013821719124700,1.627124755859375,0.02943591959774494,0.17533373832702637,0.07804446667432785
1751013821729067800,1.63706787109375,0.03715003281831741,0.2106400579214096,0.054480552673339844
1751013821739011800,1.64701171875,0.038232073187828064,0.20586368441581726,0.006964166183024645
1751013821748955000,1.656954833984375,0.023314910009503365,0.16588696837425232,-0.06251797080039978
1751013821758897700,1.666897705078125,-0.005575061310082674,0.09562825411558151,-0.12980620563030243
1751013821768841700,1.676841796875,-0.030222350731492043,0.02420094422996044,-0.1807607263326645
1751013821778784800,1.68678466796875,-0.043962132185697556,-0.030407972633838654,-0.18620768189430237
1751013821788728800,1.696728759765625,-0.05110366269946098,-0.0579618364572525,-0.14684590697288513
1751013821798671600,1.706671630859375,-0.05759298801422119,-0.059728577733039856,-0.08280007541179657
1751013821808615700,1.71661572265625,-0.055149536579847336,-0.03801342844963074,-0.012328837998211384
1751013821818558700,1.726558837890625,-0.043956272304058075,-0.0023158849216997623,0.047568317502737045
1751013821828501800,1.736501708984375,-0.021033113822340965,0.02592427469789982,0.07964422553777695
1751013821838445600,1.746445556640625,0.005478122271597385,0.04322097450494766,0.07918243855237961
1751013821848388600,1.756388671875,0.03465438261628151,0.04893159121274948,0.05222325772047043
1751013821858332700,1.766332763671875,0.06100183352828026,0.050276488065719604,0.015995744615793228
1751013821868275700,1.776275634765625,0.07933210581541061,0.04663248360157013,-0.013624998740851879
1751013821878219800,1.7862197265625,0.08113373816013336,0.04362257942557335,-0.033305760473012924
1751013821888162800,1.796162841796875,0.06752551347017288,0.03489433601498604,-0.04183000326156616
1751013821898107000,1.80610693359375,0.04711557924747467,0.02629125863313675,-0.04662316292524338
1751013821908050000,1.8160498046875,0.02286403626203537,0.020682375878095627,-0.05324644222855568
1751013821917992700,1.82599267578125,0.0035654399544000626,0.0227375365793705,-0.06486048549413681
1751013821927936800,1.835936767578125,-0.0031992553267627954,0.02400919608771801,-0.07658372074365616
1751013821937879800,1.8458798828125,0.00016591492749284953,0.029085714370012283,-0.0823686420917511
1751013821947823900,1.855823974609375,0.003266367129981518,0.02257321961224079,-0.07910973578691483
1751013821957766700,1.8657666015625,0.011691543273627758,0.008891495876014233,-0.06145324185490608
1751013821967710700,1.875710693359375,0.014253504574298859,-0.008263789117336273,-0.028773058205842972
1751013821977653800,1.88565380859375,0.01883014664053917,-0.012832175008952618,0.013568006455898285
1751013821987597800,1.895597900390625,0.026067020371556282,-0.019032280892133713,0.054245393723249435
1751013821997540600,1.90554052734375,0.028598088771104813,-0.027590082958340645,0.08576763421297073
1751013822007483600,1.915483642578125,0.024280305951833725,-0.02714134007692337,0.08323496580123901
1751013822017427700,1.925427734375,0.014749917201697826,-0.0204557403922081,0.04675818234682083
1751013822027370800,1.935370849609375,0.008559932000935078,-0.0021947110071778297,-0.012828446924686432
1751013822037314600,1.945314453125,0.010724549181759357,0.015336612239480019,-0.07108855992555618
1751013822047257600,1.955257568359375,0.01555206160992384,0.02310957945883274,-0.11308208107948303
1751013822057201700,1.96520166015625,0.015393869951367378,0.012647884897887707,-0.13315671682357788
1751013822067144700,1.975144775390625,0.016215454787015915,0.00006364954606397077,-0.13878904283046722
1751013822077088800,1.9850888671875,0.011057444848120213,-0.027096865698695183,-0.12986505031585693
1751013822087031800,1.99503173828125,0.007199323270469904,-0.0434875562787056,-0.09859315305948257
1751013822096974800,2.004974853515625,0.003680754918605089,-0.04429369419813156,-0.06090249866247177
1751013822106919000,2.0149189453125,0.006878145970404148,-0.040770065039396286,-0.03442322090268135
1751013822116861700,2.02486181640625,0.012494753114879131,-0.03254569321870804,-0.020008062943816185
1751013822126805800,2.0348056640625,0.024412132799625397,-0.016139023005962372,-0.02749633975327015
1751013822136748800,2.044748779296875,0.030302777886390686,-0.008324508555233479,-0.03521737456321716
1751013822146692900,2.05469287109375,0.039674174040555954,-0.001675128354690969,-0.043831903487443924
1751013822156635600,2.0646357421875,0.04086966812610626,-0.0000780306218075566,-0.04813636839389801
1751013822166578700,2.07457861328125,0.03993196785449982,0.002682602033019066,-0.04422072321176529
1751013822176522800,2.084522705078125,0.03676041215658188,0.006046973634511232,-0.04610278084874153
1751013822186465800,2.0944658203125,0.04741944745182991,0.011713114567101002,-0.04561755061149597
1751013822196409600,2.10440966796875,0.054784417152404785,0.019655993208289146,-0.0580180287361145
1751013822206352600,2.1143525390625,0.0538770817220211,0.011050520464777946,-0.06522427499294281
1751013822216296700,2.124296630859375,0.043228697031736374,0.008333297446370125,-0.08263708651065826
1751013822226239700,2.13423974609375,0.03067615255713463,0.02143072336912155,-0.09435446560382843
1751013822236183600,2.14418359375,0.024690432474017143,0.03735349699854851,-0.1188797801733017
1751013822246126600,2.154126708984375,0.023694677278399467,0.050750527530908585,-0.14434225857257843
1751013822256069600,2.164069580078125,0.039500270038843155,0.06776706129312515,-0.15530329942703247
1751013822266013700,2.174013671875,0.059600744396448135,0.08698629587888718,-0.15547561645507812
1751013822275956700,2.183956787109375,0.07803834229707718,0.10327792167663574,-0.14347940683364868
1751013822285900800,2.19390087890625,0.09020072966814041,0.09954895824193954,-0.1394127607345581
1751013822295843800,2.20384375,0.1008768156170845,0.09917078912258148,-0.12790682911872864
1751013822305788000,2.213787841796875,0.1010240837931633,0.08534286171197891,-0.12000443786382675
1751013822315730700,2.223730712890625,0.08506056666374207,0.06390175223350525,-0.12633317708969116
1751013822325673700,2.233673828125,0.05156252533197403,0.0468125119805336,-0.14469033479690552
1751013822335617800,2.24361767578125,0.024027837440371513,0.026935210451483727,-0.1544252634048462
1751013822345560800,2.253560791015625,0.00830666534602642,0.02263367362320423,-0.14842994511127472
1751013822355504600,2.263504638671875,0.005319930613040924,0.019027220085263252,-0.1366254836320877
1751013822365447700,2.27344775390625,0.012595420703291893,0.014860971830785275,-0.1073717325925827
1751013822375391700,2.283391845703125,0.021943913772702217,0.02123391628265381,-0.08320727199316025
1751013822385334800,2.293334716796875,0.034024011343717575,0.02148851379752159,-0.06278162449598312
1751013822395278600,2.303278564453125,0.03942809998989105,0.01842348277568817,-0.04537760093808174
1751013822405221600,2.3132216796875,0.047148071229457855,0.00845740083605051,-0.024532506242394447
1751013822415164700,2.32316455078125,0.044193293899297714,-0.0006857639527879655,0.008725847117602825
1751013822425108700,2.333108642578125,0.029275329783558846,-0.014809572137892246,0.04099377244710922
1751013822435051800,2.3430517578125,0.011989018879830837,-0.0236443430185318,0.07375065237283707
1751013822444995600,2.35299560546875,-0.006707970052957535,-0.030736872926354408,0.08845876157283783
1751013822454938600,2.362938720703125,-0.01865038275718689,-0.032702818512916565,0.0721927061676979
1751013822464883000,2.372883056640625,-0.016094813123345375,-0.024525582790374756,0.0376078300178051
1751013822474825700,2.38282568359375,-0.0012665993999689817,-0.010278736241161823,0.005075186025351286
1751013822484768500,2.3927685546875,0.014704377390444279,0.007144462317228317,-0.020726051181554794
1751013822494712800,2.402712890625,0.029988525435328484,0.018204569816589355,-0.024403076618909836
1751013822504656000,2.41265576171875,0.03846456855535507,0.02761697955429554,-0.018075672909617424
1751013822514599700,2.422599609375,0.04334188252687454,0.038543395698070526,-0.00330258603207767
1751013822524542700,2.432542724609375,0.030349915847182274,0.04301191493868828,0.0013938985066488385
1751013822534486800,2.44248681640625,0.01846396178007126,0.03651726618409157,0.005306082312017679
1751013822544429800,2.452429931640625,0.0061535001732409,0.026262495666742325,0.014063620939850807
1751013822554373600,2.46237353515625,0.002579537918791175,0.020111925899982452,0.0251636765897274
1751013822564316700,2.472316650390625,-0.007015032693743706,0.005471197888255119,0.020141221582889557
1751013822574259700,2.482259765625,-0.005449892953038216,-0.0016458334866911173,0.0139568280428648
1751013822584203800,2.492203857421875,0.003085538512095809,-0.0001656486128922552,0.010865696705877781
1751013822594146800,2.502146728515625,0.0024647556710988283,0.00022503710351884365,0.0002008023438975215
1751013822604090600,2.512090576171875,-0.000949150591623038,-0.0019984361715614796,-0.017118265852332115
1751013822614033700,2.52203369140625,-0.0014253237750381231,0.0028423918411135674,-0.015081747435033321
1751013822623977700,2.531977783203125,0.0031726236920803785,0.00923291314393282,-0.004791026934981346
1751013822633920800,2.541920654296875,0.00018562232435215265,0.009190835058689117,0.011195396073162556
1751013822643863600,2.551863525390625,0.003534547286108136,0.00700970645993948,0.02593625895678997
1751013822653807600,2.5618076171875,0.0038637141697108746,-0.004321245010942221,0.03580806404352188
1751013822663750700,2.571750732421875,0.0032597091048955917,-0.0011912320042029023,0.0318378247320652
1751013822673695000,2.581695068359375,0.007847269997000694,0.0013712616637349129,0.01872202195227146
1751013822683637800,2.5916376953125,0.017538513988256454,0.0073529877699911594,0.00854182243347168
1751013822693581800,2.601581787109375,0.019543340429663658,0.014157896861433983,-0.0004087952256668359
1751013822703524900,2.61152490234375,0.013051886111497879,0.02232261560857296,-0.004574778024107218
1751013822713472500,2.621472412109375,0.014374145306646824,0.022225942462682724,0.00030173614504747093
1751013822723415300,2.631415283203125,0.00800359807908535,0.015689214691519737,0.007488276343792677
1751013822733358300,2.6413583984375,-0.00242161238566041,-0.001939580193720758,-0.00017417073831893504
1751013822743302700,2.651302734375,-0.013610084541141987,-0.013427658006548882,-0.02430533990263939
1751013822753245700,2.66124560546875,-0.015049257315695286,-0.016931045800447464,-0.04369368404150009
1751013822763189500,2.671189453125,-0.015294001437723637,-0.014463094994425774,-0.05606380105018616
1751013822773132500,2.681132568359375,-0.017189638689160347,-0.010744256898760796,-0.06783150881528854
1751013822783076600,2.69107666015625,-0.014700116589665413,-0.011425493285059929,-0.06311478465795517
1751013822793019600,2.70101953125,-0.008779643103480339,-0.0027353328187018633,-0.050999268889427185
1751013822802963500,2.71096337890625,-0.005828594323247671,0.003221892286092043,-0.03441869467496872
1751013822812906500,2.720906494140625,-0.0057737333700060844,0.0037848844658583403,-0.00929310079663992
1751013822822849500,2.730849609375,0.0019475696608424187,0.011875301599502563,0.017960092052817345
1751013822832793600,2.740793701171875,0.00628932099789381,0.014392787590622902,0.044017523527145386
1751013822842736400,2.750736328125,0.01182416919618845,0.013601296581327915,0.05825797840952873
1751013822852680400,2.760680419921875,0.013318735174834728,0.005883987993001938,0.06011606752872467
1751013822862623500,2.77062353515625,0.011067564599215984,-0.0032234902027994394,0.05735783278942108
1751013822872567300,2.7805673828125,0.0009558085002936423,-0.015016499906778336,0.04374774545431137
1751013822882510300,2.79051025390625,-0.007763114292174578,-0.01985359936952591,0.02357962727546692
1751013822892453400,2.800453369140625,-0.01522688940167427,-0.014058561064302921,-0.000949150591623038
1751013822902397400,2.8103974609375,-0.020072510465979576,-0.004747617058455944,-0.019106848165392876
1751013822912340500,2.820340576171875,-0.021470937877893448,-0.000056459015468135476,-0.03188815712928772
1751013822922284500,2.830284423828125,-0.019768644124269485,0.01031735260039568,-0.03134194388985634
1751013822932227300,2.840227294921875,-0.008477906696498394,0.025439312681555748,-0.019171031191945076
1751013822942171600,2.850171630859375,0.00851359311491251,0.03479925915598869,-0.0031494542490690947
1751013822952114700,2.86011474609375,0.022244319319725037,0.037100497633218765,0.012981312349438667
1751013822962057500,2.870057373046875,0.028488099575042725,0.0315382182598114,0.027179157361388206
1751013822972001500,2.88000146484375,0.03783393278717995,0.02576208859682083,0.03341921046376228
1751013822981944600,2.889944580078125,0.038784414529800415,0.019528428092598915,0.0308708306401968
1751013822991888600,2.899888671875,0.031013309955596924,0.0156567245721817,0.030822094529867172
1751013823001831400,2.90983154296875,0.020897291600704193,0.01625273935496807,0.03226952254772186
1751013823011775500,2.919775390625,0.013500096276402473,0.020977986976504326,0.04168965667486191
1751013823021718500,2.929718505859375,0.008960205130279064,0.024039288982748985,0.0610167495906353
1751013823031662600,2.93966259765625,0.007281082216650248,0.025555694475769997,0.07658904790878296
1751013823041605400,2.94960546875,0.008405735716223717,0.027187146246433258,0.07963623851537704
1751013823051548400,2.95954833984375,0.010267551057040691,0.031088942661881447,0.06097333878278732
1751013823061492500,2.969492431640625,0.019655993208289146,0.04400740563869476,0.034864772111177444
1751013823071435500,2.979435546875,0.028603149577975273,0.06274247914552689,0.002834934974089265
1751013823081379300,2.98937939453125,0.03812900930643082,0.07653392106294632,-0.03740809112787247
1751013823091322400,2.999322265625,0.05404113233089447,0.08567309379577637,-0.0723719373345375
1751013823101266400,3.009266357421875,0.06632975488901138,0.10800689458847046,-0.09510654211044312
1751013823111209500,3.01920947265625,0.07851184904575348,0.10832620412111282,-0.10496529936790466
1751013823121152500,3.029152587890625,0.07896912097930908,0.09471345692873001,-0.10278043895959854
1751013823131096600,3.0390966796875,0.058943212032318115,0.06436673551797867,-0.07537704706192017
1751013823141039400,3.049039306640625,0.03093607723712921,0.026453178375959396,-0.026669960469007492
1751013823150983700,3.058983642578125,-0.004226436838507652,-0.00974610447883606,0.027338413521647453
1751013823160926500,3.068926513671875,-0.03449725732207298,-0.033910028636455536,0.07842423766851425
1751013823170870500,3.07887060546875,-0.04779814928770065,-0.03900652006268501,0.11481180042028427
1751013823180813600,3.0888134765625,-0.04362444207072258,-0.028315527364611626,0.12137755751609802
1751013823190757600,3.098757568359375,-0.022232601419091225,-0.016498815268278122,0.10287898033857346
1751013823200700400,3.108700439453125,0.0046602655202150345,0.003163302782922983,0.06797052919864655
1751013823210643500,3.1186435546875,0.02099156752228737,0.02736957184970379,0.006886668037623167
1751013823220587500,3.12858740234375,0.03729277849197388,0.03296221047639847,-0.04523565620183945
1751013823230530600,3.138530517578125,0.04700159654021263,0.04051733389496803,-0.07519861310720444
1751013823240474400,3.148474365234375,0.04092106595635414,0.03611139953136444,-0.07281029224395752
1751013823250417400,3.15841748046875,0.0198618546128273,0.029925674200057983,-0.05223843827843666
1751013823260361500,3.168361572265625,0.00015872440417297184,0.030940871685743332,-0.01429345179349184
1751013823270304500,3.178304443359375,-0.01733664609491825,0.03882356360554695,0.031867384910583496
1751013823280247600,3.18824755859375,-0.036370258778333664,0.043772246688604355,0.06450309604406357
1751013823290191400,3.19819140625,-0.0520288459956646,0.03267485648393631,0.06930583715438843
1751013823300134400,3.208134521484375,-0.06319201737642288,0.018130002543330193,0.04898618534207344
1751013823310078500,3.218078369140625,-0.06324661523103714,0.00882038939744234,0.029934462159872055
1751013823320021500,3.228021484375,-0.052270662039518356,0.003751861397176981,0.012866795994341373
1751013823329965600,3.237965576171875,-0.04050694778561592,0.0012042814632877707,0.010056362487375736
1751013823339908600,3.24790869140625,-0.0315757691860199,0.0007177218794822693,0.00686243362724781
1751013823349852700,3.257852783203125,-0.020675184205174446,0.014154435135424137,0.00595562718808651
1751013823359795500,3.26779541015625,0.0017337178578600287,0.030002107843756676,0.01278503704816103
1751013823369738500,3.277738525390625,0.020614730194211006,0.053645383566617966,0.020670391619205475
1751013823379682600,3.2876826171875,0.038775891065597534,0.06967548280954361,0.04181429371237755
1751013823389625600,3.29762548828125,0.04962188005447388,0.07353334128856659,0.05952324718236923
1751013823399569400,3.3075693359375,0.05012175813317299,0.06870768964290619,0.07389526069164276
1751013823409512400,3.317512451171875,0.04230697825551033,0.04789721965789795,0.08129272609949112
1751013823419456500,3.32745654296875,0.037399303168058395,0.022249378263950348,0.08022559434175491
1751013823429399600,3.337399658203125,0.025793246924877167,0.0010402307379990816,0.06441360712051392
1751013823439343400,3.34734326171875,0.018636003136634827,-0.0123618608340621,0.03744510933756828
1751013823449286400,3.357286376953125,0.0038362834602594376,-0.024206802248954773,0.0028250813484191895
1751013823459229400,3.3672294921875,0.0010689928894862533,-0.010963701643049717,-0.01835636980831623
1751013823469173500,3.377173583984375,0.0024671524297446012,0.006960970349609852,-0.020604077726602554
1751013823479116500,3.387116455078125,0.011357316747307777,0.012825516983866692,-0.015414908528327942
1751013823489060400,3.397060302734375,0.01696992851793766,0.015428224578499794,-0.0001805623178370297
1751013823499003400,3.40700341796875,0.025260083377361298,0.018675150349736214,0.017850102856755257
1751013823508947500,3.416947509765625,0.03217258304357529,0.015467372722923756,0.03913328796625137
1751013823518890500,3.426890380859375,0.027872378006577492,0.0011659319279715419,0.04216689616441727
1751013823528833300,3.436833251953125,0.02605237253010273,-0.001612277701497078,0.04114344343543053
1751013823538777600,3.446777587890625,0.017100956290960312,-0.0027055053506046534,0.03215101361274719
1751013823548720600,3.456720703125,0.013339507393538952,-0.006377205718308687,0.021769477054476738
1751013823558664400,3.46666455078125,0.0032927324064075947,-0.01158581580966711,0.016160594299435616
1751013823568607500,3.476607421875,-0.000731836655177176,-0.007707720622420311,0.01122122909873724
1751013823578551600,3.486551513671875,-0.005891178734600544,-0.005328719038516283,0.006945523899048567
1751013823588494600,3.49649462890625,-0.012717659585177898,-0.00021491710504051298,0.002855441300198436
1751013823598438400,3.5064384765625,-0.018037322908639908,0.010964500717818737,-0.004308462142944336
1751013823608381400,3.51638134765625,-0.014201573096215725,0.029560821130871773,-0.006854976527392864
1751013823618324500,3.526324462890625,-0.013070794753730297,0.04260844737291336,-0.013689180836081505
1751013823628268500,3.5362685546875,-0.00780572509393096,0.050383277237415314,-0.024281904101371765
1751013823638211600,3.546211669921875,0.001642371411435306,0.05768300220370293,-0.04326597973704338
1751013823648155400,3.5561552734375,0.003117762738838792,0.04568652808666229,-0.06956842541694641
1751013823658098400,3.566098388671875,0.007213970646262169,0.031680699437856674,-0.07668598741292953
1751013823668042500,3.57604248046875,0.00221974472515285,0.01583036221563816,-0.07192345708608627
1751013823677985500,3.585985595703125,-0.0019739349372684956,-0.009425459429621696,-0.0522240549325943
1751013823687928300,3.59592822265625,-0.011866512708365917,-0.0280326995998621,-0.019454391673207283
1751013823697872400,3.605872314453125,-0.016700683161616325,-0.030176011845469475,0.019727366045117378
1751013823707815400,3.6158154296875,-0.007902397774159908,-0.023604394868016243,0.05048394575715065
1751013823717756700,3.625756591796875,-0.00045619948650710285,-0.01751427911221981,0.06772898137569427
1751013823727699700,3.63569970703125,0.0014136058744043112,-0.0062523032538592815,0.06345514208078384
1751013823737643800,3.645643798828125,0.009309878572821617,-0.004005128052085638,0.050043459981679916
1751013823747586800,3.6555869140625,0.01333071943372488,-0.0033718282356858253,0.030191192403435707
1751013823757530600,3.665530517578125,0.019388878718018532,-0.001127848750911653,0.006838198751211166
1751013823767473700,3.6754736328125,0.02159477397799492,0.0032003207597881556,-0.00771650904789567
1751013823777416700,3.685416748046875,0.02984657883644104,0.005060805007815361,-0.005377721041440964
1751013823787360800,3.69536083984375,0.031868983060121536,0.014927283860743046,0.010635600425302982
1751013823797303600,3.705303466796875,0.026019882410764694,0.020351877436041832,0.024660605937242508
1751013823807247600,3.71524755859375,0.020381171256303787,0.018634671345353127,0.025611354038119316
1751013823817190700,3.725190673828125,0.012917929328978062,0.02388429455459118,0.029445772990584373
1751013823827134700,3.735134765625,0.013339241035282612,0.03044392541050911,0.02454901859164238
1751013823837077500,3.745077392578125,0.009747968055307865,0.023088807240128517,0.017165670171380043
1751013823847021600,3.755021484375,0.0015049523208290339,0.016573917120695114,0.008595884777605534
1751013823856964600,3.764964599609375,-0.0006732470938004553,0.006016080733388662,0.004471980035305023
1751013823866907600,3.77490771484375,0.0026546388398855925,0.011813515797257423,0.006332730874419212
1751013823876851500,3.7848515625,0.00398728484287858,0.013438044115900993,0.006473079323768616
1751013823886794500,3.79479443359375,0.01302472222596407,0.017523333430290222,0.006681871134787798
1751013823896738800,3.80473876953125,0.02328667975962162,0.02701883390545845,0.008253135718405247
1751013823906681600,3.814681640625,0.03976632282137871,0.03494999557733536,0.010208162479102612
1751013823916625700,3.824625732421875,0.05162111669778824,0.05161765590310097,0.005074653308838606
1751013823926568700,3.834568603515625,0.057072874158620834,0.06241251155734062,-0.004756938200443983
1751013823936511700,3.84451171875,0.05458521470427513,0.05811763182282448,-0.02046639285981655
1751013823946455800,3.854455810546875,0.0553109273314476,0.04529424384236336,-0.03207084909081459
1751013823956398800,3.86439892578125,0.05480492487549782,0.027306988835334778,-0.031315844506025314
1751013823966342700,3.8743427734375,0.05493781715631485,0.014813301153481007,-0.023906398564577103
1751013823976285700,3.88428564453125,0.056654490530490875,0.0031012510880827904,-0.019477294757962227
1751013823986229800,3.894229736328125,0.057490989565849304,-0.00755059439688921,-0.01696247234940529
1751013823996172500,3.904172607421875,0.05451890081167221,-0.011783954687416553,-0.017413876950740814
1751013824006116600,3.91411669921875,0.04338475689291954,-0.01823972351849079,-0.017520137131214142
1751013824016059600,3.9240595703125,0.034281808882951736,-0.02708141878247261,-0.02298201434314251
1751013824026002700,3.934002685546875,0.029860427603125572,-0.031132087111473083,-0.024716531857848167
1751013824035946500,3.943946533203125,0.03080824576318264,-0.026639332994818687,-0.02299346588551998
1751013824045889500,3.9538896484375,0.028803685680031776,-0.024451280012726784,-0.018015485256910324
1751013824055833600,3.96383349609375,0.023360982537269592,-0.01453100610524416,-0.018980082124471664
1751013824065776600,3.973776611328125,0.02514609880745411,0.004479437135159969,-0.018796857446432114
1751013824075720400,3.983720458984375,0.02803083509206772,0.016097476705908775,-0.010607636533677578
1751013824085663500,3.99366357421875,0.02533172257244587,0.012503541074693203,-0.014742727391421795
1751013824095607800,4.00360791015625,0.0222051702439785,0.003524960018694401,-0.011986088939011097
1751013824105550800,4.01355078125,0.016745690256357193,-0.011255850084125996,-0.007953530177474022
1751013824115494000,4.023493896484375,0.006843258626759052,-0.029281722381711006,-0.010732805356383324
1751013824125437700,4.033437744140625,0.0006631271098740399,-0.039502669125795364,-0.01293177716434002
1751013824135380700,4.043380615234375,0.007986287586390972,-0.03834552317857742,-0.003546531544998288
1751013824145324800,4.05332470703125,0.01497894898056984,-0.034925758838653564,0.0038016624748706818
1751013824155267800,4.063267822265625,0.022051505744457245,-0.024276310577988625,0.007921040058135986
1751013824165211600,4.073211669921875,0.029204756021499634,-0.007364439312368631,0.008329834789037704
1751013824175154700,4.08315478515625,0.04097006842494011,0.008746353909373283,0.012888900935649872
1751013824185098800,4.0930986328125,0.0461384654045105,0.017254620790481567,0.015441007912158966
1751013824195041500,4.10304150390625,0.04255491867661476,0.020024042576551437,0.018965700641274452
1751013824204984600,4.112984619140625,0.03797081857919693,0.01720854826271534,0.013880128972232342
1751013824214928600,4.1229287109375,0.030848460271954536,0.005257612559944391,0.010126403532922268
1751013824224871700,4.13287158203125,0.01745568960905075,-0.004397677723318338,0.008408398367464542
1751013824234815500,4.1428154296875,0.0030333404429256916,-0.01648576557636261,-0.0004732437082566321
1751013824244758500,4.152758544921875,-0.0064805359579622746,-0.023077622056007385,-0.00376064982265234
1751013824254702600,4.16270263671875,-0.006341519299894571,-0.024699753150343895,-0.006806507240980864
1751013824264645600,4.172645751953125,0.000036485307646216825,-0.02719992958009243,-0.006582535337656736
1751013824274588700,4.182588623046875,0.0036991306114941835,-0.02376498468220234,-0.0038304245099425316
1751013824284532500,4.192532470703125,0.013522200286388397,-0.010014284402132034,0.00566880451515317
1751013824294475500,4.2024755859375,0.0229194313287735,0.004059722647070885,0.019415242597460747
1751013824304419800,4.212419921875,0.0326082780957222,0.012227371335029602,0.03298511356115341
1751013824314363000,4.22236279296875,0.032168589532375336,0.01041322574019432,0.04417971149086952
1751013824324306700,4.232306640625,0.034220822155475616,0.007816644385457039,0.036323919892311096
1751013824334249700,4.242249755859375,0.03104899637401104,-0.0022383867762982845,0.022067751735448837
1751013824344193800,4.25219384765625,0.026285134255886078,-0.008876316249370575,0.011620703153312206
1751013824354136800,4.26213671875,0.022052571177482605,-0.021497301757335663,0.004595817066729069
1751013824364079600,4.27207958984375,0.014978683553636074,-0.02695784717798233,0.001067661214619875
1751013824374023700,4.282023681640625,0.0054885088466107845,-0.03231106698513031,0.0015816513914614916
1751013824383966700,4.291966796875,0.0021113541442900896,-0.029040439054369926,0.005594768561422825
1751013824393910500,4.30191064453125,0.005279717035591602,-0.01791987754404545,0.005049087107181549
1751013824403853600,4.311853515625,0.002040514023974538,-0.014935806393623352,0.009044094942510128
1751013824413797600,4.321797607421875,0.003430417738854885,-0.008449144661426544,0.011204451322555542
1751013824423740700,4.33174072265625,0.0046629286371171474,-0.000028762138754245825,0.009296029806137085
1751013824433684500,4.3416845703125,0.01432114839553833,0.010626811534166336,0.0037952708080410957
1751013824443627500,4.35162744140625,0.023301593959331512,0.019352659583091736,-0.015084677375853062
1751013824453571600,4.361571533203125,0.03579847887158394,0.030843399465084076,-0.034096717834472656
1751013824463514600,4.3715146484375,0.041135985404253006,0.0353822261095047,-0.055024903267621994
1751013824473457700,4.381457763671875,0.040712807327508926,0.028972262516617775,-0.06274540722370148
1751013824483401700,4.391401611328125,0.036740172654390335,0.017178719863295555,-0.06645465642213821
1751013824493344500,4.401344482421875,0.03358885273337364,0.0005049353349022567,-0.054189734160900116
1751013824503288800,4.411288818359375,0.023794012144207954,-0.025236114859580994,-0.03767094761133194
1751013824513232000,4.42123193359375,0.011462245136499405,-0.04458744078874588,-0.02533198893070221
1751013824523175700,4.43117578125,0.001785383210517466,-0.06476780772209167,-0.020115122199058533
1751013824533118700,4.44111865234375,-0.0038013961166143417,-0.06544505059719086,-0.02496660314500332
1751013824543061800,4.451061767578125,0.00012516857532318681,-0.050878625363111496,-0.027281688526272774
1751013824553005600,4.461005615234375,0.012103001587092876,-0.02251542918384075,-0.025468342006206512
1751013824562948600,4.470948486328125,0.025406822562217712,0.002555303042754531,-0.011667308397591114
1751013824572892700,4.480892578125,0.03790424019098282,0.028773590922355652,0.0022503710351884365
1751013824582835700,4.490835693359375,0.04121348261833191,0.0396488755941391,0.012149873189628124
1751013824592779500,4.500779541015625,0.042456645518541336,0.04061054438352585,0.02365393005311489
1751013824602722600,4.51072265625,0.03652525320649147,0.03659556061029434,0.029202893376350403
1751013824612666600,4.52066650390625,0.025376463308930397,0.02503717690706253,0.0361098013818264
1751013824622609700,4.530609619140625,0.019458919763565063,0.013862285763025284,0.044133905321359634
1751013824632553500,4.540553466796875,0.008749016560614109,0.00436065997928381,0.05339078605175018
1751013824642496500,4.55049658203125,-0.000990429543890059,-0.0037350833881646395,0.05188796669244766
1751013824652439600,4.560439453125,-0.009877131320536137,0.0026354643050581217,0.05457109957933426
1751013824662383600,4.570383544921875,-0.01338557992130518,0.012256932444870472,0.05112949758768082
1751013824672326700,4.58032666015625,-0.017068466171622276,0.012813000939786434,0.04463591054081917
1751013824682270700,4.590270751953125,-0.025259017944335938,0.012357600033283234,0.025623871013522148
1751013824692213800,4.6002138671875,-0.025915486738085747,0.014843926765024662,0.007639809977263212
1751013824702157800,4.61015771484375,-0.027360517531633377,0.011406319215893745,-0.0031470574904233217
1751013824712100900,4.620100830078125,-0.023620108142495155,-0.0021584921050816774,-0.011825766414403915
1751013824722045200,4.630045166015625,-0.02906893566250801,-0.018806710839271545,-0.011170096695423126
1751013824731988200,4.63998828125,-0.033550504595041275,-0.029589051380753517,-0.0060152821242809296
1751013824741931300,4.64993115234375,-0.03597318008542061,-0.04024409130215645,-0.00771757448092103
1751013824751875000,4.659875,-0.03626106679439545,-0.04674113914370537,-0.015601863153278828
1751013824761818000,4.669818115234375,-0.03765496611595154,-0.04607455059885979,-0.019215771928429604
1751013824771762200,4.67976220703125,-0.04090562090277672,-0.044388771057128906,-0.017498565837740898
1751013824781705200,4.689705322265625,-0.04284093901515007,-0.041791390627622604,-0.0085426215082407
1751013824791649000,4.69964892578125,-0.044441234320402145,-0.03936125338077545,0.004767591133713722
1751013824801592000,4.709592041015625,-0.04772624373435974,-0.03942517191171646,0.02369840443134308
1751013824811536100,4.7195361328125,-0.04553020000457764,-0.028542162850499153,0.03765097260475159
1751013824821479200,4.729479248046875,-0.03419046103954315,-0.005404086317867041,0.05114094913005829
1751013824831422200,4.739422119140625,-0.012014051899313927,0.017904965206980705,0.05251806974411011
1751013824841366000,4.749365966796875,0.020415792241692543,0.04394002631306648,0.05361928418278694
1751013824851309000,4.75930908203125,0.04843277856707573,0.06663282215595245,0.05216919630765915
1751013824861253000,4.769253173828125,0.07083475589752197,0.079498291015625,0.0398763082921505
1751013824871196000,4.77919580078125,0.08148261159658432,0.07045871764421463,0.02069728821516037
1751013824881140200,4.78914013671875,0.08654528111219406,0.038119953125715256,-0.011088337749242783
1751013824891083000,4.7990830078125,0.07966446876525879,-0.01167449913918972,-0.034996334463357925
1751013824901027300,4.80902734375,0.06273635476827621,-0.06223061680793762,-0.04833504185080528
1751013824910970000,4.81897021484375,0.04165929555892944,-0.1054406687617302,-0.047623444348573685
1751013824920913200,4.8289130859375,0.01468600146472454,-0.15261749923229218,-0.037391580641269684
1751013824930857200,4.838857177734375,-0.007379619404673576,-0.17460349202156067,-0.02298574335873127
1751013824940800300,4.84880029296875,-0.012530439533293247,-0.1728024035692215,-0.008991897106170654
1751013824950744000,4.858744140625,0.00112465291749686,-0.14523229002952576,0.012223376892507076
1751013824960687000,4.86868701171875,0.01655261218547821,-0.09528843313455582,0.02756078727543354
1751013824970631200,4.878631103515625,0.038967106491327286,-0.040894970297813416,0.03948083147406578
1751013824980574200,4.88857421875,0.05351116135716438,0.018992599099874496,0.041799645870923996
1751013824990518000,4.89851806640625,0.06635585427284241,0.06344448775053024,0.03358938544988632
1751013825000461000,4.9084609375,0.072270467877388,0.08014596998691559,0.011447065509855747
1751013825010404000,4.918404052734375,0.06465303152799606,0.0728214755654335,-0.01601358689367771
1751013825020348200,4.92834814453125,0.04375200718641281,0.03905658796429634,-0.05049699544906616
1751013825030291200,4.938291259765625,0.01191098801791668,0.0012301141396164894,-0.07229017466306686
1751013825040235000,4.948235107421875,-0.01743891090154648,-0.026084598153829575,-0.09137172251939774
1751013825050178000,4.958177978515625,-0.039133552461862564,-0.02726118266582489,-0.09814547747373581
1751013825060122000,4.9681220703125,-0.04348808899521828,-0.022704513743519783,-0.10659275203943253
1751013825070065000,4.97806494140625,-0.03428500145673752,-0.010539459995925426,-0.10241398960351944
1751013825080009200,4.98800927734375,-0.020429374650120735,0.017257550731301308,-0.08860629796981812
1751013825089952300,4.9979521484375,-0.004904743749648333,0.0424710288643837,-0.06762724369764328
1751013825099895000,5.00789501953125,-0.005390504375100136,0.05058487877249718,-0.05375883728265762
1751013825109839000,5.017839111328125,-0.007964715361595154,0.052561476826667786,-0.040755949914455414
1751013825119782100,5.0277822265625,-0.013243366964161396,0.04237888380885124,-0.020782509818673134
1751013825129726200,5.037726318359375,-0.01635873317718506,0.01998063176870346,-0.0004492752777878195
1751013825139669200,5.047669189453125,-0.017732391133904457,0.013117399998009205,0.026497654616832733
1751013825149613000,5.057613037109375,-0.018128404393792152,0.007674165070056915,0.04682129994034767
1751013825159556000,5.06755615234375,-0.018748654052615166,0.0043840957805514336,0.044387705624103546
1751013825169500200,5.077500244140625,-0.010245713405311108,0.011316304095089436,0.03648477420210838
1751013825179443200,5.087443115234375,-0.00018322547839488834,0.029920082539319992,0.023540480062365532
1751013825189387000,5.097386962890625,0.014007960446178913,0.049140382558107376,0.0028903286438435316
1751013825199330000,5.107330078125,0.0284084714949131,0.05931791663169861,-0.010087521746754646
1751013825209273000,5.117273193359375,0.04228966683149338,0.06909891217947006,-0.009954096749424934
1751013825219217200,5.127217041015625,0.04532620310783386,0.06867759674787521,0.0017385114915668964
1751013825229160200,5.13716015625,0.03298351541161537,0.055149804800748825,0.018859706819057465
1751013825239104000,5.14710400390625,0.01799231581389904,0.03441017121076584,0.042874496430158615
1751013825249047000,5.157047119140625,-0.0006130596739239991,0.022640597075223923,0.07155434787273407
1751013825258991000,5.1669912109375,-0.0032831449061632156,0.02659405954182148,0.0944756418466568
1751013825268934000,5.176933837890625,0.005263737868517637,0.04526042193174362,0.10538820922374725
1751013825278878200,5.186878173828125,0.018157431855797768,0.06089743971824646,0.09478270262479782
1751013825288821200,5.1968212890625,0.026274479925632477,0.06766213476657867,0.06278668344020844
1751013825298764300,5.206764404296875,0.026640398427844048,0.057013750076293945,0.028620725497603416
1751013825308708000,5.2167080078125,0.02245470881462097,0.038303978741168976,0.005283977836370468
1751013825318651100,5.226651123046875,0.007141532842069864,0.015968579798936844,-0.014142983593046665
1751013825328595200,5.23659521484375,-0.01245294138789177,-0.004794222768396139,-0.0216514989733696
1751013825338538200,5.246538330078125,-0.028987176716327667,-0.023439012467861176,-0.022607840597629547
1751013825348482000,5.25648193359375,-0.03947789967060089,-0.036073315888643265,-0.01565219648182392
1751013825358425000,5.266425048828125,-0.04664500057697296,-0.041613489389419556,-0.005531918257474899
1751013825368369200,5.276369140625,-0.0509641133248806,-0.035662923008203506,0.003727892879396677
1751013825378312200,5.286312255859375,-0.054480284452438354,-0.021409418433904648,0.014848188497126102
1751013825388256000,5.296256103515625,-0.06672896444797516,-0.009333314374089241,0.02143205516040325
1751013825398199000,5.306198974609375,-0.0717596709728241,0.023976972326636314,0.022106101736426353
1751013825408142000,5.31614208984375,-0.05277346447110176,0.06106122210621834,-0.0002205097407568246
1751013825418086100,5.326086181640625,-0.02016332559287548,0.09135947376489639,-0.04753929004073143
1751013825428029200,5.336029296875,0.008213188499212265,0.1098942756652832,-0.10165844857692719
1751013825437973000,5.345972900390625,0.007905061356723309,0.12345536053180695,-0.14250308275222778
1751013825447916000,5.355916015625,0.008198807947337627,0.11268047243356705,-0.14865578711032867
1751013825457860400,5.3658603515625,-0.010676080361008644,0.07468941807746887,-0.13071726262569427
1751013825467803000,5.375802978515625,-0.04882106930017471,0.028895830735564232,-0.09261888265609741
1751013825477747200,5.385747314453125,-0.07429340481758118,-0.004711132030934095,-0.040045954287052155
1751013825487690200,5.395690185546875,-0.08481022715568542,-0.019583821296691895,0.013198626227676868
1751013825497634000,5.405634033203125,-0.07440978288650513,-0.010847588069736958,0.05711787939071655
1751013825507577000,5.4155771484375,-0.04962987080216408,0.008864864706993103,0.07681035995483398
1751013825517520100,5.42552001953125,-0.021314609795808792,0.03220081329345703,0.0779041200876236
1751013825527464200,5.435464111328125,0.003915379289537668,0.0497094988822937,0.06687330454587936
1751013825537407200,5.4454072265625,0.020071180537343025,0.05229782685637474,0.04304014518857002
1751013825547351000,5.45535107421875,0.025359151884913445,0.04350992664694786,0.019809924066066742
1751013825557294000,5.465294189453125,0.020667994394898415,0.024479243904352188,0.002266349969431758
1751013825567238100,5.475238037109375,0.008795355446636677,0.00603365758433938,-0.008809204213321209
1751013825577181200,5.48518115234375,0.0018285263795405626,-0.007648332044482231,-0.005787315312772989
1751013825587125000,5.495125,-0.000556600687559694,-0.021792380139231682,0.002799248555675149
1751013825597068000,5.505068115234375,-0.0015028218040242791,-0.046059105545282364,0.01269715279340744
1751013825607012000,5.51501220703125,-0.004373176954686642,-0.05781536176800728,0.0237607229501009
1751013825616955100,5.524955078125,0.004238420631736517,-0.059183962643146515,0.035234153270721436
1751013825626898200,5.534898193359375,0.01173228956758976,-0.050336405634880066,0.043243877589702606
1751013825636842000,5.544842041015625,0.0223282091319561,-0.03243144229054451,0.051414720714092255
1751013825646785000,5.554784912109375,0.029571207240223885,-0.002311357529833913,0.05843481421470642
1751013825656729300,5.564729248046875,0.03773406147956848,0.01925039291381836,0.05366402864456177
1751013825666672000,5.574672119140625,0.03605334088206291,0.023239275440573692,0.04351711645722389
1751013825676616200,5.5846162109375,0.02376232109963894,0.010647051967680454,0.032648757100105286
1751013825686559200,5.594559326171875,0.004882107023149729,-0.005101284943521023,0.016219716519117355
1751013825696503000,5.6045029296875,-0.016389092430472374,-0.013801299966871738,0.010601244866847992
1751013825706446000,5.614446044921875,-0.03457768261432648,-0.024143951013684273,-0.008553008548915386
1751013825716389400,5.624389404296875,-0.051001664251089096,-0.04284040629863739,-0.018978750333189964
1751013825726332400,5.63433251953125,-0.04730812832713127,-0.048777658492326736,-0.020144948735833168
1751013825736275500,5.644275390625,-0.03796469420194626,-0.03880385309457779,-0.005058940965682268
1751013825746219500,5.654219482421875,-0.015793876722455025,-0.022460835054516792,0.010282198898494244
1751013825756162300,5.664162353515625,0.005390770733356476,-0.005756688769906759,0.02063070982694626
1751013825766106600,5.674106689453125,0.025773806497454643,0.0051622712053358555,0.01871403306722641
1751013825776049400,5.68404931640625,0.0396648533642292,0.009785518981516361,0.01810470223426819
1751013825785993500,5.693993408203125,0.040588706731796265,0.015919310972094536,0.04014448821544647
1751013825795936500,5.7039365234375,0.03443121165037155,0.02623985894024372,0.06948160380125046
1751013825805880600,5.713880615234375,0.025708826258778572,0.03189774602651596,0.09485647082328796
1751013825815823600,5.72382373046875,0.015350193716585636,0.016981912776827812,0.10487528145313263
1751013825825767400,5.733767333984375,0.00526773277670145,0.010542655363678932,0.10192796587944031
1751013825835710500,5.74371044921875,-0.0003097256412729621,0.0035238948184996843,0.08605924993753433
1751013825845653500,5.753653564453125,-0.00010679275874281302,0.006171875633299351,0.0647108182311058
1751013825855597600,5.76359765625,-0.0006780407857149839,0.021464811637997627,0.0398736447095871
1751013825865540600,5.77354052734375,0.003296460723504424,0.05686488002538681,0.01702532172203064
1751013825875484400,5.783484375,0.009767143055796623,0.08321872353553772,-0.007109308615326881
1751013825885427500,5.793427490234375,0.01985413208603859,0.0983758419752121,-0.02851739525794983
1751013825895371500,5.80337158203125,0.030101176351308823,0.11174464225769043,-0.034637339413166046
1751013825905314600,5.813314453125,0.03976206108927727,0.1143667921423912,-0.024296285584568977
1751013825915258400,5.82325830078125,0.04445934295654297,0.10396847873926163,-0.010732006281614304
1751013825925201400,5.833201416015625,0.043841224163770676,0.08516522496938705,-0.0002873550693038851
1751013825935145500,5.8431455078125,0.03699423745274544,0.06029289960861206,0.0026202842127531767
1751013825945088500,5.853088623046875,0.032824791967868805,0.038120221346616745,0.006711165886372328
1751013825955031300,5.86303125,0.026505377143621445,0.01684076525270939,0.017231984063982964
1751013825964975600,5.8729755859375,0.01991698332130909,0.0004719121498055756,0.020559603348374367
1751013825974918700,5.882918701171875,0.01167476549744606,-0.019053852185606956,0.024040887132287025
1751013825984862500,5.892862548828125,0.00020426444825716317,-0.0396113246679306,0.01842028647661209
1751013825994805500,5.902805419921875,-0.011034808121621609,-0.044072385877370834,0.011803662404417992
1751013826004749600,5.91274951171875,-0.02070527896285057,-0.03682086616754532,-0.001995772821828723
1751013826014692600,5.922692626953125,-0.025009213015437126,-0.01155492290854454,-0.026987941935658455
1751013826024636400,5.932636474609375,-0.022718096151947975,0.023382021114230156,-0.0515926219522953
1751013826034579500,5.942579345703125,-0.018794193863868713,0.049620017409324646,-0.07526092976331711
1751013826044523500,5.9525234375,-0.017726533114910126,0.06536941975355148,-0.08829524368047714
1751013826054466600,5.962466552734375,-0.01275654137134552,0.06430734694004059,-0.10093087702989578
1751013826064409600,5.97240966796875,-0.008375375531613827,0.05879513919353485,-0.09381943941116333
1751013826074353400,5.982353515625,-0.00009161273919744417,0.051785700023174286,-0.07334079593420029
1751013826084296400,5.99229638671875,0.003358512418344617,0.024293888360261917,-0.056468334048986435
1751013826094240500,6.002240478515625,-0.01185080036520958,-0.010885670781135559,-0.05048607662320137
1751013826104183600,6.01218359375,-0.02539403922855854,-0.031214911490678787,-0.04511634632945061
1751013826114127400,6.02212744140625,-0.022815300151705742,-0.030668163672089577,-0.03075125440955162
1751013826124070400,6.0320703125,-0.01654781773686409,-0.0229327455163002,-0.017720939591526985
1751013826134014700,6.0420146484375,-0.006963633466511965,-0.010261692106723785,-0.012732040137052536
1751013826143957500,6.05195751953125,0.005514607764780521,0.003959587775170803,-0.01161431148648262
1751013826153901600,6.061901611328125,0.023601466789841652,0.020065054297447205,-0.01381062064319849
1751013826163844600,6.0718447265625,0.04565456882119179,0.03778945654630661,-0.018640263006091118
1751013826173788700,6.08178857421875,0.06192994490265846,0.04102013632655144,-0.024535169824957848
1751013826183731500,6.0917314453125,0.06887653470039368,0.0412939116358757,-0.019645873457193375
1751013826193674500,6.101674560546875,0.06729435175657272,0.038967639207839966,-0.005702360533177853
1751013826203618600,6.11161865234375,0.05065225809812546,0.03268710523843765,0.00023382554354611784
1751013826213561600,6.1215615234375,0.029164543375372887,0.016513995826244354,0.005056011490523815
1751013826223505400,6.13150537109375,0.004482366610318422,0.007423028815537691,0.007726629264652729
1751013826233448400,6.141448486328125,-0.004824848845601082,0.00458729499951005,0.016747288405895233
1751013826243392500,6.151392578125,-0.010163421742618084,0.006630471907556057,0.02298627607524395
1751013826253335600,6.16133544921875,-0.012752280570566654,0.0039047268219292164,0.024595357477664948
1751013826263279400,6.171279296875,-0.019830962643027306,0.002216282533481717,0.02166215144097805
1751013826273222400,6.181222412109375,-0.02273407392203808,0.010277139022946358,0.01435284037142992
1751013826283166500,6.19116650390625,-0.019478892907500267,0.020715132355690002,0.0016847157385200262
1751013826293109500,6.201109619140625,-0.011639878153800964,0.030880950391292572,-0.008714928291738033
1751013826303053300,6.21105322265625,-0.007485080510377884,0.04080122709274292,-0.020802216604351997
1751013826312996400,6.220996337890625,-0.005594502668827772,0.04043024778366089,-0.017523866146802902
1751013826322939400,6.230939453125,-0.004458664450794458,0.05098116025328636,-0.02437804453074932
1751013826332883700,6.2408837890625,-0.00042290997225791216,0.056586846709251404,-0.0322524793446064
1751013826342826500,6.250826416015625,0.0007725830073468387,0.054365769028663635,-0.042704321444034576
1751013826352770600,6.2607705078125,-0.003364637726917863,0.04970071092247963,-0.055867791175842285
1751013826362713600,6.270713623046875,-0.011030812747776508,0.04439489543437958,-0.09007183462381363
1751013826372657700,6.28065771484375,-0.025367675349116325,0.053232595324516296,-0.14818334579467773
1751013826382600400,6.290600341796875,-0.031256988644599915,0.07580741494894028,-0.24281850457191467
1751013826392544500,6.30054443359375,-0.027895547449588776,0.10546038299798965,-0.33807578682899475
1751013826402487600,6.310487548828125,-0.006263222079724073,0.12527483701705933,-0.3977004885673523
1751013826412431400,6.320431396484375,0.022355105727910995,0.13812857866287231,-0.40276530385017395
1751013826422374400,6.33037451171875,0.044010333716869354,0.1371578574180603,-0.3658757209777832
1751013826432317400,6.3403173828125,0.05525420233607292,0.1183314397931099,-0.2916398346424103
1751013826442261500,6.350261474609375,0.0505843460559845,0.09819047898054123,-0.20090433955192566
1751013826452204500,6.36020458984375,0.038184136152267456,0.06292650103569031,-0.11319499462842941
1751013826462148400,6.3701484375,0.012830577790737152,0.02569311298429966,-0.04090216010808945
1751013826472091400,6.38009130859375,-0.007635016459971666,-0.008638229221105576,-0.0007097324123606086
1751013826482035500,6.390035400390625,-0.01667085476219654,-0.032826121896505356,0.021706627681851387
1751013826491978500,6.399978515625,-0.02936907485127449,-0.038662973791360855,0.033478863537311554
1751013826501922600,6.409922607421875,-0.040582578629255295,-0.0306982584297657,0.020266655832529068
1751013826511865300,6.419865234375,-0.030950458720326424,-0.013487046584486961,-0.01708577573299408
1751013826521809700,6.4298095703125,-0.0017390442080795765,0.005005411338061094,-0.07060039788484573
1751013826531752700,6.439752685546875,0.023326095193624496,0.016701482236385345,-0.11322002857923508
1751013826541696500,6.449696533203125,0.040644366294145584,0.03008386678993702,-0.12862534821033478
1751013826551639600,6.4596396484375,0.05517377331852913,0.034450117498636246,-0.11146634072065353
1751013826561583600,6.46958349609375,0.06166762486100197,0.025608690455555916,-0.05907557159662247
1751013826571526400,6.4795263671875,0.05463474988937378,0.007860586047172546,0.010577277280390263
1751013826581469400,6.489469482421875,0.039205990731716156,-0.023620640859007835,0.07848308980464935
1751013826591413500,6.49941357421875,0.023123694583773613,-0.054912518709897995,0.14190520346164703
1751013826601356500,6.5093564453125,-0.002294047037139535,-0.078995481133461,0.18108457326889038
1751013826611300400,6.51930029296875,-0.03087189607322216,-0.10182064026594162,0.18476052582263947
1751013826621243400,6.529243408203125,-0.06569565832614899,-0.10944979637861252,0.14917723834514618
1751013826631187500,6.5391875,-0.07999150454998016,-0.10093220323324203,0.10048026591539383
1751013826641130500,6.549130615234375,-0.07411710172891617,-0.08108898997306824,0.05217159166932106
1751013826651074300,6.55907421875,-0.06286098808050156,-0.05197558179497719,0.012503008358180523
1751013826661017300,6.569017333984375,-0.04687243327498436,-0.022406239062547684,-0.02419215440750122
1751013826670961400,6.57896142578125,-0.032703086733818054,0.00373028963804245,-0.05498868227005005
1751013826680904400,6.588904541015625,-0.00851306039839983,0.03259016573429108,-0.06531588733196259
1751013826690848500,6.5988486328125,0.013009808026254177,0.05536498874425888,-0.05548456311225891
1751013826700791600,6.60879150390625,0.021268270909786224,0.049606435000896454,-0.04051946476101875
1751013826710735600,6.618735595703125,0.02274579182267189,0.03614388778805733,-0.024763137102127075
1751013826720678400,6.628678466796875,0.02461612969636917,0.01853719912469387,-0.005282646510750055
1751013826730621400,6.638621337890625,0.025179389864206314,0.00888084340840578,0.018192319199442863
1751013826740565200,6.648565185546875,0.012959208339452744,0.0036008600145578384,0.018566492944955826
1751013826750508300,6.65850830078125,0.009807622991502285,-0.009040899574756622,0.00433029979467392
1751013826760452400,6.668452392578125,0.013994645327329636,-0.019808858633041382,-0.002986468840390444
1751013826770395400,6.6783955078125,0.007726895622909069,-0.03633164241909981,-0.01188329141587019
1751013826780339200,6.688339111328125,0.006177468225359917,-0.048528388142585754,-0.022274412214756012
1751013826790282200,6.6982822265625,0.008837699890136719,-0.06262529641389847,-0.03382400795817375
1751013826800226300,6.708226318359375,0.018805379047989845,-0.07435812056064606,-0.04909643903374672
1751013826810169300,6.71816943359375,0.0300870630890131,-0.07111625373363495,-0.06264420598745346
1751013826820113200,6.728113037109375,0.03548475727438927,-0.060319267213344574,-0.0758817121386528
1751013826830056200,6.73805615234375,0.043664656579494476,-0.05769765004515648,-0.07672407478094101
1751013826840000300,6.748000244140625,0.051354002207517624,-0.04908392205834389,-0.0639353096485138
1751013826849943000,6.757943115234375,0.061527810990810394,-0.031143272295594215,-0.03633776679635048
1751013826859887000,6.76788720703125,0.07069654017686844,-0.016681509092450142,-0.001076715998351574
1751013826869830100,6.777830078125,0.0785834938287735,-0.004658934194594622,0.025006815791130066
1751013826879773200,6.787773193359375,0.08897168189287186,0.002147573046386242,0.04722823202610016
1751013826889717200,6.79771728515625,0.09053176641464233,-0.0005573995877057314,0.05224962159991264
1751013826899660300,6.807660400390625,0.08852454274892807,-0.008746087551116943,0.042625490576028824
1751013826909604400,6.817604248046875,0.08320380747318268,-0.02532879263162613,0.02581268921494484
1751013826919547400,6.82754736328125,0.07605402171611786,-0.03353452309966087,0.005785451270639896
1751013826929491200,6.8374912109375,0.06235338747501373,-0.044382911175489426,-0.008679241873323917
1751013826939434200,6.847434326171875,0.04428357630968094,-0.04502766206860542,-0.021517543122172356
1751013826949378300,6.85737841796875,0.03414119407534599,-0.03857562318444252,-0.024293089285492897
1751013826959321300,6.8673212890625,0.032642632722854614,-0.02148904651403427,-0.020908210426568985
1751013826969265200,6.87726513671875,0.0343417264521122,0.006616090890020132,-0.018849587067961693
1751013826979208200,6.887208251953125,0.033484455198049545,0.04169151932001114,-0.020926587283611298
1751013826989152300,6.89715234375,0.035660792142152786,0.07455892115831375,-0.031205588951706886
1751013826999095300,6.90709521484375,0.04782344773411751,0.11919776350259781,-0.04905862361192703
1751013827009039000,6.9170390625,0.06445196270942688,0.14382241666316986,-0.07813288271427155
1751013827018982100,6.926982177734375,0.0796428993344307,0.13534770905971527,-0.10316180437803268
1751013827028926200,6.93692626953125,0.0851372629404068,0.11930855363607407,-0.10824764519929886
1751013827038869200,6.946869140625,0.07240309566259384,0.08329648524522781,-0.0982418805360794
1751013827048813300,6.956813232421875,0.049908172339200974,0.029699038714170456,-0.07634270936250687
1751013827058756400,6.96675634765625,0.02027890644967556,-0.005537777207791805,-0.03670874610543251
1751013827068699100,6.97669921875,-0.00509915454313159,-0.013003416359424591,0.005014466121792793
1751013827078643200,6.986643310546875,-0.025481125339865685,-0.010432400740683079,0.03519900143146515
1751013827088586200,6.996586181640625,-0.04809615761041641,-0.006822219584137201,0.026634806767106056
1751013827098530300,7.0065302734375,-0.07052423059940338,0.0028506475500762463,-0.02166401594877243
1751013827108473300,7.016473388671875,-0.07755604386329651,0.0005600627628155053,-0.09193098545074463
1751013827118417200,7.026417236328125,-0.06436434388160706,-0.0035151063930243254,-0.1493103951215744
1751013827128360200,7.036360107421875,-0.046008504927158356,-0.022359367460012436,-0.1801772266626358
1751013827138304300,7.04630419921875,-0.017062606289982796,-0.03440617769956589,-0.16635888814926147
1751013827148247300,7.056247314453125,0.01426522247493267,-0.04753183200955391,-0.10667717456817627
1751013827158191000,7.066191162109375,0.04038817062973976,-0.05538283288478851,-0.030061230063438416
1751013827168134100,7.076134033203125,0.05573650076985359,-0.057131461799144745,0.04947460815310478
1751013827178078200,7.086078125,0.06550044566392899,-0.05230554938316345,0.10371041297912598
1751013827188021200,7.096021240234375,0.06713216751813889,-0.04471314325928688,0.1287768930196762
1751013827197965000,7.105965087890625,0.06930530816316605,-0.03678757697343826,0.12101403623819351
1751013827207908000,7.115908203125,0.0617951899766922,-0.029678799211978912,0.09490813314914703
1751013827217852400,7.125852294921875,0.06042978912591934,-0.029217006638646126,0.054784152656793594
1751013827227795200,7.135795166015625,0.060983192175626755,-0.02370985597372055,0.026874225586652756
1751013827237739300,7.1457392578125,0.06529458612203598,-0.013553892262279987,0.006707170978188515
1751013827247682300,7.155682373046875,0.0646495670080185,-0.008304269053041935,-0.007119694724678993
1751013827257625300,7.165625244140625,0.05553889274597168,-0.0015744607662782073,-0.021101556718349457
1751013827267569400,7.1755693359375,0.05932404473423958,0.011700332164764404,-0.024951955303549767
1751013827277512200,7.18551220703125,0.0624077171087265,0.021038705483078957,-0.023661388084292412
1751013827287456300,7.195456298828125,0.06181063503026962,0.008767392486333847,-0.011052384972572327
1751013827297399300,7.2053994140625,0.06046734005212784,-0.007369765546172857,-0.00047590688336640596
1751013827307343400,7.21534326171875,0.059177301824092865,-0.013963752426207066,0.0199795663356781
1751013827317286100,7.2252861328125,0.054365504533052444,-0.014903581701219082,0.03526957333087921
1751013827327230200,7.235230224609375,0.04734514653682709,-0.018082331866025925,0.0401223860681057
1751013827337173200,7.24517333984375,0.034633878618478775,-0.010356234386563301,0.025549301877617836
1751013827347117300,7.255117431640625,0.027361050248146057,0.003191798459738493,0.008524245582520962
1751013827357060000,7.26506005859375,0.023308517411351204,0.018031464889645576,0.0033688987605273724
1751013827367004200,7.275004150390625,0.01949540339410305,0.027890220284461975,0.0057556238025426865
1751013827376947200,7.284947265625,0.020061591640114784,0.02401425689458847,0.018084993585944176
1751013827386891000,7.29489111328125,0.0265948586165905,0.020546020939946175,0.03940200060606003
1751013827396834000,7.304833984375,0.02629125863313675,0.01142842322587967,0.06215285137295723
1751013827406778400,7.3147783203125,0.029622074216604233,-0.012295282445847988,0.0861884132027626
1751013827416721400,7.324721435546875,0.026916036382317543,-0.06339441984891891,0.12219168990850449
1751013827426665200,7.334665283203125,0.020728448405861855,-0.0873602032661438,0.1673349291086197
1751013827436608300,7.344608154296875,0.014002900570631027,-0.09401970356702805,0.19358810782432556
1751013827446552300,7.35455224609375,-0.005273591727018356,-0.08700813353061676,0.1751909852027893
1751013827456495400,7.364495361328125,-0.016591759398579597,-0.07664337754249573,0.11077285557985306
1751013827466439200,7.374439208984375,-0.02467099204659462,-0.04884796589612961,0.025285648182034492
1751013827476382200,7.38438232421875,-0.01618056744337082,-0.01768978126347065,-0.052320197224617004
1751013827486325200,7.3943251953125,-0.011552792973816395,-0.0004644552827812731,-0.10578981041908264
1751013827496269300,7.404269287109375,-0.010307764634490013,0.0015694007743149996,-0.12692439556121826
1751013827506212400,7.41421240234375,-0.005245361942797899,-0.00765898497775197,-0.11831359565258026
1751013827516156200,7.42415625,0.004870122764259577,-0.016744624823331833,-0.08224054425954819
1751013827526099200,7.43409912109375,0.012839099392294884,-0.0315837599337101,-0.03531191870570183
1751013827536043300,7.444043212890625,0.018542524427175522,-0.04424522444605827,0.017560085281729698
1751013827545986000,7.453986083984375,0.0268382728099823,-0.04288328438997269,0.06410441547632217
1751013827555930000,7.46393017578125,0.029880667105317116,-0.04374242201447487,0.08979406952857971
1751013827565873200,7.473873046875,0.0357968807220459,-0.041622012853622437,0.09964457154273987
1751013827575817500,7.4838173828125,0.041557829827070236,-0.031075628474354744,0.08907528221607208
1751013827585760300,7.49376025390625,0.05235721543431282,-0.015241537243127823,0.07225289195775986
1751013827595704300,7.503704345703125,0.052087169140577316,-0.005697034299373627,0.047253530472517014
1751013827605647400,7.5136474609375,0.03653031587600708,0.002808036981150508,0.013079049997031689
1751013827615591200,7.523591064453125,0.01565459370613098,0.0067452541552484035,-0.017467673867940903
1751013827625534200,7.5335341796875,-0.011620170436799526,0.007272826507687569,-0.026320820674300194
1751013827635478300,7.543478271484375,-0.031920116394758224,0.01031708624213934,-0.018679412081837654
1751013827645421300,7.55342138671875,-0.044429514557123184,0.017665013670921326,0.010435597039759159
1751013827655365000,7.563365234375,-0.050929225981235504,0.031070034950971603,0.04887299984693527
1751013827665308200,7.57330810546875,-0.06456194818019867,0.023784425109624863,0.07926579564809799
1751013827675252200,7.583252197265625,-0.08131163567304611,0.02251409739255905,0.0865093246102333
1751013827685195300,7.5931953125,-0.06995484977960587,0.03813406825065613,0.060617007315158844
1751013827695139000,7.60313916015625,-0.03802221640944481,0.07079427689313889,0.007869907654821873
1751013827705082000,7.61308203125,0.0014586133183911443,0.11195050179958344,-0.0654839351773262
1751013827715026200,7.623026123046875,0.034568361937999725,0.13443903625011444,-0.13192766904830933
1751013827724969200,7.63296923828125,0.049558497965335846,0.13587979972362518,-0.17594200372695923
1751013827734912300,7.642912353515625,0.04982934147119522,0.10629155486822128,-0.18866579234600067
1751013827744856000,7.65285595703125,0.030045250430703163,0.0585959367454052,-0.16758953034877777
1751013827754799000,7.662799072265625,0.016451144590973854,-0.0012178635224699974,-0.1224694550037384
1751013827764743200,7.6727431640625,0.009848369285464287,-0.04159484803676605,-0.0627448707818985
1751013827774686200,7.682686279296875,0.01685408130288124,-0.0729551687836647,-0.006726345978677273
1751013827784630000,7.692630126953125,0.03223862871527672,-0.08448026329278946,0.04449023678898811
1751013827794573000,7.702572998046875,0.04650811478495598,-0.0773584395647049,0.09516007453203201
1751013827804517000,7.71251708984375,0.0627954751253128,-0.04956968501210213,0.1309308558702469
1751013827814460200,7.722460205078125,0.07279591262340546,-0.02215137518942356,0.13336710631847382
1751013827824404000,7.732404052734375,0.07021158188581467,-0.00233266269788146,0.1180877611041069
1751013827834347000,7.742346923828125,0.06179599091410637,0.021627530455589294,0.07532963901758194
1751013827844291300,7.752291259765625,0.05172497779130936,0.044443897902965546,0.02058037556707859
1751013827854234000,7.762234130859375,0.045521944761276245,0.05717780068516731,-0.026790868490934372
1751013827864178200,7.77217822265625,0.03700808435678482,0.05491890758275986,-0.06100902706384659
1751013827874121200,7.782121337890625,0.018881013616919518,0.04074423387646675,-0.08631757646799088
1751013827884065000,7.79206494140625,-0.002832538215443492,0.03720515966415405,-0.0943605899810791
1751013827894008000,7.802008056640625,-0.019534019753336906,0.040216926485300064,-0.0892995223402977
1751013827903952100,7.8119521484375,-0.028054803609848022,0.044800762087106705,-0.07866338640451431
1751013827913895200,7.821895263671875,-0.032281242311000824,0.052621930837631226,-0.062125690281391144
1751013827923839000,7.8318388671875,-0.029207952320575714,0.06325487047433853,-0.0379287414252758
1751013827933782000,7.841781982421875,-0.025615347549319267,0.07617146521806717,-0.0164780430495739
1751013827943726000,7.85172607421875,-0.017824536189436913,0.08149619400501251,-0.01273017656058073
1751013827953669000,7.861669189453125,-0.010459032841026783,0.08169939368963242,-0.020258400589227676
1751013827963613000,7.871613037109375,-0.014402109198272228,0.07982399314641953,-0.041725341230630875
1751013827973556000,7.881555908203125,-0.0212421715259552,0.06130516901612282,-0.07473788410425186
1751013827983500000,7.8915,-0.03284529969096184,0.03518382087349892,-0.1008930578827858
1751013827993443000,7.901443115234375,-0.03737666830420494,0.015231683850288391,-0.11316170543432236
1751013828003387100,7.91138720703125,-0.038240328431129456,-0.002862099092453718,-0.10597783327102661
1751013828013330200,7.921330078125,-0.03551378473639488,-0.012991432100534439,-0.0853806808590889
1751013828023274200,7.931274169921875,-0.03081117570400238,-0.02515648491680622,-0.05920366942882538
1751013828033217300,7.94121728515625,-0.017373930662870407,-0.022762037813663483,-0.03014565259218216
1751013828043161000,7.9511611328125,0.0005803027888759971,-0.02093990333378315,0.004205131437629461
1751013828053104000,7.961104248046875,0.007808654569089413,-0.02328348532319069,0.02894403412938118
1751013828063047200,7.971047119140625,0.014637798070907593,-0.022854981943964958,0.05035265162587166
1751013828072991200,7.9809912109375,0.009265403263270855,-0.011551727540791035,0.05211912840604782
1751013828082934000,7.99093408203125,0.008275507017970085,0.00577826052904129,0.042867839336395264
1751013828092878000,8.000878173828125,-0.0007709851488471031,0.021391840651631355,0.026866767555475235
1751013828102821000,8.010821044921874,-0.00717588746920228,0.03184448182582855,0.00205223192460835
1751013828112765200,8.02076513671875,-0.011802330613136292,0.04102413356304169,-0.018698586151003838
1751013828122708000,8.0307080078125,-0.02081207185983658,0.043292347341775894,-0.038122884929180145
1751013828132652000,8.040652099609375,-0.02923990972340107,0.036004338413476944,-0.051425639539957047
1751013828142595000,8.050594970703125,-0.03585387021303177,0.028564799576997757,-0.0507073849439621
1751013828152539100,8.0605390625,-0.04574458673596382,0.012135226279497147,-0.05131511762738228
1751013828162482000,8.07048193359375,-0.0511353574693203,-0.0038549257442355156,-0.04357624053955078
1751013828172426200,8.08042626953125,-0.05116038769483566,-0.005860818549990654,-0.022101307287812233
1751013828182369300,8.090369384765625,-0.05318119749426842,-0.012642824091017246,0.009291236288845539
1751013828192313000,8.10031298828125,-0.05993763729929924,-0.003373692510649562,0.04356824979186058
1751013828202256100,8.110256103515624,-0.054311174899339676,0.01925492100417614,0.06970584392547607
1751013828212200200,8.1202001953125,-0.03208363428711891,0.03993649780750275,0.07136020064353943
1751013828222143200,8.130143310546876,-0.0073471288196742535,0.049132660031318665,0.050819505006074905
1751013828232087000,8.140087158203125,0.02203313075006008,0.05222165957093239,0.02738049067556858
1751013828242030000,8.150030029296875,0.0238797664642334,0.036380376666784286,0.016045279800891876
1751013828251974100,8.15997412109375,0.0033955303952097893,0.0034820830915123224,0.006007025949656963
1751013828261917200,8.169917236328125,-0.029533125460147858,-0.03590074181556702,-0.0055090151727199554
1751013828271861000,8.179861083984376,-0.050758786499500275,-0.06624879688024521,-0.0022295983508229256
1751013828281804000,8.189803955078125,-0.06330147385597229,-0.07252001017332077,-0.0015728629659861326
1751013828291748000,8.199748046875,-0.06466847658157349,-0.06637183576822281,0.0032229574862867594
1751013828301691100,8.209691162109374,-0.05733199790120125,-0.033128127455711365,0.01949220895767212
1751013828311635000,8.219635009765625,-0.039557527750730515,0.01477868016809225,0.02689899131655693
1751013828321578000,8.229577880859376,-0.008884038776159286,0.05988224223256111,0.035233356058597565
1751013828331522300,8.239522216796875,0.015192002058029175,0.09112085402011871,0.03550552949309349
1751013828341465000,8.249465087890625,0.03343944996595383,0.10682365298271179,0.028971996158361435
1751013828351409200,8.2594091796875,0.027426298707723618,0.10785669088363647,0.010982876643538475
1751013828361352200,8.269352294921875,0.022313827648758888,0.09190861880779266,-0.010811901651322842
1751013828371296300,8.279296142578126,0.01678617112338543,0.07479194551706314,-0.018923090770840645
1751013828381239300,8.2892392578125,0.0054642739705741405,0.0547063872218132,-0.01678909920156002
1751013828391183000,8.29918310546875,-0.01070830412209034,0.028964539989829063,-0.00267754215747118
1751013828401126100,8.309126220703124,-0.02262967824935913,0.007139401976019144,0.013065468519926071
1751013828411070200,8.3190703125,-0.03152170777320862,-0.012684635818004608,0.02960476279258728
1751013828421013000,8.329012939453126,-0.030058033764362335,-0.027000458911061287,0.03991679102182388
1751013828430957000,8.33895703125,-0.021272266283631325,-0.03768639266490936,0.047675907611846924
1751013828440900000,8.348900146484375,-0.003010969841852784,-0.03695375844836235,0.060561880469322205
1751013828450844200,8.35884423828125,0.016086824238300323,-0.024116788059473038,0.07423348724842072
1751013828460787000,8.368786865234375,0.03343811631202698,-0.024762604385614395,0.0919371172785759
1751013828470731000,8.37873095703125,0.03133315593004227,-0.034265294671058655,0.11361417919397354
1751013828480674000,8.388674072265625,0.019151590764522552,-0.03945233300328255,0.1431656777858734
1751013828490618000,8.3986181640625,-0.013338708318769932,-0.04133066162467003,0.14504054188728333
1751013828500561000,8.408560791015624,-0.04027019068598747,-0.03999082371592522,0.12359490990638733
1751013828510504000,8.41850390625,-0.05486644431948662,-0.046612776815891266,0.07441005110740662
1751013828520448300,8.4284482421875,-0.06998840719461441,-0.053698115050792694,0.013529391027987003
1751013828530391300,8.438391357421875,-0.07635708898305893,-0.047744087874889374,-0.0349462665617466
1751013828540335000,8.448335205078125,-0.07801464200019836,-0.037274401634931564,-0.06797958165407181
1751013828550278100,8.458278076171876,-0.08381447196006775,-0.01858912967145443,-0.08416867256164551
1751013828560222200,8.46822216796875,-0.0878656730055809,0.005192098673433065,-0.09430360049009323
1751013828570165200,8.478165283203126,-0.09047184139490128,0.022709572687745094,-0.10248562693595886
1751013828580109000,8.488109130859375,-0.08307704329490662,0.02359454147517681,-0.10579220950603485
1751013828590052000,8.498052001953125,-0.07581780105829239,0.006371612660586834,-0.11503124982118607
1751013828599996200,8.50799609375,-0.07319911569356918,-0.01534593291580677,-0.12160579115152359
1751013828609939200,8.517939208984375,-0.06215684860944748,-0.021526064723730087,-0.11194011569023132
1751013828619883000,8.527883056640626,-0.040884848684072495,-0.013436180539429188,-0.08777086436748505
1751013828629826000,8.537825927734374,-0.0196117851883173,0.0023869911674410105,-0.05824865773320198
1751013828639770000,8.54777001953125,0.002600044244900346,0.017620006576180458,-0.0317656509578228
1751013828649713200,8.557713134765624,0.02654319442808628,0.03943076357245445,-0.014772288501262665
1751013828659657000,8.567656982421875,0.052627526223659515,0.057849183678627014,-0.007487477269023657
1751013828669600000,8.57760009765625,0.07157538086175919,0.06937694549560547,-0.010944260284304619
1751013828679544300,8.58754443359375,0.08374176919460297,0.06522400677204132,-0.022604644298553467
1751013828689487000,8.597487060546875,0.08992988616228104,0.0564291886985302,-0.034165158867836
1751013828699431200,8.60743115234375,0.09120927006006241,0.03471670299768448,-0.0430326871573925
1751013828709374200,8.617374267578125,0.06515716761350632,-0.0033657029271125793,-0.058516040444374084
1751013828719321600,8.627321533203125,0.04916514828801155,-0.04158046469092369,-0.06823577731847763
1751013828729264400,8.637264404296875,0.050030674785375595,-0.05874427407979965,-0.060982659459114075
1751013828739208700,8.647208740234374,0.06233181804418564,-0.05654636770486832,-0.032941438257694244
1751013828749151700,8.65715185546875,0.07920560240745544,-0.038907453417778015,-0.0003281014505773783
1751013828759095600,8.667095458984376,0.09096425771713257,-0.015570970252156258,0.035840556025505066
1751013828769038600,8.67703857421875,0.10205073654651642,0.014518222771584988,0.05091218277812004
1751013828778982700,8.686982666015625,0.09923257678747177,0.054370831698179245,0.04447904974222183
1751013828788925700,8.69692578125,0.0995580181479454,0.09278612583875656,0.03278191387653351
1751013828798869500,8.706869384765625,0.09973884373903275,0.11884755641222,0.016437029466032982
1751013828808812500,8.7168125,0.07591846585273743,0.13122247159481049,0.0003099919413216412
1751013828818756600,8.726756591796875,0.04002677649259567,0.1330411434173584,0.003328418591991067
1751013828828699600,8.73669970703125,0.002153431996703148,0.1122644916176796,0.017376858741044998
1751013828838643500,8.7466435546875,-0.03512309864163399,0.0872262492775917,0.03735136613249779
1751013828848586500,8.75658642578125,-0.06922860443592072,0.05902230739593506,0.03919161111116409
1751013828858530600,8.766530517578126,-0.09682641178369522,0.03430258110165596,0.020838702097535133
1751013828868473600,8.7764736328125,-0.1038622185587883,0.029562951996922493,-0.008408398367464542
1751013828878417700,8.786417724609375,-0.09350651502609253,0.03899693489074707,-0.03784378618001938
1751013828888360400,8.7963603515625,-0.0706736370921135,0.05416390299797058,-0.06342131644487381
1751013828898304800,8.8063046875,-0.055812399834394455,0.06482719630002975,-0.0908241793513298
1751013828908247800,8.816247802734376,-0.03826003894209862,0.06783204525709152,-0.10957096517086029
1751013828918191600,8.826191650390625,-0.03295368701219559,0.06829490512609482,-0.11081093549728394
1751013828928134700,8.836134765625,-0.025537850335240364,0.05505819246172905,-0.10449311882257462
1751013828938078700,8.84607861328125,-0.028663335368037224,0.025191372260451317,-0.09095627069473267
1751013828948021800,8.856021728515625,-0.03235767409205437,-0.003683950752019882,-0.07655629515647888
1751013828957965600,8.865965576171876,-0.02883297950029373,-0.017611218616366386,-0.058163437992334366
1751013828967908600,8.87590869140625,-0.029346169903874397,-0.015330220572650433,-0.034451983869075775
1751013828977852700,8.885852783203125,-0.016407469287514687,-0.009721336886286736,-0.017291639000177383
1751013828987795700,8.895795654296874,-0.0003195793251506984,-0.009678193368017673,-0.007126619108021259
1751013828997739500,8.905739501953125,0.018576348200440407,-0.010481935925781727,-0.007502391003072262
1751013829007682600,8.9156826171875,0.041124533861875534,-0.017585385590791702,-0.005697300657629967
1751013829017626600,8.925626708984375,0.04605164751410484,-0.034989409148693085,-0.007554056588560343
1751013829027569400,8.9355693359375,0.04040122032165527,-0.05422648787498474,-0.008012386038899422
1751013829037513700,8.945513671875,0.03479180112481117,-0.06249932944774628,-0.008176703006029129
1751013829047456500,8.95545654296875,0.02388535812497139,-0.05315563082695007,-0.004449076950550079
1751013829057400600,8.965400634765626,0.0117352195084095,-0.0338306687772274,-0.007839813828468323
1751013829067343600,8.975343505859374,0.0007835020078346133,-0.009260077029466629,-0.019523100927472115
1751013829077287700,8.98528759765625,-0.004539890680462122,0.014154435135424137,-0.028537634760141373
1751013829087230700,8.995230712890624,-0.0065620290115475655,0.032290030270814896,-0.028672924265265465
1751013829097174500,9.005174560546875,-0.0054458980448544025,0.038352981209754944,-0.029402364045381546
1751013829107117600,9.01511767578125,-0.010626012459397316,0.037216875702142715,-0.03527409955859184
1751013829117061600,9.0250615234375,-0.015739815309643745,0.039140477776527405,-0.03371695056557655
1751013829127004700,9.035004638671875,-0.023917051032185555,0.03762460872530937,-0.04296184703707695
1751013829136948500,9.044948486328124,-0.037939660251140594,0.035765718668699265,-0.04885435849428177
1751013829146891500,9.0548916015625,-0.0531950443983078,0.034507375210523605,-0.04609186202287674
1751013829156835600,9.064835693359376,-0.06551802158355713,0.034096185117959976,-0.03568049892783165
1751013829166778600,9.074778564453124,-0.07140947133302689,0.030108101665973663,-0.022352444007992744
1751013829176722400,9.084722412109375,-0.0722302570939064,0.025717614218592644,-0.023261645808815956
1751013829186665500,9.09466552734375,-0.05979675427079201,0.028596756979823112,-0.018069814890623093
1751013829196609500,9.104609619140625,-0.043364517390728,0.036864541471004486,-0.02027171663939953
1751013829206552600,9.114552490234376,-0.02599378302693367,0.037026725709438324,-0.032587770372629166
1751013829216496600,9.12449658203125,-0.014903048984706402,0.032216258347034454,-0.03695269301533699
1751013829226439700,9.134439697265625,-0.008735435083508492,0.02966867946088314,-0.03425624221563339
1751013829236383700,9.1443837890625,-0.006402239203453064,0.025111477822065353,-0.03260667994618416
1751013829246326800,9.154326904296875,-0.0025092302821576595,0.02208160050213337,-0.023611586540937424
1751013829256270600,9.1642705078125,-0.004297542851418257,0.01942642778158188,-0.013882526196539402
1751013829266213600,9.174213623046874,-0.007601726800203323,0.014897722750902176,-0.010962103493511677
1751013829276157700,9.18415771484375,-0.00881186779588461,0.006511961575597525,-0.012522449716925621
1751013829286100700,9.194100830078124,-0.006420348770916462,-0.0010596717474982142,-0.018977418541908264
1751013829296044500,9.20404443359375,-0.0014804512029513717,0.00012863067968282849,-0.019626164808869362
1751013829305987600,9.213987548828126,0.0015068164793774486,-0.0056922403164207935,-0.017723869532346725
1751013829315931600,9.223931640625,0.0031063109636306763,-0.011800733394920826,-0.008845956064760685
1751013829325874700,9.233874755859375,0.0052197957411408424,-0.011231082491576672,0.0013904364313930273
1751013829335818500,9.243818603515624,0.005765477195382118,-0.01299436204135418,0.013319799676537514
1751013829345761500,9.253761474609375,0.002561161993071437,-0.01127795409411192,0.01515871286392212
1751013829355705600,9.26370556640625,-0.0005581985460594296,-0.00627094553783536,0.01787220686674118
1751013829365648400,9.2736484375,-0.010152502916753292,0.014050837606191635,0.008296012878417969
1751013829375592700,9.2835927734375,-0.011885421350598335,0.03178003430366516,-0.00318940170109272
1751013829385535700,9.29353564453125,-0.013015666976571083,0.04048563912510872,-0.016272712498903275
1751013829395479600,9.3034794921875,-0.01031788531690836,0.028814071789383888,-0.03289509937167168
1751013829405422600,9.313422607421876,-0.013291836716234684,0.011950136162340641,-0.02960236743092537
1751013829415366700,9.32336669921875,-0.019573967903852463,-0.01619867794215679,-0.020601946860551834
1751013829425309700,9.333309814453125,-0.03213423490524292,-0.03940200060606003,-0.00364746549166739
1751013829435253500,9.34325341796875,-0.0405769869685173,-0.04873291775584221,0.007515707053244114
1751013829445196500,9.353196533203125,-0.038430746644735336,-0.042989812791347504,0.023261645808815956
1751013829455140600,9.363140625,-0.03003406524658203,-0.025541046634316444,0.03454013541340828
1751013829465083600,9.373083740234375,-0.02364221215248108,-0.0043862261809408665,0.03877083212137222
1751013829475027500,9.38302734375,-0.01242231484502554,0.02087305672466755,0.035541750490665436
1751013829484970500,9.392970458984376,-0.004597148858010769,0.03526371344923973,0.0274990014731884
1751013829494914600,9.40291455078125,-0.00036618465674109757,0.039200667291879654,0.013462545350193977
1751013829504857600,9.412857666015626,-0.005776130128651857,0.03188682720065117,0.00571833923459053
1751013829514801400,9.422801513671875,-0.007741809356957674,0.02008662559092045,0.0036155073903501034
1751013829524744400,9.432744384765625,-0.012346947565674782,0.0027395938523113728,0.0049617355689406395
1751013829534688800,9.442688720703124,-0.023620374500751495,-0.0158894844353199,0.015192268416285515
1751013829544631800,9.4526318359375,-0.03531378135085106,-0.027173297479748726,0.021433919668197632
1751013829554575600,9.46257568359375,-0.03635348007082939,-0.03531644493341446,0.01894732564687729
1751013829564518700,9.4725185546875,-0.030009564012289047,-0.04439915716648102,0.0062613580375909805
1751013829574462700,9.482462646484375,-0.016748353838920593,-0.057198308408260345,-0.008538627065718174
1751013829584405800,9.49240576171875,-0.0018258632626384497,-0.06492067873477936,-0.020440826192498207
1751013829594349600,9.502349609375,0.022401446476578712,-0.06155071407556534,-0.014881477691233158
1751013829604292600,9.512292724609376,0.030753118917346,-0.05794266238808632,-0.0024559672456234694
1751013829614236700,9.522236572265625,0.04440315067768097,-0.05594395846128464,0.004838431254029274
1751013829624179700,9.5321796875,0.04658214747905731,-0.03991412743926048,0.024050740525126457
1751013829634123500,9.54212353515625,0.04806552827358246,-0.031246602535247803,0.04361645132303238
1751013829644066600,9.552066650390625,0.042879022657871246,-0.026316825300455093,0.056895773857831955
1751013829654010600,9.5620107421875,0.04759175330400467,-0.015275891870260239,0.07143104076385498
1751013829663953700,9.57195361328125,0.04651903361082077,-0.013250291347503662,0.07865007221698761
1751013829673897500,9.5818974609375,0.05236946418881416,-0.01227664016187191,0.07558317482471466
1751013829683840500,9.591840576171874,0.05306108668446541,-0.01655048131942749,0.06291158497333527
1751013829693784800,9.601784912109375,0.05118941888213158,-0.02202167920768261,0.04231656342744827
1751013829703727600,9.6117275390625,0.04343162849545479,-0.026035329326987267,0.025539714843034744
1751013829713671700,9.621671630859375,0.04494404047727585,-0.015181349590420723,0.010324808768928051
1751013829723611000,9.63161083984375,0.04103851318359375,-0.004396346397697926,0.0021758025977760553
1751013829733555200,9.64155517578125,0.03693218529224396,0.0051596080884337425,0.00008841694943839684
1751013829743498000,9.651498046875,0.029253758490085602,0.012508068233728409,0.001350755337625742
1751013829753442000,9.661442138671875,0.020474381744861603,0.017313210293650627,-0.00005672533006872982
1751013829763385000,9.671385009765626,0.02257401868700981,0.022469889372587204,-0.0011638014111667871
1751013829773329000,9.681328857421875,0.014682806096971035,0.028360534459352493,0.00012729909212794155
1751013829783272000,9.69127197265625,0.010489924810826778,0.03188150003552437,-0.004744687583297491
1751013829793216000,9.701216064453124,0.002770752878859639,0.032871928066015244,-0.008165517821907997
1751013829803159000,9.711158935546875,0.0041010016575455666,0.03375290334224701,-0.018001103773713112
1751013829813102800,9.721102783203126,0.00010279801790602505,0.03374597802758217,-0.0244334377348423
1751013829823046000,9.7310458984375,-0.004040281753987074,0.027900073677301407,-0.02917945757508278
1751013829832990000,9.740989990234375,-0.015530490316450596,0.02694985829293728,-0.03411509469151497
1751013829842933000,9.75093310546875,-0.013332583010196686,0.03376621752977371,-0.037031520158052444
1751013829852876800,9.760876708984375,-0.007761250250041485,0.03140372782945633,-0.045413289219141006
1751013829862819800,9.77081982421875,-0.004325239919126034,0.024380439892411232,-0.060028184205293655
1751013829872764000,9.780763916015625,0.006229932885617018,0.027882497757673264,-0.06009689345955849
1751013829882707000,9.79070703125,0.01782320626080036,0.036312732845544815,-0.05264297127723694
1751013829892651000,9.800651123046874,0.02640390954911709,0.03482748940587044,-0.04733662307262421
1751013829902594000,9.810593994140625,0.01834811456501484,0.03133422136306763,-0.04297542944550514
1751013829912538000,9.8205380859375,0.0074619110673666,0.01931936852633953,-0.05167091637849808
1751013829922481200,9.830481201171875,0.0018511632224544883,0.006904511246830225,-0.05032335966825485
1751013829932425000,9.840425048828125,0.0015238607302308083,0.0031816784758120775,-0.040158070623874664
1751013829942368000,9.850367919921876,0.0064954496920108795,0.003352387109771371,-0.02582387439906597
1751013829952312000,9.86031201171875,0.008038751780986786,0.002799514913931489,-0.014463894069194794
1751013829962255000,9.870255126953126,0.020711136981844902,0.006043777801096439,0.004181695636361837
1751013829972199000,9.880198974609375,0.030658310279250145,0.02382730133831501,0.017248228192329407
1751013829982142000,9.890141845703125,0.03641419857740402,0.024103738367557526,0.012395682744681835
1751013829992086000,9.9000859375,0.034219224005937576,0.016765397042036057,-0.006776946131139994
1751013830002029000,9.910029052734375,0.022475481033325195,-0.00009108010999625549,-0.015089470893144608
1751013830011972900,9.919972900390626,-0.005029379855841398,-0.006649380549788475,-0.02966601587831974
1751013830021916000,9.929916015625,-0.04053783789277077,-0.025004418566823006,-0.049381665885448456
1751013830031860000,9.93985986328125,-0.06840462237596512,-0.03479286655783653,-0.0704914778470993
1751013830041803000,9.949802978515624,-0.08868326246738434,-0.024764202535152435,-0.08339928835630417
1751013830051747000,9.9597470703125,-0.10579806566238403,-0.007229417096823454,-0.09413608908653259
1751013830061690000,9.969690185546876,-0.11324559897184372,0.00014168016787152737,-0.10745854675769806
1751013830071634200,9.97963427734375,-0.1139497384428978,0.017371533438563347,-0.10946390777826309
1751013830081577000,9.989576904296875,-0.10670594125986099,0.04150989279150963,-0.11639957875013351
1751013830091521000,9.99952099609375,-0.0976748913526535,0.061283331364393234,-0.12324123829603195
1751013830101464000,10.009464111328125,-0.09056612104177475,0.07607585936784744,-0.12521304190158844
1751013830111407900,10.019407958984376,-0.09450013935565948,0.07445479184389114,-0.12908607721328735
1751013830121351000,10.029350830078124,-0.10927855223417282,0.07037190347909927,-0.13162833452224731
1751013830131295000,10.039294921875,-0.1345575451850891,0.05904680863022804,-0.1347077488899231
1751013830141239000,10.049239013671874,-0.14919933676719666,0.053955111652612686,-0.12979768216609955
1751013830151181800,10.059181884765625,-0.1359567642211914,0.0611477755010128,-0.11171481013298035
1751013830161126000,10.0691259765625,-0.11429940909147263,0.07081824541091919,-0.0800732672214508
1751013830171069000,10.07906884765625,-0.09167292714118958,0.08193933963775635,-0.052026182413101196
1751013830181013000,10.089012939453125,-0.07814113795757294,0.08554898947477341,-0.025900838896632195
1751013830190955800,10.098955810546874,-0.0881250649690628,0.08587042987346649,-0.002042910782620311
1751013830200900000,10.108900146484375,-0.09001351147890091,0.0745602548122406,0.025849973782896996
1751013830210843100,10.118843017578126,-0.09057410806417465,0.05597511678934097,0.045226600021123886
1751013830220787000,10.128786865234375,-0.09740005433559418,0.03212624415755272,0.04320712387561798
1751013830230730000,10.13872998046875,-0.10056629031896591,0.013746172189712524,0.021760156378149986
1751013830240674000,10.148674072265624,-0.10027307271957397,-0.0031401331070810556,-0.008840363472700119
1751013830250617000,10.1586171875,-0.10082594305276871,-0.014280668459832668,-0.03520645573735237
1751013830260561000,10.168560791015626,-0.09151926636695862,-0.018860505893826485,-0.05139527842402458
1751013830270504000,10.17850390625,-0.08017339557409286,-0.02437165193259716,-0.05308106169104576
1751013830280448000,10.188447998046875,-0.06896734982728958,-0.03357234224677086,-0.04008350521326065
1751013830290391000,10.19839111328125,-0.05778340622782707,-0.049551572650671005,-0.01793772168457508
1751013830300334800,10.2083349609375,-0.0521625354886055,-0.06150011345744133,0.0027361316606402397
1751013830310278000,10.21827783203125,-0.06127480790019035,-0.06817186623811722,0.013462545350193977
1751013830320222000,10.228221923828125,-0.06173020973801613,-0.06556542962789536,0.023785756900906563
1751013830330165000,10.2381650390625,-0.05621640011668205,-0.060692641884088516,0.02864016592502594
1751013830340108800,10.24810888671875,-0.04472299665212631,-0.042454782873392105,0.03165353462100029
1751013830350051800,10.2580517578125,-0.038000646978616714,-0.025493908673524857,0.025618543848395348
1751013830359996200,10.26799609375,-0.033408023416996,-0.011681956239044666,0.00950881652534008
1751013830369939200,10.277939208984375,-0.034282341599464417,-0.011638013646006584,-0.015783224254846573
1751013830379883000,10.287883056640625,-0.029213279485702515,-0.016510000452399254,-0.03356035798788071
1751013830389826000,10.297825927734374,-0.03327140212059021,-0.015747271478176117,-0.04415254667401314
1751013830399770000,10.30777001953125,-0.03134620562195778,-0.024601483717560768,-0.05059926211833954
1751013830409713200,10.317713134765626,-0.030460437759757042,-0.03513641655445099,-0.047266580164432526
1751013830419657000,10.327656982421875,-0.032226912677288055,-0.03599528595805168,-0.037341780960559845
1751013830429600000,10.33760009765625,-0.02863750420510769,-0.028256937861442566,-0.018999790772795677
1751013830439544000,10.3475439453125,-0.01877821423113346,-0.029270803555846214,-0.00404454255476594
1751013830449486800,10.35748681640625,-0.01858540251851082,-0.04068431258201599,0.005074120592325926
1751013830459431000,10.367430908203126,-0.01763465441763401,-0.04103478416800499,0.006145243998616934
1751013830469374000,10.3773740234375,-0.0046911584213376045,-0.03455584496259689,0.0067873322404921055
1751013830479318000,10.387318115234375,0.014461230486631393,-0.03500112518668175,0.001812014845199883
1751013830489260800,10.3972607421875,0.022915702313184738,-0.044141095131635666,0.00436012726277113
1751013830499204900,10.407204833984375,0.030410369858145714,-0.05386482924222946,0.009703493677079678
1751013830509148000,10.41714794921875,0.03924673795700073,-0.06317097693681717,0.022729814052581787
1751013830519092000,10.427092041015625,0.04833477735519409,-0.06634093821048737,0.03886217623949051
1751013830529035000,10.437034912109375,0.05751389265060425,-0.06112939864397049,0.045830871909856796
1751013830538979000,10.44697900390625,0.06601870059967041,-0.04160070791840553,0.05943509563803673
1751013830548922000,10.456922119140625,0.0661688968539238,-0.01786235347390175,0.06383011490106583
1751013830558866000,10.466865966796876,0.06697078049182892,0.005327653605490923,0.06830155849456787
1751013830568809000,10.47680908203125,0.060454290360212326,0.022108230739831924,0.06396486610174179
1751013830578753000,10.4867529296875,0.06477580219507217,0.03580300509929657,0.06220238655805588
1751013830588696000,10.496696044921874,0.06851886957883835,0.02984418161213398,0.07002568989992142
1751013830598639900,10.506639892578125,0.06930983066558838,0.020147079601883888,0.0797685980796814
1751013830608583000,10.5165830078125,0.07069414108991623,0.012685701251029968,0.09545648097991943
1751013830618527000,10.52652685546875,0.06973673403263092,-0.0018002968281507492,0.11084742099046707
1751013830628470800,10.536470703125,0.05729072168469429,-0.009548231028020382,0.10869345813989639
1751013830638413800,10.546413818359374,0.0487305223941803,-0.006656304933130741,0.09856785088777542
1751013830648358100,10.556358154296875,0.039922382682561874,0.004579305648803711,0.07860612869262695
1751013830658301000,10.566301025390626,0.02624598518013954,0.012746954336762428,0.05397827923297882
1751013830668245000,10.576244873046875,0.0052381716668605804,0.018980348482728004,0.026744529604911804
1751013830678188000,10.58618798828125,-0.0016325177857652307,0.019096462056040764,0.011965050362050533
1751013830688132000,10.596132080078124,-0.007803594693541527,0.01756194978952408,0.0006056028068996966
1751013830698075100,10.6060751953125,-0.009750098921358585,0.006097307428717613,0.002293514320626855
1751013830708019000,10.61601904296875,-0.014771489426493645,-0.00019441076437942684,0.0017209346406161785
1751013830717962000,10.6259619140625,-0.021750302985310555,-0.006169745232909918,-0.0033859428949654102
1751013830727906300,10.63590625,-0.022342057898640633,-0.009856625460088253,-0.013314473442733288
1751013830737849300,10.645849365234374,-0.01816435717046261,-0.005627791862934828,-0.03278564289212227
1751013830747793200,10.655793212890625,-0.009734386578202248,-0.007892011664807796,-0.04837978258728981
1751013830757736200,10.665736083984376,-0.011827897280454636,-0.016658606007695198,-0.046435676515102386
1751013830767680300,10.67568017578125,-0.006739927921444178,-0.013658021576702595,-0.04180443659424782
1751013830777623300,10.685623291015625,0.003665574826300144,-0.011628160253167152,-0.04069390147924423
1751013830787567000,10.695567138671874,0.011916047893464565,-0.013667075894773006,-0.043462786823511124
1751013830797510100,10.70551025390625,0.009900301694869995,-0.011606588959693909,-0.04381512477993965
1751013830807454500,10.715454345703124,0.006896521896123886,-0.01062228437513113,-0.04457465931773186
1751013830817397200,10.725397216796875,0.010988202877342701,-0.0024349282030016184,-0.0372440405189991
1751013830827341300,10.73534130859375,0.012146411463618279,-0.007071225438266993,-0.03539527580142021
1751013830837284400,10.745284423828124,0.004862399306148291,-0.02394554577767849,-0.039446208626031876
1751013830847228400,10.755228515625,0.0006303702248260379,-0.03133475407958031,-0.03464293107390404
1751013830857171200,10.765171142578126,0.006667223758995533,-0.02316550724208355,-0.01919100433588028
1751013830867115300,10.775115234375,0.019480757415294647,-0.017957162111997604,-0.008726912550628185
1751013830877058300,10.785058349609375,0.024411866441369057,-0.014874020591378212,0.0054213968105614185
1751013830887002000,10.795002197265624,0.024266457185149193,-0.01324150338768959,0.010130664333701134
1751013830896945200,10.804945068359375,0.02761485055088997,-0.009229717776179314,0.0035872780717909336
1751013830906889200,10.81488916015625,0.033303096890449524,-0.01092455256730318,0.0020149475894868374
1751013830916832300,10.824832275390625,0.03518301993608475,-0.011538411490619183,0.004840295296162367
1751013830926776000,10.834776123046876,0.037046968936920166,-0.011148524470627308,0.015247396193444729
1751013830936720100,10.84472021484375,0.04583379998803139,-0.0034916705917567015,0.01925838366150856
1751013830946663200,10.8546630859375,0.04988287016749382,0.0013949638232588768,0.019659455865621567
1751013830956606200,10.864606201171876,0.04798164218664169,0.01841522566974163,0.0009150621481239796
1751013830966550300,10.87455029296875,0.05459506809711456,0.044561341404914856,-0.02786225825548172
1751013830976494300,10.884494384765626,0.062193866819143295,0.0761866495013237,-0.06510470062494278
1751013830986437400,10.894437255859375,0.06672869622707367,0.10927002876996994,-0.09157998114824295
1751013830996381200,10.904381103515625,0.07519727945327759,0.12698350846767426,-0.1072513535618782
1751013831006324200,10.91432421875,0.08025062829256058,0.1420745849609375,-0.09222100675106049
1751013831016268300,10.924268310546875,0.0515097975730896,0.23390117287635803,0.06462719291448593
1751013831026211300,10.93421142578125,-0.0041092573665082455,0.06817372888326645,0.1511136144399643
1751013831036155100,10.944155029296875,-0.06404023617506027,-0.10993688553571701,0.17440375685691833
1751013831046098200,10.95409814453125,-0.07305184006690979,-0.17409776151180267,0.16840232908725739
1751013831056042200,10.964042236328124,-0.02991342358291149,-0.19617509841918945,0.10329416394233704
1751013831065985300,10.9739853515625,0.004869323689490557,-0.12368012964725494,0.01812094636261463
1751013831075929000,10.98392919921875,0.022167885676026344,-0.09025346487760544,-0.08006447553634644
1751013831085872000,10.9938720703125,0.03243011236190796,-0.05961938947439194,-0.13623186945915222
1751013831095816200,11.003816162109375,0.05396203324198723,0.02648460492491722,-0.11298487335443497
