time,seconds_elapsed,z,y,x
1751014002368134000,0.1201337890625,-1.010162353515625,-0.0844879150390625,0.03289794921875
1751014002378076700,0.13007666015625,-1.0115814208984375,-0.0813446044921875,0.02813720703125
1751014002388020700,0.140020751953125,-1.012725830078125,-0.0798492431640625,0.02203369140625
1751014002397964800,0.14996484375,-1.0149078369140625,-0.075958251953125,0.02032470703125
1751014002407907800,0.159907958984375,-1.0180206298828125,-0.072235107421875,0.02215576171875
1751014002417851600,0.1698515625,-1.0227813720703125,-0.0695343017578125,0.0215911865234375
1751014002427795700,0.179795654296875,-1.025665283203125,-0.0655517578125,0.0177764892578125
1751014002437738800,0.18973876953125,-1.02362060546875,-0.0634002685546875,0.0108184814453125
1751014002447682600,0.1996826171875,-1.0262908935546875,-0.0634613037109375,0.0081024169921875
1751014002457626600,0.209626708984375,-1.0257110595703125,-0.0717315673828125,0.0064849853515625
1751014002467569700,0.219569580078125,-1.0184173583984375,-0.0833740234375,0.0050048828125
1751014002477513500,0.229513427734375,-1.0154571533203125,-0.0920562744140625,0.00531005859375
1751014002487457800,0.239457763671875,-1.0178375244140625,-0.1008453369140625,0.0036773681640625
1751014002497401600,0.249401611328125,-1.017425537109375,-0.1089324951171875,0.000732421875
1751014002507344600,0.2593447265625,-1.015716552734375,-0.10955810546875,0.0008087158203125
1751014002517288700,0.269288818359375,-1.013214111328125,-0.1084136962890625,0.0076751708984375
1751014002527232800,0.279232666015625,-1.0120697021484375,-0.104400634765625,0.01025390625
1751014002537175600,0.289175537109375,-1.014190673828125,-0.0927886962890625,0.0085296630859375
1751014002547119600,0.29911962890625,-1.0105438232421875,-0.084503173828125,0.00885009765625
1751014002557063700,0.309063720703125,-1.0079803466796875,-0.0804443359375,0.006927490234375
1751014002567006500,0.31900634765625,-1.0101165771484375,-0.07958984375,0.006988525390625
1751014002576950800,0.32895068359375,-1.0048065185546875,-0.0820465087890625,0.005279541015625
1751014002586894800,0.338894775390625,-0.9941558837890625,-0.0901336669921875,0.0102386474609375
1751014002596837600,0.348837646484375,-0.9809112548828125,-0.1046905517578125,0.0118865966796875
1751014002606781700,0.35878173828125,-0.9678497314453125,-0.1181793212890625,0.0115509033203125
1751014002616725800,0.368725830078125,-0.9639739990234375,-0.1262359619140625,0.0084381103515625
1751014002626668800,0.378668701171875,-0.96636962890625,-0.128631591796875,0.0162200927734375
1751014002636612600,0.388612548828125,-0.97314453125,-0.126312255859375,0.022979736328125
1751014002646556700,0.398556640625,-0.97412109375,-0.12274169921875,0.0195770263671875
1751014002656499700,0.408499755859375,-0.9784393310546875,-0.114837646484375,0.024810791015625
1751014002666443500,0.418443603515625,-0.99090576171875,-0.10516357421875,0.0239410400390625
1751014002676387800,0.428387939453125,-0.9954833984375,-0.097991943359375,0.016448974609375
1751014002686330600,0.43833056640625,-0.9956512451171875,-0.0928802490234375,0.0105438232421875
1751014002696274700,0.448274658203125,-1.0023651123046875,-0.0858154296875,0.007232666015625
1751014002706218800,0.45821875,-1.0091552734375,-0.082427978515625,0.0059051513671875
1751014002716161800,0.468161865234375,-1.009429931640625,-0.082977294921875,0.005340576171875
1751014002726105600,0.478105712890625,-1.0080718994140625,-0.0832672119140625,0.0059356689453125
1751014002736049700,0.488049560546875,-1.0100860595703125,-0.08282470703125,0.0025482177734375
1751014002745992700,0.49799267578125,-1.0082550048828125,-0.082672119140625,0.00323486328125
1751014002755936500,0.5079365234375,-1.0051727294921875,-0.08404541015625,0.008819580078125
1751014002765880600,0.517880615234375,-1.004974365234375,-0.0864410400390625,0.01397705078125
1751014002775823600,0.52782373046875,-1.009002685546875,-0.08917236328125,0.0125274658203125
1751014002785767700,0.537767578125,-1.0108184814453125,-0.0899505615234375,0.0152587890625
1751014002795711700,0.547711669921875,-1.0116729736328125,-0.090728759765625,0.0196380615234375
1751014002805654800,0.55765478515625,-1.018218994140625,-0.0944976806640625,0.0157623291015625
1751014002815598800,0.567598876953125,-1.0211029052734375,-0.0931396484375,0.0205230712890625
1751014002825542700,0.577542724609375,-1.0226287841796875,-0.0872802734375,0.0260772705078125
1751014002835485700,0.587485595703125,-1.0213775634765625,-0.084747314453125,0.0187835693359375
1751014002845429800,0.5974296875,-1.0245361328125,-0.08514404296875,0.008941650390625
1751014002855373600,0.60737353515625,-1.0303497314453125,-0.086883544921875,0.0052642822265625
1751014002865316600,0.617316650390625,-1.0282135009765625,-0.0889129638671875,0.0040283203125
1751014002875260700,0.6272607421875,-1.0276336669921875,-0.092071533203125,0.0039825439453125
1751014002885204500,0.63720458984375,-1.03106689453125,-0.092376708984375,0.0043487548828125
1751014002895143200,0.64714306640625,-1.0341796875,-0.091217041015625,0.0101776123046875
1751014002905087200,0.657087158203125,-1.032073974609375,-0.0914764404296875,0.0165863037109375
1751014002915031300,0.66703125,-1.030548095703125,-0.0940399169921875,0.0181884765625
1751014002924974000,0.67697412109375,-1.0298919677734375,-0.0951080322265625,0.020050048828125
1751014002934918100,0.686918212890625,-1.0234832763671875,-0.094207763671875,0.0182952880859375
1751014002944862200,0.6968623046875,-1.02191162109375,-0.091705322265625,0.0170440673828125
1751014002954805200,0.70680517578125,-1.0287322998046875,-0.0888519287109375,0.014739990234375
1751014002964749000,0.7167490234375,-1.02996826171875,-0.085845947265625,0.0128173828125
1751014002974693000,0.726693115234375,-1.0261993408203125,-0.0851593017578125,0.0114288330078125
1751014002984636200,0.73663623046875,-1.0222930908203125,-0.0816650390625,0.0057830810546875
1751014002994580200,0.746580322265625,-1.0189361572265625,-0.0750885009765625,-0.0028839111328125
1751014003004524300,0.756524169921875,-1.0145721435546875,-0.0728912353515625,-0.0087432861328125
1751014003014467300,0.76646728515625,-1.010833740234375,-0.0781402587890625,-0.0089263916015625
1751014003024411100,0.7764111328125,-1.0084686279296875,-0.0818023681640625,-0.006988525390625
1751014003034355200,0.786355224609375,-1.006988525390625,-0.08331298828125,-0.0031280517578125
1751014003044298200,0.79629833984375,-1.003662109375,-0.0911102294921875,-0.0047607421875
1751014003054242000,0.806241943359375,-1.001953125,-0.0968017578125,-0.0079803466796875
1751014003064186000,0.81618603515625,-1.003936767578125,-0.0931396484375,-0.0053253173828125
1751014003074129200,0.826129150390625,-1.0054168701171875,-0.0859375,0.003021240234375
1751014003084073000,0.836072998046875,-1.0048370361328125,-0.0841064453125,0.0099029541015625
1751014003094017300,0.846017333984375,-1.010009765625,-0.0805206298828125,0.01165771484375
1751014003103960300,0.855960205078125,-1.0124664306640625,-0.0744781494140625,0.0076751708984375
1751014003113904000,0.865904052734375,-1.0135345458984375,-0.0695343017578125,0.000701904296875
1751014003123848200,0.87584814453125,-1.016326904296875,-0.0640106201171875,-0.003997802734375
1751014003133791200,0.885791259765625,-1.0204925537109375,-0.058837890625,-0.0114288330078125
1751014003143735300,0.8957353515625,-1.0177764892578125,-0.0570220947265625,-0.0151519775390625
1751014003153679000,0.90567919921875,-1.01263427734375,-0.0592498779296875,-0.01336669921875
1751014003163622100,0.9156220703125,-1.009429931640625,-0.0648193359375,-0.0140533447265625
1751014003173566200,0.925566162109375,-1.005615234375,-0.0697784423828125,-0.0140533447265625
1751014003183510000,0.935510009765625,-1.002197265625,-0.0727996826171875,-0.009185791015625
1751014003193453000,0.945453125,-1.0026397705078125,-0.0807952880859375,-0.008056640625
1751014003203397400,0.9553974609375,-1.00372314453125,-0.085662841796875,-0.007049560546875
1751014003213341200,0.965341064453125,-1.0020599365234375,-0.0864715576171875,-0.0046539306640625
1751014003223284200,0.9752841796875,-1.0005645751953125,-0.0857696533203125,-0.0035552978515625
1751014003233228300,0.985228271484375,-1.005462646484375,-0.0883636474609375,-0.008331298828125
1751014003243172000,0.995172119140625,-1.00933837890625,-0.087799072265625,-0.013092041015625
1751014003253115100,1.005115234375,-1.01324462890625,-0.0890045166015625,-0.0171966552734375
1751014003263059200,1.01505908203125,-1.0150146484375,-0.08984375,-0.0200347900390625
1751014003273003000,1.0250029296875,-1.017120361328125,-0.0908660888671875,-0.0193939208984375
1751014003282946000,1.034946044921875,-1.01971435546875,-0.092376708984375,-0.0171356201171875
1751014003292890000,1.04489013671875,-1.020599365234375,-0.0922393798828125,-0.0164947509765625
1751014003302834200,1.054834228515625,-1.01629638671875,-0.09326171875,-0.0141754150390625
1751014003312777200,1.064777099609375,-1.011474609375,-0.095062255859375,-0.0097808837890625
1751014003322721300,1.07472119140625,-1.008758544921875,-0.095916748046875,-0.0077056884765625
1751014003332664300,1.084664306640625,-1.0086822509765625,-0.0941925048828125,-0.0065460205078125
1751014003342608100,1.094608154296875,-1.006561279296875,-0.0917205810546875,-0.0032501220703125
1751014003352552200,1.10455224609375,-1.00482177734375,-0.089874267578125,-0.0010223388671875
1751014003362496300,1.114496337890625,-1.003814697265625,-0.088531494140625,-0.001068115234375
1751014003372439000,1.12443896484375,-1.0011749267578125,-0.0865631103515625,-0.0031280517578125
1751014003382383000,1.134383056640625,-1.0009918212890625,-0.084136962890625,-0.0044403076171875
1751014003392326100,1.144326171875,-1.0045318603515625,-0.0825347900390625,-0.005706787109375
1751014003402270000,1.15427001953125,-1.013946533203125,-0.0826263427734375,-0.0086669921875
1751014003412214300,1.16421435546875,-1.019744873046875,-0.088531494140625,-0.0072174072265625
1751014003422158300,1.174158447265625,-1.02734375,-0.0970916748046875,-0.0040283203125
1751014003432101400,1.184101318359375,-1.039642333984375,-0.0970458984375,0.0005950927734375
1751014003442045200,1.194045166015625,-1.0503692626953125,-0.0913848876953125,0.0020904541015625
1751014003451988200,1.20398828125,-1.0606231689453125,-0.0838165283203125,0.001495361328125
1751014003461932300,1.213932373046875,-1.067718505859375,-0.0760040283203125,0.004669189453125
1751014003471876000,1.2238759765625,-1.069854736328125,-0.0692901611328125,0.0091400146484375
1751014003481819100,1.233819091796875,-1.066619873046875,-0.0652618408203125,0.0074310302734375
1751014003491763200,1.24376318359375,-1.0592041015625,-0.0643768310546875,0.00128173828125
1751014003501707000,1.25370703125,-1.0525665283203125,-0.0699310302734375,-0.005279541015625
1751014003511650000,1.263650146484375,-1.038787841796875,-0.0796356201171875,-0.0089569091796875
1751014003521594400,1.273594482421875,-1.0220947265625,-0.08465576171875,-0.00799560546875
1751014003531538200,1.2835380859375,-1.0081787109375,-0.092254638671875,-0.0113525390625
1751014003541481200,1.293481201171875,-1.001708984375,-0.0960693359375,-0.0074920654296875
1751014003551425300,1.30342529296875,-0.9981689453125,-0.100982666015625,-0.0016632080078125
1751014003561369000,1.313369140625,-0.9951934814453125,-0.1062774658203125,0.000885009765625
1751014003571312000,1.32331201171875,-0.9919586181640625,-0.107147216796875,0.0080108642578125
1751014003581256200,1.333256103515625,-0.9912872314453125,-0.1016693115234375,0.017547607421875
1751014003591200000,1.343199951171875,-0.9842071533203125,-0.0944366455078125,0.0225372314453125
1751014003601143000,1.35314306640625,-0.978485107421875,-0.090972900390625,0.0164642333984375
1751014003611087000,1.363087158203125,-0.97998046875,-0.088226318359375,0.004669189453125
1751014003621031200,1.37303125,-0.9848785400390625,-0.080535888671875,-0.0005645751953125
1751014003630974000,1.382973876953125,-0.9847869873046875,-0.0795440673828125,-0.00115966796875
1751014003640918300,1.392918212890625,-0.986419677734375,-0.083984375,-0.0001373291015625
1751014003650862300,1.4028623046875,-0.9913330078125,-0.0892791748046875,0.0013580322265625
1751014003660805000,1.41280517578125,-0.9887847900390625,-0.097137451171875,0.0024871826171875
1751014003670749200,1.422749267578125,-0.98492431640625,-0.1035003662109375,0.0067138671875
1751014003680693200,1.432693359375,-0.987518310546875,-0.1070404052734375,0.0093536376953125
1751014003690636000,1.442635986328125,-0.9879913330078125,-0.1080780029296875,0.0107269287109375
1751014003700580000,1.452580078125,-0.989990234375,-0.1094818115234375,0.00823974609375
1751014003710524200,1.462524169921875,-0.99432373046875,-0.1082916259765625,0.0069122314453125
1751014003720467200,1.47246728515625,-1.000457763671875,-0.10540771484375,0.0025177001953125
1751014003730411000,1.482410888671875,-1.0050048828125,-0.104949951171875,-0.0060882568359375
1751014003740355300,1.492355224609375,-1.010101318359375,-0.1048736572265625,-0.0176239013671875
1751014003750298400,1.50229833984375,-1.012664794921875,-0.1119232177734375,-0.0263824462890625
1751014003760242200,1.5122421875,-1.0143890380859375,-0.1208038330078125,-0.0364227294921875
1751014003770186200,1.522186279296875,-1.0182342529296875,-0.13079833984375,-0.0408782958984375
1751014003780129300,1.53212939453125,-1.0211181640625,-0.1400909423828125,-0.0360260009765625
1751014003790073000,1.542072998046875,-1.02423095703125,-0.1454315185546875,-0.028717041015625
1751014003800017200,1.55201708984375,-1.023834228515625,-0.14434814453125,-0.01995849609375
1751014003809960200,1.561960205078125,-1.021392822265625,-0.136962890625,-0.0099639892578125
1751014003819904000,1.571904052734375,-1.0201873779296875,-0.126953125,0.0028533935546875
1751014003829848000,1.58184814453125,-1.0196685791015625,-0.119720458984375,0.0129241943359375
1751014003839791000,1.591791015625,-1.01739501953125,-0.11322021484375,0.016937255859375
1751014003849735200,1.601735107421875,-1.01885986328125,-0.1040191650390625,0.0158538818359375
1751014003859679200,1.61167919921875,-1.0203094482421875,-0.0958404541015625,0.0149078369140625
1751014003869622300,1.621622314453125,-1.0214996337890625,-0.09271240234375,0.0121002197265625
1751014003879566000,1.631566162109375,-1.02301025390625,-0.091064453125,0.007904052734375
1751014003889510100,1.64151025390625,-1.0243682861328125,-0.0924224853515625,0.0045013427734375
1751014003899457800,1.651457763671875,-1.0249176025390625,-0.0962066650390625,0.0003509521484375
1751014003909401600,1.661401611328125,-1.0229949951171875,-0.1039276123046875,-0.002777099609375
1751014003919345700,1.671345703125,-1.01837158203125,-0.110748291015625,-0.005889892578125
1751014003929288700,1.681288818359375,-1.008544921875,-0.117767333984375,-0.0082855224609375
1751014003939232500,1.691232421875,-0.99700927734375,-0.1217498779296875,-0.0061798095703125
1751014003949176600,1.701176513671875,-0.9894866943359375,-0.1246795654296875,-0.0020904541015625
1751014003959119600,1.71111962890625,-0.98883056640625,-0.1286163330078125,-0.003387451171875
1751014003969063400,1.7210634765625,-1.001434326171875,-0.13421630859375,-0.0057525634765625
1751014003979007500,1.731007568359375,-1.0098876953125,-0.1399383544921875,-0.00592041015625
1751014003988950500,1.740950439453125,-1.0127105712890625,-0.1407470703125,-0.005157470703125
1751014003998894600,1.75089453125,-1.0161895751953125,-0.1353302001953125,-0.0009765625
1751014004008838700,1.760838623046875,-1.0096435546875,-0.1275177001953125,-0.0028076171875
1751014004018781700,1.77078173828125,-0.995758056640625,-0.126007080078125,-0.0004119873046875
1751014004028725500,1.7807255859375,-0.98773193359375,-0.1325225830078125,0.001495361328125
1751014004038669600,1.790669677734375,-0.990020751953125,-0.134735107421875,0.00201416015625
1751014004048612600,1.800612548828125,-0.9912567138671875,-0.1342620849609375,0.0019073486328125
1751014004058556700,1.810556640625,-0.990631103515625,-0.135650634765625,0.0074462890625
1751014004068500500,1.82050048828125,-0.9969024658203125,-0.14617919921875,0.0059661865234375
1751014004078443500,1.830443603515625,-0.9979400634765625,-0.152374267578125,0.004974365234375
1751014004088387600,1.8403876953125,-1.0018768310546875,-0.14990234375,0.00054931640625
1751014004098331600,1.85033154296875,-1.01202392578125,-0.139862060546875,0.0030670166015625
1751014004108274700,1.860274658203125,-1.0101165771484375,-0.128204345703125,0.00738525390625
1751014004118218800,1.87021875,-1.0043487548828125,-0.11785888671875,0.0099029541015625
1751014004128162600,1.88016259765625,-1.001800537109375,-0.109649658203125,0.016021728515625
1751014004138105600,1.890105712890625,-0.9999847412109375,-0.104766845703125,0.0172576904296875
1751014004148049700,1.900049560546875,-0.9989471435546875,-0.101287841796875,0.020263671875
1751014004157993500,1.909993408203125,-1.002593994140625,-0.102020263671875,0.022613525390625
1751014004167936500,1.9199365234375,-1.00762939453125,-0.1065673828125,0.0232086181640625
1751014004177880600,1.929880615234375,-1.011260986328125,-0.1103057861328125,0.0206146240234375
1751014004187823600,1.93982373046875,-1.0189208984375,-0.1157073974609375,0.0148162841796875
1751014004197767400,1.949767333984375,-1.020416259765625,-0.1243743896484375,0.0084381103515625
1751014004207711700,1.959711669921875,-1.0215911865234375,-0.1275482177734375,0.0066986083984375
1751014004217654800,1.96965478515625,-1.0222015380859375,-0.1239471435546875,0.009002685546875
1751014004227598600,1.9795986328125,-1.0199737548828125,-0.1203155517578125,0.0094146728515625
1751014004237542700,1.989542724609375,-1.01715087890625,-0.1205902099609375,0.0097503662109375
1751014004247485700,1.999485595703125,-1.0133056640625,-0.1205902099609375,0.0071868896484375
1751014004257429500,2.009429443359375,-1.0086517333984375,-0.1187591552734375,0.009765625
1751014004267373600,2.01937353515625,-1.004150390625,-0.118377685546875,0.01556396484375
1751014004277316600,2.029316650390625,-0.9973602294921875,-0.1173858642578125,0.0213470458984375
1751014004287260400,2.039260498046875,-0.994049072265625,-0.1151580810546875,0.02508544921875
1751014004297204500,2.04920458984375,-0.9998931884765625,-0.1126556396484375,0.0267486572265625
1751014004307147500,2.0591474609375,-1.0091552734375,-0.1148681640625,0.0258636474609375
1751014004317091600,2.069091552734375,-1.0075225830078125,-0.1177215576171875,0.026763916015625
1751014004327035600,2.07903564453125,-1.004180908203125,-0.1192169189453125,0.0246734619140625
1751014004336978700,2.088978759765625,-1.0009613037109375,-0.1218109130859375,0.018157958984375
1751014004346922800,2.0989228515625,-0.9959869384765625,-0.1214141845703125,0.0155029296875
1751014004356866600,2.108866455078125,-0.9928436279296875,-0.1177520751953125,0.0176544189453125
1751014004366809600,2.1188095703125,-0.9872589111328125,-0.115570068359375,0.024627685546875
1751014004376753700,2.128753662109375,-0.984893798828125,-0.118133544921875,0.0273895263671875
1751014004386697500,2.138697509765625,-0.9845123291015625,-0.1203460693359375,0.024200439453125
1751014004396640500,2.148640625,-0.9847564697265625,-0.1212615966796875,0.0208282470703125
1751014004406584600,2.15858447265625,-0.9832763671875,-0.1221466064453125,0.018463134765625
1751014004416528600,2.168528564453125,-0.983734130859375,-0.123138427734375,0.017852783203125
1751014004426471400,2.178471435546875,-0.9878692626953125,-0.127288818359375,0.016815185546875
1751014004436415700,2.188415771484375,-0.9927520751953125,-0.1327056884765625,0.0128326416015625
1751014004446359600,2.198359619140625,-0.9927825927734375,-0.136688232421875,0.01043701171875
1751014004456302600,2.208302490234375,-0.9958038330078125,-0.1350250244140625,0.0125732421875
1751014004466246700,2.21824658203125,-0.99517822265625,-0.1348114013671875,0.0098114013671875
1751014004476190500,2.2281904296875,-0.987823486328125,-0.1374053955078125,0.00927734375
1751014004486133500,2.238133544921875,-0.9899444580078125,-0.1356964111328125,0.011749267578125
1751014004496077600,2.24807763671875,-0.990966796875,-0.1316680908203125,0.011932373046875
1751014004506021400,2.258021484375,-0.9915924072265625,-0.12841796875,0.0123443603515625
1751014004515964400,2.26796435546875,-0.9946136474609375,-0.127960205078125,0.0125732421875
1751014004525908500,2.277908447265625,-0.995361328125,-0.1285400390625,0.012847900390625
1751014004535852500,2.2878525390625,-0.997833251953125,-0.126129150390625,0.00872802734375
1751014004545795600,2.297795654296875,-1.0048370361328125,-0.12286376953125,0.00714111328125
1751014004555739600,2.30773974609375,-1.00775146484375,-0.121490478515625,0.0030975341796875
1751014004565683700,2.31768359375,-1.0063018798828125,-0.1204986572265625,-0.0048828125
1751014004575626500,2.32762646484375,-1.010955810546875,-0.1240234375,-0.0102386474609375
1751014004585570600,2.337570556640625,-1.01263427734375,-0.13018798828125,-0.010498046875
1751014004595513600,2.347513671875,-1.0123748779296875,-0.1385040283203125,-0.013427734375
1751014004605457700,2.357457763671875,-1.014434814453125,-0.144775390625,-0.0142974853515625
1751014004615401500,2.3674013671875,-1.01068115234375,-0.1453857421875,-0.008636474609375
1751014004625345500,2.377345458984375,-1.005523681640625,-0.1375885009765625,-0.0043487548828125
1751014004635288600,2.38728857421875,-0.9988250732421875,-0.1262969970703125,0.0002288818359375
1751014004645232600,2.397232666015625,-0.99224853515625,-0.1164398193359375,0.0028076171875
1751014004655175700,2.40717578125,-0.98956298828125,-0.1094970703125,0.001861572265625
1751014004665119700,2.41711962890625,-0.990509033203125,-0.1040191650390625,0.00067138671875
1751014004675063600,2.4270634765625,-0.99798583984375,-0.1019134521484375,0.0007171630859375
1751014004685006600,2.437006591796875,-1.003204345703125,-0.104766845703125,-0.0000457763671875
1751014004694950700,2.44695068359375,-1.010101318359375,-0.1086273193359375,-0.002960205078125
1751014004704894500,2.45689453125,-1.0167083740234375,-0.1102752685546875,-0.0048980712890625
1751014004714837500,2.46683740234375,-1.0223236083984375,-0.113525390625,-0.008575439453125
1751014004724781600,2.476781494140625,-1.0255126953125,-0.1192474365234375,-0.0108795166015625
1751014004734725400,2.486725341796875,-1.0250701904296875,-0.1219024658203125,-0.0095977783203125
1751014004744668400,2.49666845703125,-1.022735595703125,-0.1239776611328125,-0.0059814453125
1751014004754612700,2.50661279296875,-1.020233154296875,-0.125335693359375,-0.0038909912109375
1751014004764556500,2.516556640625,-1.0193328857421875,-0.124481201171875,-0.0024566650390625
1751014004774499600,2.52649951171875,-1.0170745849609375,-0.118499755859375,-0.0009307861328125
1751014004784443600,2.536443603515625,-1.0187225341796875,-0.1130218505859375,-0.0008087158203125
1751014004794387500,2.546387451171875,-1.018829345703125,-0.10870361328125,-0.003021240234375
1751014004804330500,2.55633056640625,-1.0150604248046875,-0.1073760986328125,-0.009246826171875
1751014004814274600,2.566274658203125,-1.01385498046875,-0.10693359375,-0.011016845703125
1751014004824218600,2.576218505859375,-1.014862060546875,-0.108673095703125,-0.0144195556640625
1751014004834161400,2.586161376953125,-1.0117340087890625,-0.112274169921875,-0.0182342529296875
1751014004844105500,2.59610546875,-1.008270263671875,-0.117034912109375,-0.0188751220703125
1751014004854049800,2.6060498046875,-1.0054779052734375,-0.1239013671875,-0.019683837890625
1751014004863992600,2.61599267578125,-0.999359130859375,-0.128021240234375,-0.0188140869140625
1751014004873936600,2.6259365234375,-0.996124267578125,-0.12908935546875,-0.0150299072265625
1751014004883880700,2.635880615234375,-0.99285888671875,-0.1296844482421875,-0.0122222900390625
1751014004893823700,2.64582373046875,-0.9872589111328125,-0.128692626953125,-0.0057373046875
1751014004903767800,2.655767822265625,-0.98626708984375,-0.1262969970703125,-0.0003509521484375
1751014004913711900,2.6657119140625,-0.9878387451171875,-0.12237548828125,0.0001220703125
1751014004923655000,2.675655029296875,-0.9867706298828125,-0.1171722412109375,-0.003936767578125
1751014004933598700,2.6855986328125,-0.991607666015625,-0.112518310546875,-0.0063934326171875
1751014004943541800,2.695541748046875,-1.000091552734375,-0.111328125,-0.006103515625
1751014004953485800,2.70548583984375,-1.0056915283203125,-0.11279296875,-0.010162353515625
1751014004963430000,2.715429931640625,-1.010498046875,-0.1154937744140625,-0.016387939453125
1751014004973373000,2.725373046875,-1.0172271728515625,-0.119598388671875,-0.0267791748046875
1751014004983317000,2.73531689453125,-1.0216064453125,-0.1236572265625,-0.0336151123046875
1751014004993260800,2.7452607421875,-1.02191162109375,-0.1280517578125,-0.0331573486328125
1751014005003203800,2.755203857421875,-1.0240631103515625,-0.1326751708984375,-0.0276947021484375
1751014005013148000,2.76514794921875,-1.0240325927734375,-0.133453369140625,-0.0192413330078125
1751014005023091700,2.775091796875,-1.01849365234375,-0.129425048828125,-0.013092041015625
1751014005033034800,2.78503466796875,-1.016448974609375,-0.122467041015625,-0.0099639892578125
1751014005042978800,2.794978759765625,-1.019317626953125,-0.1161041259765625,-0.0071258544921875
1751014005052922600,2.804922607421875,-1.0196685791015625,-0.11212158203125,-0.01080322265625
1751014005062865700,2.81486572265625,-1.0238037109375,-0.1074981689453125,-0.012939453125
1751014005072810000,2.82481005859375,-1.03021240234375,-0.10491943359375,-0.0163726806640625
1751014005082753800,2.83475390625,-1.0315399169921875,-0.103302001953125,-0.0232391357421875
1751014005092696800,2.84469677734375,-1.0325164794921875,-0.1026611328125,-0.028656005859375
1751014005102641000,2.854640869140625,-1.0325927734375,-0.10406494140625,-0.031768798828125
1751014005112584700,2.864584716796875,-1.030609130859375,-0.1071929931640625,-0.034576416015625
1751014005122527700,2.87452783203125,-1.02935791015625,-0.11126708984375,-0.0323486328125
1751014005132471800,2.884471923828125,-1.02374267578125,-0.11376953125,-0.0272674560546875
1751014005142416000,2.894415771484375,-1.0191497802734375,-0.114166259765625,-0.020965576171875
1751014005152358700,2.904358642578125,-1.015380859375,-0.113739013671875,-0.0194549560546875
1751014005162302700,2.914302734375,-1.013702392578125,-0.1120758056640625,-0.017791748046875
1751014005172247000,2.9242470703125,-1.012664794921875,-0.11102294921875,-0.01788330078125
1751014005182189800,2.93418994140625,-1.0101776123046875,-0.109039306640625,-0.020355224609375
1751014005192134000,2.9441337890625,-1.01068115234375,-0.1057586669921875,-0.0238800048828125
1751014005202077000,2.954076904296875,-1.0115203857421875,-0.1031646728515625,-0.0278167724609375
1751014005212021000,2.96402099609375,-1.010345458984375,-0.10430908203125,-0.03173828125
1751014005221964800,2.97396484375,-1.011322021484375,-0.1061248779296875,-0.036285400390625
1751014005231908900,2.983908935546875,-1.0079193115234375,-0.1075286865234375,-0.0353240966796875
1751014005241852000,2.993851806640625,-1.0052032470703125,-0.111175537109375,-0.03179931640625
1751014005251795700,3.003795654296875,-1.0010223388671875,-0.1139984130859375,-0.0272369384765625
1751014005261738800,3.01373876953125,-1.0006103515625,-0.1176605224609375,-0.02642822265625
1751014005271682800,3.023682861328125,-0.9995269775390625,-0.1215057373046875,-0.0255126953125
1751014005281627000,3.033626953125,-0.997528076171875,-0.1214599609375,-0.0234527587890625
1751014005291570000,3.04356982421875,-0.9984130859375,-0.1180267333984375,-0.022308349609375
1751014005301514000,3.053513916015625,-0.9967803955078125,-0.1174163818359375,-0.0236663818359375
1751014005311457800,3.063457763671875,-0.9971771240234375,-0.1174774169921875,-0.0230560302734375
1751014005321400800,3.07340087890625,-0.999664306640625,-0.1149444580078125,-0.0243072509765625
1751014005331345000,3.083344970703125,-1.0009613037109375,-0.1141510009765625,-0.0277862548828125
1751014005341288700,3.093288818359375,-1.002288818359375,-0.1162872314453125,-0.029541015625
1751014005351231700,3.103231689453125,-1.006317138671875,-0.118438720703125,-0.028656005859375
1751014005361175800,3.11317578125,-1.010528564453125,-0.1200714111328125,-0.031524658203125
1751014005371119600,3.12311962890625,-1.0132598876953125,-0.122528076171875,-0.033935546875
1751014005381062700,3.133062744140625,-1.0164794921875,-0.124908447265625,-0.034912109375
1751014005391007000,3.143007080078125,-1.0175933837890625,-0.1258697509765625,-0.0319671630859375
1751014005400950800,3.15295068359375,-1.01458740234375,-0.124176025390625,-0.029266357421875
1751014005410893800,3.162893798828125,-1.0127410888671875,-0.121612548828125,-0.0272674560546875
1751014005420838000,3.172837890625,-1.0121307373046875,-0.1233978271484375,-0.028289794921875
1751014005430782000,3.182781982421875,-1.011322021484375,-0.124114990234375,-0.0291290283203125
1751014005440724700,3.192724853515625,-1.01177978515625,-0.1246490478515625,-0.026336669921875
1751014005450668800,3.202668701171875,-1.012725830078125,-0.125732421875,-0.0289764404296875
1751014005460612900,3.21261279296875,-1.013580322265625,-0.127593994140625,-0.0311737060546875
1751014005470556000,3.222555908203125,-1.020172119140625,-0.125640869140625,-0.032073974609375
1751014005480499700,3.232499755859375,-1.0231170654296875,-0.12371826171875,-0.03314208984375
1751014005490444000,3.242444091796875,-1.0196533203125,-0.1220703125,-0.0364227294921875
1751014005500387000,3.252386962890625,-1.0217437744140625,-0.1214447021484375,-0.0366973876953125
1751014005510331000,3.262330810546875,-1.02117919921875,-0.1241912841796875,-0.039459228515625
1751014005520275000,3.27227490234375,-1.014251708984375,-0.12408447265625,-0.036529541015625
1751014005530218000,3.282218017578125,-1.008575439453125,-0.1249542236328125,-0.0348968505859375
1751014005540161800,3.292161865234375,-1.0064849853515625,-0.12591552734375,-0.0328216552734375
1751014005550104800,3.302104736328125,-1.0053558349609375,-0.1221160888671875,-0.0252838134765625
1751014005560049000,3.312048828125,-1.0052490234375,-0.1200408935546875,-0.025146484375
1751014005569992700,3.32199267578125,-0.996917724609375,-0.1228790283203125,-0.021209716796875
1751014005579935700,3.331935791015625,-0.9833831787109375,-0.126556396484375,-0.01641845703125
1751014005589879800,3.3418798828125,-0.9788818359375,-0.1304473876953125,-0.0207672119140625
1751014005599824000,3.351823974609375,-0.9855499267578125,-0.1326751708984375,-0.0234832763671875
1751014005609766700,3.3617666015625,-0.98834228515625,-0.1361083984375,-0.0255889892578125
1751014005619711000,3.3717109375,-0.985198974609375,-0.1381378173828125,-0.0254058837890625
1751014005629654800,3.38165478515625,-0.9887847900390625,-0.133819580078125,-0.0198211669921875
1751014005639597800,3.391597900390625,-0.9931182861328125,-0.1272735595703125,-0.0116119384765625
1751014005649542000,3.4015419921875,-0.989349365234375,-0.1228179931640625,-0.0079498291015625
1751014005659485700,3.411485595703125,-0.9840087890625,-0.122711181640625,-0.0108489990234375
1751014005669428700,3.4214287109375,-0.9884185791015625,-0.123626708984375,-0.0117645263671875
1751014005679372800,3.431372802734375,-0.9947509765625,-0.12322998046875,-0.012359619140625
1751014005689316900,3.44131689453125,-0.9949188232421875,-0.1242828369140625,-0.011932373046875
1751014005699259600,3.451259765625,-0.990753173828125,-0.126190185546875,-0.011474609375
1751014005709203700,3.46120361328125,-0.989776611328125,-0.126312255859375,-0.009185791015625
1751014005719148000,3.47114794921875,-0.99957275390625,-0.12646484375,-0.0086212158203125
1751014005729090800,3.4810908203125,-1.00299072265625,-0.1245574951171875,-0.007080078125
1751014005739035000,3.491034912109375,-1.0046844482421875,-0.120574951171875,-0.0059814453125
1751014005748979000,3.50097900390625,-1.005859375,-0.1175384521484375,-0.007598876953125
1751014005758922000,3.510921875,-1.005950927734375,-0.118682861328125,-0.0101470947265625
1751014005768865800,3.52086572265625,-1.0066070556640625,-0.1193084716796875,-0.011016845703125
1751014005778809900,3.530809814453125,-1.0124053955078125,-0.12164306640625,-0.0131683349609375
1751014005788753000,3.5407529296875,-1.0145416259765625,-0.1261138916015625,-0.016448974609375
1751014005798696700,3.55069677734375,-1.01336669921875,-0.132171630859375,-0.0196380615234375
1751014005808640800,3.560640869140625,-1.015716552734375,-0.1386260986328125,-0.021759033203125
1751014005818583800,3.570583740234375,-1.0122528076171875,-0.1423492431640625,-0.02325439453125
1751014005828527900,3.58052783203125,-1.01055908203125,-0.1423492431640625,-0.024810791015625
1751014005838472000,3.590471923828125,-1.0150909423828125,-0.1400146484375,-0.025177001953125
1751014005848415000,3.6004150390625,-1.01666259765625,-0.14019775390625,-0.026214599609375
1751014005858358800,3.61035888671875,-1.0142974853515625,-0.138458251953125,-0.0260162353515625
1751014005868301800,3.6203017578125,-1.01751708984375,-0.1333770751953125,-0.0244140625
1751014005878246000,3.630245849609375,-1.0230255126953125,-0.1295928955078125,-0.027679443359375
1751014005888189700,3.640189697265625,-1.02313232421875,-0.1298980712890625,-0.03179931640625
1751014005898128400,3.65012841796875,-1.0195770263671875,-0.1298065185546875,-0.0337982177734375
1751014005908072400,3.660072509765625,-1.01654052734375,-0.1274566650390625,-0.0336151123046875
1751014005918016500,3.6700166015625,-1.0117950439453125,-0.1289825439453125,-0.028656005859375
1751014005927959600,3.67995947265625,-1.003631591796875,-0.1302947998046875,-0.023101806640625
1751014005937903400,3.6899033203125,-0.9924468994140625,-0.1313323974609375,-0.022216796875
1751014005947847400,3.699847412109375,-0.9850921630859375,-0.1370849609375,-0.019195556640625
1751014005957790500,3.70979052734375,-0.983306884765625,-0.143280029296875,-0.0192108154296875
1751014005967734500,3.719734619140625,-0.985137939453125,-0.151214599609375,-0.0212249755859375
1751014005977678600,3.7296787109375,-0.9842071533203125,-0.1546173095703125,-0.015960693359375
1751014005987621600,3.73962158203125,-0.9857635498046875,-0.157562255859375,-0.0154266357421875
1751014005997565400,3.7495654296875,-0.9854583740234375,-0.15728759765625,-0.009979248046875
1751014006007509500,3.759509521484375,-0.984039306640625,-0.152557373046875,-0.010589599609375
1751014006017452500,3.76945263671875,-0.9877471923828125,-0.146942138671875,-0.0160369873046875
1751014006027396400,3.779396240234375,-0.9962615966796875,-0.142120361328125,-0.024932861328125
1751014006037340400,3.78934033203125,-1.00262451171875,-0.1388702392578125,-0.0305328369140625
1751014006047283500,3.799283447265625,-1.0066070556640625,-0.1385650634765625,-0.032135009765625
1751014006057227300,3.809227294921875,-1.0115966796875,-0.137054443359375,-0.0359039306640625
1751014006067171600,3.819171630859375,-1.01849365234375,-0.13555908203125,-0.0388946533203125
1751014006077114400,3.8291142578125,-1.0226287841796875,-0.1354217529296875,-0.0399322509765625
1751014006087058400,3.839058349609375,-1.0248870849609375,-0.13580322265625,-0.0400848388671875
1751014006097002500,3.84900244140625,-1.0234527587890625,-0.13873291015625,-0.0387115478515625
1751014006106945500,3.858945556640625,-1.0166168212890625,-0.14093017578125,-0.0355377197265625
1751014006116889600,3.8688896484375,-1.014434814453125,-0.1418304443359375,-0.0340423583984375
1751014006126833400,3.87883349609375,-1.0171051025390625,-0.1374359130859375,-0.033294677734375
1751014006136776400,3.8887763671875,-1.0183258056640625,-0.1358184814453125,-0.0349578857421875
1751014006146720500,3.898720458984375,-1.0182342529296875,-0.13482666015625,-0.0354461669921875
1751014006156664300,3.908664306640625,-1.0188446044921875,-0.1343994140625,-0.033477783203125
1751014006166607400,3.918607421875,-1.01904296875,-0.1389007568359375,-0.03143310546875
1751014006176551400,3.928551513671875,-1.0120391845703125,-0.145751953125,-0.03302001953125
1751014006186494500,3.938494384765625,-1.0049591064453125,-0.1509857177734375,-0.036285400390625
1751014006196438500,3.9484384765625,-0.999420166015625,-0.1521453857421875,-0.0393829345703125
1751014006206382600,3.958382568359375,-0.992462158203125,-0.154815673828125,-0.0439910888671875
1751014006216325600,3.96832568359375,-0.9943389892578125,-0.1536865234375,-0.0406951904296875
1751014006226269400,3.97826953125,-0.9959716796875,-0.1479644775390625,-0.0411376953125
1751014006236213500,3.988213623046875,-0.9990386962890625,-0.1431121826171875,-0.044769287109375
1751014006246156500,3.998156494140625,-1.0044403076171875,-0.14288330078125,-0.0493316650390625
1751014006256100400,4.008100341796875,-1.008697509765625,-0.14166259765625,-0.0497589111328125
1751014006266044400,4.01804443359375,-1.006256103515625,-0.1389312744140625,-0.044189453125
1751014006275987500,4.027987548828125,-0.999176025390625,-0.137847900390625,-0.03741455078125
1751014006285931300,4.03793115234375,-0.998291015625,-0.1372222900390625,-0.0253448486328125
1751014006295875600,4.04787548828125,-1.0000152587890625,-0.1353759765625,-0.01715087890625
1751014006305818600,4.057818603515625,-0.99725341796875,-0.1332855224609375,-0.015411376953125
1751014006315762400,4.067762451171875,-0.9969329833984375,-0.132965087890625,-0.0183258056640625
1751014006325706500,4.07770654296875,-0.9970550537109375,-0.1347808837890625,-0.0213470458984375
1751014006335649500,4.0876494140625,-1.001312255859375,-0.13482666015625,-0.02545166015625
1751014006345593300,4.09759326171875,-1.00823974609375,-0.133087158203125,-0.026275634765625
1751014006355537400,4.107537353515625,-1.0067901611328125,-0.1349639892578125,-0.0250396728515625
1751014006365480400,4.11748046875,-1.0057373046875,-0.1382598876953125,-0.023681640625
1751014006375424500,4.127424560546875,-1.006378173828125,-0.1379547119140625,-0.0198211669921875
1751014006385368300,4.137368408203125,-1.00323486328125,-0.13568115234375,-0.0111083984375
1751014006395311400,4.147311279296875,-1.001373291015625,-0.1342010498046875,-0.0075836181640625
1751014006405255700,4.157255615234375,-1.0035552978515625,-0.131500244140625,-0.0028076171875
1751014006415199500,4.167199462890625,-0.9994049072265625,-0.1256561279296875,0.001922607421875
1751014006425142500,4.177142578125,-0.99749755859375,-0.121734619140625,0.001800537109375
1751014006435086600,4.187086669921875,-1.000213623046875,-0.12310791015625,-0.0024566650390625
1751014006445030400,4.197030517578125,-1.00115966796875,-0.1260223388671875,-0.0088958740234375
1751014006454973400,4.206973388671875,-1.0042572021484375,-0.1286468505859375,-0.01434326171875
1751014006464917500,4.21691748046875,-1.009552001953125,-0.1297607421875,-0.019775390625
1751014006474860500,4.226860595703125,-1.01202392578125,-0.1309661865234375,-0.02496337890625
1751014006484804400,4.236804443359375,-1.013824462890625,-0.1326904296875,-0.025543212890625
1751014006494748400,4.24674853515625,-1.0157012939453125,-0.1353912353515625,-0.0260772705078125
1751014006504691500,4.25669140625,-1.0160064697265625,-0.1339569091796875,-0.0259552001953125
1751014006514635500,4.266635498046875,-1.0178375244140625,-0.1306304931640625,-0.0240631103515625
1751014006524579600,4.27657958984375,-1.0172119140625,-0.131683349609375,-0.023956298828125
1751014006534522600,4.286522705078125,-1.016265869140625,-0.1324920654296875,-0.024139404296875
1751014006544466400,4.296466552734375,-1.02008056640625,-0.1305999755859375,-0.0241241455078125
1751014006554410500,4.306410400390625,-1.020599365234375,-0.130767822265625,-0.027557373046875
1751014006564353500,4.316353515625,-1.0214996337890625,-0.1312103271484375,-0.030242919921875
1751014006574297300,4.32629736328125,-1.0208282470703125,-0.1331634521484375,-0.0321197509765625
1751014006584241400,4.336241455078125,-1.018646240234375,-0.134613037109375,-0.0354461669921875
1751014006594184400,4.346184326171875,-1.019927978515625,-0.137176513671875,-0.0350341796875
1751014006604128300,4.356128173828125,-1.0227508544921875,-0.1422119140625,-0.03717041015625
1751014006614072600,4.366072509765625,-1.0216217041015625,-0.1444854736328125,-0.0387420654296875
1751014006624015600,4.376015625,-1.0239410400390625,-0.1450042724609375,-0.0361785888671875
1751014006633959400,4.38595947265625,-1.0254058837890625,-0.140350341796875,-0.033935546875
1751014006643903500,4.395903564453125,-1.0260772705078125,-0.1354217529296875,-0.03570556640625
1751014006653846500,4.405846435546875,-1.0202789306640625,-0.132354736328125,-0.040618896484375
1751014006663790600,4.41579052734375,-1.0159149169921875,-0.1309051513671875,-0.03985595703125
1751014006673734400,4.425734375,-1.0107269287109375,-0.1308441162109375,-0.036712646484375
1751014006683677400,4.435677490234375,-1.0032196044921875,-0.1348876953125,-0.03778076171875
1751014006693621500,4.44562158203125,-0.994781494140625,-0.14166259765625,-0.0392608642578125
1751014006703565300,4.4555654296875,-0.9879302978515625,-0.1458892822265625,-0.0383758544921875
1751014006713508400,4.46550830078125,-0.9826202392578125,-0.14898681640625,-0.0348052978515625
1751014006723452700,4.47545263671875,-0.97869873046875,-0.1526031494140625,-0.0335845947265625
1751014006733396500,4.485396484375,-0.97711181640625,-0.1565093994140625,-0.0311431884765625
1751014006743339500,4.495339599609375,-0.97930908203125,-0.155975341796875,-0.028900146484375
1751014006753283600,4.50528369140625,-0.9864501953125,-0.15350341796875,-0.0299072265625
1751014006763227400,4.515227294921875,-0.9859466552734375,-0.1549530029296875,-0.0311126708984375
1751014006773170400,4.52517041015625,-0.982696533203125,-0.1555023193359375,-0.030670166015625
1751014006783114500,4.535114501953125,-0.983734130859375,-0.1502227783203125,-0.0258331298828125
1751014006793057500,4.5450576171875,-0.98785400390625,-0.1414947509765625,-0.0230560302734375
1751014006803001300,4.55500146484375,-0.9966583251953125,-0.13958740234375,-0.02447509765625
1751014006812945400,4.5649453125,-1.004730224609375,-0.13653564453125,-0.027435302734375
1751014006822888400,4.574888427734375,-1.0111541748046875,-0.12646484375,-0.0275421142578125
1751014006832832500,4.58483251953125,-1.0111236572265625,-0.1202392578125,-0.024169921875
1751014006842776600,4.594776611328125,-1.0064544677734375,-0.1162109375,-0.0214691162109375
1751014006852719600,4.6047197265625,-1.0056304931640625,-0.1210174560546875,-0.0359649658203125
1751014006862663400,4.614663330078125,-1.00616455078125,-0.129669189453125,-0.0521087646484375
1751014006872607500,4.624607421875,-1.007843017578125,-0.1341094970703125,-0.0633392333984375
1751014006882550500,4.634550537109375,-1.0023345947265625,-0.1407012939453125,-0.0665283203125
1751014006892494300,4.644494384765625,-0.995208740234375,-0.1460418701171875,-0.059722900390625
1751014006902438700,4.654438720703125,-0.9917755126953125,-0.14862060546875,-0.047393798828125
1751014006912381700,4.664381591796875,-0.99481201171875,-0.1495208740234375,-0.0410308837890625
1751014006922325500,4.674325439453125,-0.99853515625,-0.14971923828125,-0.0374603271484375
1751014006932269800,4.684269775390625,-0.99530029296875,-0.149383544921875,-0.0325469970703125
1751014006942212900,4.694212890625,-0.9925537109375,-0.1496734619140625,-0.03057861328125
1751014006952156700,4.70415673828125,-0.9908599853515625,-0.149169921875,-0.0279541015625
1751014006962100700,4.714100830078125,-0.9917144775390625,-0.1492462158203125,-0.0245819091796875
1751014006972043800,4.724043701171875,-0.9920501708984375,-0.148468017578125,-0.02484130859375
1751014006981987800,4.73398779296875,-0.9910888671875,-0.146820068359375,-0.02789306640625
1751014006991931600,4.743931640625,-0.996002197265625,-0.1431884765625,-0.0326385498046875
1751014007001874700,4.753874755859375,-0.9989776611328125,-0.14501953125,-0.0407257080078125
1751014007011818800,4.76381884765625,-0.9972076416015625,-0.1491241455078125,-0.0450592041015625
1751014007021761500,4.773761474609375,-0.995635986328125,-0.1517791748046875,-0.045166015625
1751014007031705600,4.78370556640625,-0.996429443359375,-0.156829833984375,-0.0443267822265625
1751014007041650000,4.79364990234375,-0.9970855712890625,-0.1606597900390625,-0.0460968017578125
1751014007051592700,4.8035927734375,-0.998779296875,-0.1634063720703125,-0.050537109375
1751014007061536800,4.813536865234375,-1.0018310546875,-0.163330078125,-0.0523834228515625
1751014007071480800,4.823480712890625,-1.0052642822265625,-0.1596527099609375,-0.050384521484375
1751014007081424000,4.833423828125,-1.009796142578125,-0.153228759765625,-0.050018310546875
1751014007091367700,4.84336767578125,-1.0128173828125,-0.1512298583984375,-0.0546112060546875
1751014007101311700,4.853311767578125,-1.0142822265625,-0.1486053466796875,-0.0598907470703125
1751014007111254800,4.8632548828125,-1.015167236328125,-0.14422607421875,-0.062408447265625
1751014007121198600,4.873198486328125,-1.0174713134765625,-0.1424713134765625,-0.0636138916015625
1751014007131142700,4.883142578125,-1.0174560546875,-0.143951416015625,-0.0709686279296875
1751014007141085700,4.893085693359375,-1.0139007568359375,-0.1451873779296875,-0.072357177734375
1751014007151029800,4.90302978515625,-1.0054931640625,-0.147369384765625,-0.0740814208984375
1751014007160973800,4.912973876953125,-0.9959259033203125,-0.1509857177734375,-0.0743255615234375
1751014007170916900,4.922916748046875,-0.988922119140625,-0.15655517578125,-0.068084716796875
1751014007180860700,4.932860595703125,-0.9863433837890625,-0.1642608642578125,-0.05999755859375
1751014007190804700,4.9428046875,-0.98541259765625,-0.169586181640625,-0.0508880615234375
1751014007200747800,4.952747802734375,-0.9912109375,-0.1707763671875,-0.0427703857421875
1751014007210691600,4.962691650390625,-0.9975738525390625,-0.168487548828125,-0.033447265625
1751014007220635600,4.9726357421875,-0.9983673095703125,-0.161224365234375,-0.02691650390625
1751014007230578700,4.98257861328125,-1.002838134765625,-0.1520843505859375,-0.027801513671875
1751014007240522500,4.9925224609375,-1.0088958740234375,-0.1401824951171875,-0.0281982421875
1751014007250466800,5.002466796875,-1.0104522705078125,-0.1285400390625,-0.02947998046875
1751014007260409600,5.01240966796875,-1.011627197265625,-0.1226654052734375,-0.0295562744140625
1751014007270354000,5.02235400390625,-1.01397705078125,-0.1194915771484375,-0.031768798828125
1751014007280296700,5.032296630859375,-1.016510009765625,-0.1165924072265625,-0.0344085693359375
1751014007290240800,5.04224072265625,-1.013427734375,-0.119171142578125,-0.036956787109375
1751014007300184800,5.052184814453125,-1.00262451171875,-0.12921142578125,-0.0369720458984375
1751014007310127600,5.062127685546875,-0.9947662353515625,-0.136505126953125,-0.03289794921875
1751014007320071700,5.07207177734375,-0.9927215576171875,-0.1396636962890625,-0.0275726318359375
1751014007330015700,5.082015625,-0.98907470703125,-0.143646240234375,-0.028411865234375
1751014007339958800,5.091958740234375,-0.9806976318359375,-0.1483154296875,-0.031524658203125
1751014007349902600,5.101902587890625,-0.976470947265625,-0.149749755859375,-0.0330810546875
1751014007359846700,5.1118466796875,-0.9792022705078125,-0.1472320556640625,-0.0344390869140625
1751014007369789700,5.121789794921875,-0.9864654541015625,-0.14642333984375,-0.034454345703125
1751014007379733800,5.131733642578125,-0.993560791015625,-0.148468017578125,-0.043792724609375
1751014007389677800,5.141677734375,-1.0012359619140625,-0.1494903564453125,-0.05267333984375
1751014007399620900,5.151620849609375,-1.009857177734375,-0.1461029052734375,-0.059844970703125
1751014007409564700,5.161564697265625,-1.0159759521484375,-0.1444244384765625,-0.0670928955078125
1751014007419508700,5.1715087890625,-1.016876220703125,-0.149627685546875,-0.0729522705078125
1751014007429451800,5.18145166015625,-1.0144500732421875,-0.1528472900390625,-0.072357177734375
1751014007439395600,5.1913955078125,-1.013824462890625,-0.15576171875,-0.070709228515625
1751014007449339600,5.201339599609375,-1.0148162841796875,-0.1569671630859375,-0.0694427490234375
1751014007459282700,5.21128271484375,-1.0163116455078125,-0.1554412841796875,-0.06890869140625
1751014007469226500,5.2212265625,-1.01788330078125,-0.154327392578125,-0.068145751953125
1751014007479170800,5.2311708984375,-1.0187835693359375,-0.152252197265625,-0.066558837890625
1751014007489113900,5.24111376953125,-1.01556396484375,-0.1500701904296875,-0.0677642822265625
1751014007499057700,5.2510576171875,-1.0114898681640625,-0.142242431640625,-0.06884765625
1751014007509000700,5.261000732421875,-1.0090179443359375,-0.1341400146484375,-0.0624237060546875
1751014007518944800,5.27094482421875,-1.005767822265625,-0.12994384765625,-0.0550994873046875
1751014007528888600,5.280888671875,-1.00347900390625,-0.1280364990234375,-0.052398681640625
1751014007538831600,5.29083154296875,-1.006103515625,-0.1293182373046875,-0.052093505859375
1751014007548775700,5.300775634765625,-1.0085296630859375,-0.1324920654296875,-0.0526123046875
1751014007558719700,5.3107197265625,-1.00787353515625,-0.139404296875,-0.0516204833984375
1751014007568662500,5.32066259765625,-1.007537841796875,-0.1447296142578125,-0.049072265625
1751014007578606600,5.330606689453125,-1.009735107421875,-0.147186279296875,-0.0465545654296875
1751014007588551000,5.340551025390625,-1.0134735107421875,-0.1461181640625,-0.0457763671875
1751014007598493700,5.35049365234375,-1.0148468017578125,-0.1455078125,-0.049224853515625
1751014007608437800,5.360437744140625,-1.0184478759765625,-0.1427764892578125,-0.048614501953125
1751014007618381800,5.3703818359375,-1.0222625732421875,-0.1403961181640625,-0.054473876953125
1751014007628324900,5.380324951171875,-1.0209197998046875,-0.1387939453125,-0.0535736083984375
1751014007638268700,5.3902685546875,-1.0160980224609375,-0.1350250244140625,-0.0521240234375
1751014007648212700,5.400212646484375,-1.0112152099609375,-0.12835693359375,-0.0498046875
1751014007658155800,5.41015576171875,-1.0137939453125,-0.1216278076171875,-0.0447998046875
1751014007668099600,5.420099609375,-1.018280029296875,-0.1226806640625,-0.04345703125
1751014007678043600,5.430043701171875,-1.0207672119140625,-0.124359130859375,-0.04571533203125
1751014007687986700,5.439986572265625,-1.0257415771484375,-0.12493896484375,-0.0521240234375
1751014007697930800,5.4499306640625,-1.030517578125,-0.129730224609375,-0.0590667724609375
1751014007707873800,5.459873779296875,-1.0327911376953125,-0.13653564453125,-0.0675048828125
1751014007717817900,5.46981787109375,-1.023223876953125,-0.1337127685546875,-0.06890869140625
1751014007727761700,5.47976171875,-1.0097808837890625,-0.1368865966796875,-0.076904296875
1751014007737704700,5.48970458984375,-1.005706787109375,-0.1443939208984375,-0.0788421630859375
1751014007747648800,5.499648681640625,-1.008056640625,-0.1429443359375,-0.0794830322265625
1751014007757592600,5.509592529296875,-0.998291015625,-0.1406402587890625,-0.076934814453125
1751014007767535600,5.51953564453125,-0.9823760986328125,-0.1424407958984375,-0.0750274658203125
1751014007777479700,5.529479736328125,-0.979339599609375,-0.1441192626953125,-0.0717010498046875
1751014007787423500,5.539423583984375,-0.977874755859375,-0.14263916015625,-0.0686187744140625
1751014007797366500,5.549366455078125,-0.973663330078125,-0.1460113525390625,-0.0684356689453125
1751014007807310800,5.559310791015625,-0.9719390869140625,-0.15142822265625,-0.0677337646484375
1751014007817254700,5.569254638671875,-0.9743194580078125,-0.1553192138671875,-0.066253662109375
1751014007827197700,5.57919775390625,-0.983154296875,-0.1562957763671875,-0.061920166015625
1751014007837141800,5.589141845703125,-0.985931396484375,-0.156158447265625,-0.0620269775390625
1751014007847085800,5.5990859375,-0.9894256591796875,-0.1566314697265625,-0.063751220703125
1751014007857028600,5.609028564453125,-0.9924163818359375,-0.1564483642578125,-0.0608673095703125
1751014007866972700,5.61897265625,-0.9947509765625,-0.1526947021484375,-0.0561676025390625
1751014007876916700,5.628916748046875,-0.9944305419921875,-0.145843505859375,-0.05340576171875
1751014007886859800,5.63885986328125,-0.9929962158203125,-0.1376190185546875,-0.04827880859375
1751014007896807700,5.6488076171875,-0.9899139404296875,-0.1348876953125,-0.0472564697265625
1751014007906750700,5.658750732421875,-0.985198974609375,-0.1346282958984375,-0.0468597412109375
1751014007916694500,5.668694580078125,-0.980438232421875,-0.13623046875,-0.0478668212890625
1751014007926638600,5.678638671875,-0.9799041748046875,-0.141326904296875,-0.0458984375
1751014007936581600,5.68858154296875,-0.97991943359375,-0.1449432373046875,-0.047027587890625
1751014007946525700,5.698525634765625,-0.983673095703125,-0.1508941650390625,-0.0570831298828125
1751014007956469800,5.7084697265625,-0.9944000244140625,-0.153045654296875,-0.0617523193359375
1751014007966412800,5.718412841796875,-1.0025482177734375,-0.154083251953125,-0.0665740966796875
1751014007976356900,5.72835693359375,-1.0025482177734375,-0.1546478271484375,-0.071807861328125
1751014007986300700,5.73830078125,-1.00738525390625,-0.1529083251953125,-0.0764007568359375
1751014007996243700,5.74824365234375,-1.01654052734375,-0.1502685546875,-0.08123779296875
1751014008006187800,5.758187744140625,-1.0199127197265625,-0.1483001708984375,-0.0832672119140625
1751014008016131600,5.768131591796875,-1.01495361328125,-0.1497955322265625,-0.089508056640625
1751014008026074600,5.77807470703125,-1.007965087890625,-0.1561126708984375,-0.0943450927734375
1751014008036018700,5.788018798828125,-1.0129241943359375,-0.158203125,-0.09271240234375
1751014008045962500,5.79796240234375,-1.018402099609375,-0.1612548828125,-0.0872955322265625
1751014008055905500,5.807905517578125,-1.0116729736328125,-0.1680450439453125,-0.083770751953125
1751014008065849900,5.817849853515625,-1.0055084228515625,-0.174530029296875,-0.0829010009765625
1751014008075792600,5.827792724609375,-1.0084228515625,-0.1742706298828125,-0.081634521484375
1751014008085736700,5.83773681640625,-1.0129852294921875,-0.170379638671875,-0.0791473388671875
1751014008095680800,5.8476806640625,-1.01055908203125,-0.16741943359375,-0.076080322265625
1751014008105623800,5.857623779296875,-1.003265380859375,-0.16302490234375,-0.072113037109375
1751014008115567600,5.867567626953125,-1.0006561279296875,-0.1557769775390625,-0.062896728515625
1751014008125511700,5.87751171875,-0.99847412109375,-0.14825439453125,-0.0575408935546875
1751014008135454700,5.887454833984375,-0.9961700439453125,-0.1451263427734375,-0.053924560546875
1751014008145398500,5.8973984375,-0.993682861328125,-0.14202880859375,-0.0536956787109375
1751014008155342600,5.907342529296875,-0.9958343505859375,-0.137908935546875,-0.055694580078125
1751014008165285600,5.91728564453125,-0.9949188232421875,-0.13739013671875,-0.0571441650390625
1751014008175229700,5.927229736328125,-0.9920654296875,-0.1435699462890625,-0.0612945556640625
1751014008185173800,5.937173828125,-0.9920806884765625,-0.147369384765625,-0.061004638671875
1751014008195116800,5.94711669921875,-0.994415283203125,-0.14849853515625,-0.0550384521484375
1751014008205060600,5.957060546875,-0.9938812255859375,-0.1462860107421875,-0.0491943359375
1751014008215004700,5.967004638671875,-0.9923095703125,-0.1433258056640625,-0.0460662841796875
1751014008224947700,5.97694775390625,-0.9913177490234375,-0.139678955078125,-0.047027587890625
1751014008234891800,5.986891845703125,-0.9913482666015625,-0.1343994140625,-0.0492095947265625
1751014008244835600,5.996835693359375,-0.9911346435546875,-0.12835693359375,-0.0494384765625
1751014008254778600,6.006778564453125,-0.991302490234375,-0.1250152587890625,-0.0501708984375
1751014008264722700,6.01672265625,-0.99029541015625,-0.1245574951171875,-0.05120849609375
1751014008274665500,6.02666552734375,-0.99066162109375,-0.1251983642578125,-0.0575103759765625
1751014008284609500,6.036609619140625,-0.9918060302734375,-0.1298065185546875,-0.0623779296875
1751014008294553900,6.046553955078125,-0.99029541015625,-0.1360015869140625,-0.061126708984375
1751014008304496600,6.05649658203125,-0.99078369140625,-0.1399993896484375,-0.058807373046875
1751014008314440700,6.066440673828125,-0.994873046875,-0.1438751220703125,-0.062774658203125
1751014008324384800,6.076384765625,-0.9977874755859375,-0.146575927734375,-0.0659027099609375
1751014008334327800,6.086327880859375,-0.9962615966796875,-0.15087890625,-0.0679168701171875
1751014008344271600,6.096271728515625,-0.993011474609375,-0.152313232421875,-0.0680084228515625
1751014008354215700,6.106215576171875,-0.9912567138671875,-0.1529083251953125,-0.064117431640625
1751014008364158700,6.11615869140625,-0.9899444580078125,-0.1517486572265625,-0.0595703125
1751014008374102500,6.1261025390625,-0.9922332763671875,-0.15240478515625,-0.0550384521484375
1751014008384046600,6.136046630859375,-0.9974212646484375,-0.1521759033203125,-0.050048828125
1751014008393989600,6.14598974609375,-0.999481201171875,-0.14788818359375,-0.046173095703125
1751014008403933700,6.15593359375,-1.001495361328125,-0.1423187255859375,-0.0482635498046875
1751014008413877800,6.165877685546875,-1.00927734375,-0.139801025390625,-0.0520782470703125
1751014008423820800,6.17582080078125,-1.0155487060546875,-0.13934326171875,-0.0540924072265625
1751014008433764600,6.1857646484375,-1.0193328857421875,-0.138458251953125,-0.0584716796875
1751014008443707600,6.195707763671875,-1.0195770263671875,-0.1348876953125,-0.06195068359375
1751014008453651700,6.205651611328125,-1.0213775634765625,-0.1315765380859375,-0.0630950927734375
1751014008463595500,6.215595458984375,-1.0214080810546875,-0.132781982421875,-0.0635833740234375
1751014008473538600,6.22553857421875,-1.0165557861328125,-0.135772705078125,-0.0626220703125
1751014008483482600,6.235482666015625,-1.0120849609375,-0.1390838623046875,-0.0634918212890625
1751014008493426700,6.2454267578125,-1.0111236572265625,-0.1419830322265625,-0.0603485107421875
1751014008503369500,6.255369384765625,-1.010528564453125,-0.1438446044921875,-0.05609130859375
1751014008513313800,6.265313720703125,-1.00909423828125,-0.146575927734375,-0.05462646484375
1751014008523257900,6.2752578125,-1.0030670166015625,-0.1477508544921875,-0.056976318359375
1751014008533200600,6.28520068359375,-0.9976654052734375,-0.1475067138671875,-0.063446044921875
1751014008543144700,6.295144775390625,-1.0006866455078125,-0.14556884765625,-0.0634918212890625
1751014008553088800,6.3050888671875,-1.0044708251953125,-0.1455230712890625,-0.0608367919921875
1751014008563031600,6.315031494140625,-1.005279541015625,-0.148468017578125,-0.0625152587890625
1751014008572975600,6.3249755859375,-1.0027008056640625,-0.152496337890625,-0.0622406005859375
1751014008582919700,6.334919677734375,-1.0001983642578125,-0.1515045166015625,-0.0578155517578125
1751014008592862700,6.34486279296875,-0.9941253662109375,-0.14739990234375,-0.050048828125
1751014008602806500,6.354806640625,-0.9951171875,-0.147186279296875,-0.0467529296875
1751014008612749600,6.36474951171875,-1.0005340576171875,-0.150054931640625,-0.0430450439453125
1751014008622694000,6.37469384765625,-1.0027008056640625,-0.1491546630859375,-0.040802001953125
1751014008632637700,6.3846376953125,-1.0059051513671875,-0.1435394287109375,-0.0411834716796875
1751014008642580700,6.394580810546875,-1.0081787109375,-0.1401214599609375,-0.044647216796875
1751014008652524800,6.40452490234375,-1.009613037109375,-0.1374969482421875,-0.048614501953125
1751014008662468600,6.414468505859375,-1.01104736328125,-0.134063720703125,-0.0493621826171875
1751014008672411600,6.42441162109375,-1.0125579833984375,-0.1300048828125,-0.0514373779296875
1751014008682355700,6.434355712890625,-1.0109710693359375,-0.1279144287109375,-0.056488037109375
1751014008692299500,6.444299560546875,-1.006988525390625,-0.1290130615234375,-0.054931640625
1751014008702242600,6.45424267578125,-1.004608154296875,-0.1314697265625,-0.053009033203125
1751014008712186600,6.4641865234375,-1.00384521484375,-0.1354827880859375,-0.052764892578125
1751014008722130700,6.474130615234375,-1.0034942626953125,-0.1403350830078125,-0.049835205078125
1751014008732073700,6.48407373046875,-1.0029144287109375,-0.1455230712890625,-0.048126220703125
1751014008742017800,6.494017822265625,-0.99969482421875,-0.148162841796875,-0.045928955078125
1751014008751960800,6.5039609375,-0.994354248046875,-0.152130126953125,-0.0452880859375
1751014008761904600,6.513904541015625,-0.9959564208984375,-0.1529541015625,-0.04376220703125
1751014008771848700,6.5238486328125,-0.9980926513671875,-0.150604248046875,-0.0442352294921875
1751014008781791700,6.533791748046875,-0.9974212646484375,-0.15087890625,-0.04852294921875
1751014008791735600,6.543735595703125,-0.9937896728515625,-0.15045166015625,-0.05059814453125
1751014008801679600,6.5536796875,-0.9952392578125,-0.147979736328125,-0.051544189453125
1751014008811622700,6.56362255859375,-0.99755859375,-0.14471435546875,-0.0517120361328125
1751014008821566500,6.57356640625,-0.99981689453125,-0.14373779296875,-0.0527191162109375
1751014008831510800,6.5835107421875,-0.9982147216796875,-0.14447021484375,-0.0520477294921875
1751014008841453600,6.59345361328125,-0.9955596923828125,-0.144439697265625,-0.053070068359375
1751014008851397600,6.603397705078125,-0.998046875,-0.1404571533203125,-0.0552978515625
1751014008861341700,6.613341796875,-1.0032501220703125,-0.1390228271484375,-0.05645751953125
1751014008871284700,6.62328466796875,-1.007232666015625,-0.1407928466796875,-0.05682373046875
1751014008881228800,6.633228759765625,-1.0076751708984375,-0.1403350830078125,-0.057037353515625
1751014008891172600,6.643172607421875,-1.0075225830078125,-0.14019775390625,-0.056976318359375
1751014008901111600,6.653111572265625,-1.00665283203125,-0.140625,-0.05340576171875
1751014008911055600,6.6630556640625,-1.0040130615234375,-0.1414642333984375,-0.0491180419921875
1751014008920998700,6.67299853515625,-1.0008087158203125,-0.1439208984375,-0.0447235107421875
1751014008930942700,6.682942626953125,-0.9971160888671875,-0.1445465087890625,-0.0395965576171875
1751014008940886800,6.69288671875,-0.998138427734375,-0.14306640625,-0.034912109375
1751014008950829800,6.702829833984375,-1.00006103515625,-0.1417083740234375,-0.033355712890625
1751014008960773600,6.712773681640625,-1.0032958984375,-0.1418304443359375,-0.0354461669921875
1751014008970717700,6.7227177734375,-1.0082550048828125,-0.1431732177734375,-0.04229736328125
1751014008980660700,6.73266064453125,-1.0161895751953125,-0.1425323486328125,-0.0623779296875
1751014008990604500,6.7426044921875,-1.02740478515625,-0.1400604248046875,-0.0814666748046875
1751014009000548600,6.752548583984375,-1.027923583984375,-0.128448486328125,-0.0661773681640625
1751014009010491600,6.76249169921875,-1.0126495361328125,-0.1182708740234375,-0.0428924560546875
1751014009020435500,6.772435546875,-1.0057373046875,-0.1201019287109375,-0.0323486328125
1751014009030379800,6.7823798828125,-1.0038299560546875,-0.130584716796875,-0.02490234375
1751014009040322800,6.79232275390625,-0.9990386962890625,-0.1402740478515625,-0.025726318359375
1751014009050266600,6.8022666015625,-1.003173828125,-0.14923095703125,-0.037200927734375
1751014009060210700,6.812210693359375,-1.0137786865234375,-0.154632568359375,-0.0446319580078125
1751014009070153700,6.82215380859375,-1.021697998046875,-0.159759521484375,-0.048675537109375
1751014009080097800,6.832097900390625,-1.0239105224609375,-0.162017822265625,-0.0509796142578125
1751014009090040600,6.84204052734375,-1.0140228271484375,-0.15777587890625,-0.0594940185546875
1751014009099984600,6.851984619140625,-1.0077667236328125,-0.149017333984375,-0.0539093017578125
1751014009109928700,6.8619287109375,-1.01885986328125,-0.1448211669921875,-0.0508270263671875
1751014009119871700,6.871871826171875,-1.007568359375,-0.1466827392578125,-0.0589447021484375
1751014009129815600,6.881815673828125,-0.998687744140625,-0.1444854736328125,-0.066925048828125
1751014009139759900,6.891759765625,-1.0016632080078125,-0.1463470458984375,-0.0723876953125
1751014009149703000,6.901702880859375,-1.0030059814453125,-0.1501617431640625,-0.068572998046875
1751014009159646700,6.911646728515625,-0.995941162109375,-0.153839111328125,-0.0642547607421875
1751014009169590800,6.9215908203125,-0.986968994140625,-0.1592559814453125,-0.0640869140625
1751014009179533800,6.931533935546875,-0.9801177978515625,-0.1640777587890625,-0.0660858154296875
1751014009189477600,6.9414775390625,-0.9803009033203125,-0.1685638427734375,-0.0660247802734375
1751014009199421700,6.951421630859375,-0.9781951904296875,-0.171112060546875,-0.0635833740234375
1751014009209364700,6.96136474609375,-0.9742584228515625,-0.17333984375,-0.062103271484375
1751014009219308500,6.97130859375,-0.96942138671875,-0.1721954345703125,-0.0610809326171875
1751014009229251600,6.98125146484375,-0.9655609130859375,-0.1693878173828125,-0.058685302734375
1751014009239195600,6.991195556640625,-0.9665679931640625,-0.166961669921875,-0.0566864013671875
1751014009249139700,7.0011396484375,-0.9678802490234375,-0.1609649658203125,-0.056060791015625
1751014009259082500,7.01108251953125,-0.97113037109375,-0.158416748046875,-0.0467681884765625
1751014009269026800,7.02102685546875,-0.97296142578125,-0.155792236328125,-0.0485076904296875
1751014009278970600,7.030970703125,-0.9760589599609375,-0.1514892578125,-0.054931640625
1751014009288913700,7.04091357421875,-0.98199462890625,-0.146087646484375,-0.0600433349609375
1751014009298857700,7.050857666015625,-0.9874114990234375,-0.141204833984375,-0.0606689453125
1751014009308801500,7.060801513671875,-0.9959869384765625,-0.1377105712890625,-0.0565032958984375
1751014009318744600,7.07074462890625,-1.003387451171875,-0.1353302001953125,-0.057037353515625
1751014009328688600,7.080688720703125,-1.0122528076171875,-0.1319732666015625,-0.060577392578125
1751014009338632700,7.0906328125,-1.0202178955078125,-0.1319427490234375,-0.0675048828125
1751014009348575500,7.100575439453125,-1.024383544921875,-0.1329498291015625,-0.07275390625
1751014009358519600,7.11051953125,-1.030364990234375,-0.1298675537109375,-0.071502685546875
1751014009368464000,7.1204638671875,-1.0361480712890625,-0.1257476806640625,-0.0694122314453125
1751014009378406700,7.13040673828125,-1.0375213623046875,-0.1245269775390625,-0.0684814453125
1751014009388350700,7.140350830078125,-1.03961181640625,-0.123382568359375,-0.0685882568359375
1751014009398293800,7.150293701171875,-1.0399627685546875,-0.1216278076171875,-0.0692138671875
1751014009408237600,7.160237548828125,-1.035064697265625,-0.1230010986328125,-0.07073974609375
1751014009418181600,7.170181640625,-1.0311126708984375,-0.1286773681640625,-0.072357177734375
1751014009428124700,7.180124755859375,-1.0256195068359375,-0.1357879638671875,-0.0691680908203125
1751014009438068700,7.19006884765625,-1.01806640625,-0.13983154296875,-0.0689544677734375
1751014009448012500,7.200012451171875,-1.0104522705078125,-0.1444854736328125,-0.067474365234375
1751014009457955600,7.20995556640625,-1.0040740966796875,-0.1508331298828125,-0.0662689208984375
1751014009467899600,7.219899658203125,-0.999725341796875,-0.1543731689453125,-0.063140869140625
1751014009477843700,7.22984375,-0.99932861328125,-0.156982421875,-0.0601959228515625
1751014009487786800,7.239786865234375,-0.9973602294921875,-0.1588592529296875,-0.0601959228515625
1751014009497730800,7.249730712890625,-0.9983673095703125,-0.1578216552734375,-0.065155029296875
1751014009507674600,7.259674560546875,-0.9960174560546875,-0.15679931640625,-0.07110595703125
1751014009517617700,7.26961767578125,-0.9948577880859375,-0.1548004150390625,-0.0720672607421875
1751014009527561700,7.279561767578125,-0.99560546875,-0.15228271484375,-0.0713043212890625
1751014009537505500,7.289505615234375,-0.9949188232421875,-0.150970458984375,-0.068389892578125
1751014009547448600,7.299448486328125,-0.9923553466796875,-0.1505584716796875,-0.06817626953125
1751014009557392600,7.309392578125,-0.992095947265625,-0.1501312255859375,-0.067840576171875
1751014009567335700,7.319335693359375,-0.992950439453125,-0.1492156982421875,-0.06927490234375
1751014009577279500,7.329279541015625,-0.990936279296875,-0.150787353515625,-0.0691680908203125
1751014009587223800,7.339223876953125,-0.9880523681640625,-0.151763916015625,-0.0665283203125
1751014009597166800,7.349166748046875,-0.9937744140625,-0.151824951171875,-0.062225341796875
1751014009607110700,7.359110595703125,-0.9997100830078125,-0.1525421142578125,-0.06121826171875
1751014009617054700,7.3690546875,-0.998809814453125,-0.1527557373046875,-0.059600830078125
1751014009626997800,7.378997802734375,-0.9964599609375,-0.1505126953125,-0.0587921142578125
1751014009636941600,7.388941650390625,-0.9976654052734375,-0.1472320556640625,-0.0573272705078125
1751014009646885600,7.3988857421875,-1.000762939453125,-0.1441497802734375,-0.0526580810546875
1751014009656828700,7.40882861328125,-1.0033416748046875,-0.1397857666015625,-0.0527496337890625
1751014009666772500,7.4187724609375,-1.0055694580078125,-0.135223388671875,-0.05804443359375
1751014009676716500,7.428716552734375,-1.004547119140625,-0.1302947998046875,-0.0628509521484375
1751014009686659600,7.43865966796875,-1.0055694580078125,-0.126678466796875,-0.064422607421875
1751014009696603600,7.448603759765625,-1.006103515625,-0.126129150390625,-0.064056396484375
1751014009706546700,7.458546630859375,-1.004302978515625,-0.1302032470703125,-0.063690185546875
1751014009716490800,7.46849072265625,-1.00390625,-0.1326141357421875,-0.0593109130859375
1751014009726434800,7.478434814453125,-1.0023040771484375,-0.1358184814453125,-0.055389404296875
1751014009736377600,7.488377685546875,-1.000396728515625,-0.1387481689453125,-0.0508270263671875
1751014009746321700,7.49832177734375,-1.004669189453125,-0.1397552490234375,-0.0515899658203125
1751014009756265700,7.508265625,-1.010040283203125,-0.141143798828125,-0.056854248046875
1751014009766208800,7.518208740234375,-1.0125274658203125,-0.141693115234375,-0.060302734375
1751014009776152600,7.528152587890625,-1.01904296875,-0.139984130859375,-0.0673370361328125
1751014009786096600,7.5380966796875,-1.02301025390625,-0.13818359375,-0.0739288330078125
1751014009796039700,7.548039794921875,-1.0214080810546875,-0.13677978515625,-0.0760040283203125
1751014009805983700,7.557983642578125,-1.0167083740234375,-0.1366729736328125,-0.07843017578125
1751014009815927800,7.567927734375,-1.011199951171875,-0.1378631591796875,-0.0777587890625
1751014009825870800,7.577870849609375,-1.0080108642578125,-0.1386260986328125,-0.0730743408203125
1751014009835814700,7.587814697265625,-1.0022430419921875,-0.1404876708984375,-0.06829833984375
1751014009845758700,7.5977587890625,-0.9957427978515625,-0.1446075439453125,-0.0653533935546875
1751014009855701800,7.60770166015625,-0.9942779541015625,-0.149017333984375,-0.06243896484375
1751014009865645600,7.6176455078125,-0.9953765869140625,-0.1519012451171875,-0.0620269775390625
1751014009875588600,7.627588623046875,-0.99267578125,-0.1541595458984375,-0.062042236328125
1751014009885532700,7.63753271484375,-0.995452880859375,-0.1543731689453125,-0.0660552978515625
1751014009895476500,7.6474765625,-1.0010528564453125,-0.1516265869140625,-0.0683746337890625
1751014009905419500,7.65741943359375,-1.004852294921875,-0.1494598388671875,-0.069427490234375
1751014009915363800,7.66736376953125,-1.006561279296875,-0.1463623046875,-0.0706634521484375
1751014009925307600,7.6773076171875,-1.00640869140625,-0.140380859375,-0.070281982421875
1751014009935250700,7.687250732421875,-1.0050201416015625,-0.1366424560546875,-0.0718994140625
1751014009945194800,7.69719482421875,-1.0033721923828125,-0.1368865966796875,-0.06982421875
1751014009955138600,7.707138671875,-0.9998321533203125,-0.1399383544921875,-0.0642852783203125
1751014009965081600,7.71708154296875,-0.9998931884765625,-0.1399993896484375,-0.056884765625
1751014009975025700,7.727025634765625,-1.00225830078125,-0.1394805908203125,-0.054107666015625
1751014009984969700,7.7369697265625,-1.00244140625,-0.14178466796875,-0.0525970458984375
1751014009994912500,7.74691259765625,-0.999114990234375,-0.1432037353515625,-0.0538177490234375
1751014010004856600,7.756856689453125,-0.9945220947265625,-0.1406402587890625,-0.053955078125
1751014010014799600,7.766799560546875,-0.99371337890625,-0.1383514404296875,-0.0557098388671875
1751014010024743700,7.77674365234375,-0.9930877685546875,-0.1376495361328125,-0.0615997314453125
1751014010034687700,7.786687744140625,-0.99481201171875,-0.1387786865234375,-0.06451416015625
1751014010044630800,7.796630859375,-0.994293212890625,-0.1403045654296875,-0.06268310546875
1751014010054574800,7.806574951171875,-0.9911041259765625,-0.1384124755859375,-0.0601348876953125
1751014010064518700,7.8165185546875,-0.9875946044921875,-0.1378326416015625,-0.058624267578125
1751014010074461700,7.826461669921875,-0.9894256591796875,-0.1405792236328125,-0.053009033203125
1751014010084405800,7.83640576171875,-0.9915313720703125,-0.143829345703125,-0.0491943359375
1751014010094349600,7.846349609375,-0.992523193359375,-0.1461029052734375,-0.04779052734375
1751014010104292600,7.856292724609375,-0.99755859375,-0.1458282470703125,-0.05084228515625
1751014010114236700,7.866236572265625,-1.0031280517578125,-0.1439971923828125,-0.0538787841796875
1751014010124180500,7.876180419921875,-1.007171630859375,-0.14178466796875,-0.056365966796875
1751014010134123500,7.88612353515625,-1.0091552734375,-0.139251708984375,-0.060150146484375
1751014010144067800,7.89606787109375,-1.012542724609375,-0.1344146728515625,-0.0654296875
1751014010154011600,7.90601171875,-1.015899658203125,-0.129608154296875,-0.06939697265625
1751014010163954700,7.91595458984375,-1.0147247314453125,-0.1294097900390625,-0.072845458984375
1751014010173898800,7.925898681640625,-1.016357421875,-0.133026123046875,-0.072723388671875
1751014010183841800,7.935841796875,-1.021026611328125,-0.1352691650390625,-0.0707550048828125
1751014010193785600,7.94578564453125,-1.021087646484375,-0.140350341796875,-0.0714569091796875
1751014010203729700,7.955729736328125,-1.01947021484375,-0.1416015625,-0.0729522705078125
1751014010213672700,7.965672607421875,-1.0118255615234375,-0.1423187255859375,-0.0770416259765625
1751014010223616500,7.975616455078125,-1.0035247802734375,-0.1451568603515625,-0.0772552490234375
1751014010233560600,7.985560546875,-0.9971923828125,-0.1483612060546875,-0.07293701171875
1751014010243503600,7.995503662109375,-0.99029541015625,-0.1513519287109375,-0.06597900390625
1751014010253447700,8.00544775390625,-0.9840240478515625,-0.15228271484375,-0.059661865234375
1751014010263391700,8.015391845703125,-0.9802398681640625,-0.1541748046875,-0.057891845703125
1751014010273334800,8.025334716796875,-0.977691650390625,-0.155609130859375,-0.055816650390625
1751014010283278600,8.035278564453124,-0.9795684814453125,-0.155731201171875,-0.0543060302734375
1751014010293222700,8.04522265625,-0.9869842529296875,-0.1536102294921875,-0.054107666015625
1751014010303165700,8.055165771484376,-0.9907684326171875,-0.1491241455078125,-0.057098388671875
1751014010313109800,8.06510986328125,-0.996368408203125,-0.1428680419921875,-0.0590667724609375
1751014010323053600,8.075053466796875,-1.003021240234375,-0.135986328125,-0.06317138671875
1751014010332996600,8.08499658203125,-1.0059661865234375,-0.1296234130859375,-0.0674591064453125
1751014010342940700,8.094940673828125,-1.008941650390625,-0.125823974609375,-0.069061279296875
1751014010352883500,8.104883544921876,-1.0120086669921875,-0.123626708984375,-0.0688629150390625
1751014010362827800,8.114827880859375,-1.0133514404296875,-0.1256256103515625,-0.06646728515625
1751014010372771800,8.124771728515626,-1.0107879638671875,-0.1275634765625,-0.0602264404296875
1751014010382714600,8.134714599609374,-1.0109100341796875,-0.129486083984375,-0.0544891357421875
1751014010392658700,8.14465869140625,-1.0085296630859375,-0.1323699951171875,-0.05303955078125
1751014010402602800,8.154602783203124,-1.006103515625,-0.132781982421875,-0.05059814453125
1751014010412545800,8.1645458984375,-1.003143310546875,-0.132537841796875,-0.0477294921875
1751014010422489600,8.174489501953126,-1.0035247802734375,-0.1305999755859375,-0.0482940673828125
1751014010432433700,8.18443359375,-1.005889892578125,-0.1279449462890625,-0.049407958984375
1751014010442376700,8.194376708984375,-1.008544921875,-0.127105712890625,-0.055908203125
1751014010452320500,8.204320556640624,-1.0115203857421875,-0.129913330078125,-0.0690765380859375
1751014010462264800,8.214264892578125,-1.012054443359375,-0.1332855224609375,-0.076171875
1751014010472208000,8.224207763671876,-1.0127716064453125,-0.1362457275390625,-0.079986572265625
1751014010482151700,8.234151611328125,-1.0107421875,-0.141571044921875,-0.081390380859375
1751014010492095700,8.244095703125,-1.007598876953125,-0.150115966796875,-0.0814361572265625
1751014010502038800,8.254038818359374,-1.0026702880859375,-0.15716552734375,-0.07696533203125
1751014010511982600,8.263982666015625,-0.99713134765625,-0.16180419921875,-0.0691986083984375
1751014010521925600,8.273925537109376,-0.99139404296875,-0.1652679443359375,-0.0587005615234375
1751014010531869700,8.28386962890625,-0.989501953125,-0.1641082763671875,-0.050079345703125
1751014010541813500,8.2938134765625,-0.9879608154296875,-0.16064453125,-0.046905517578125
1751014010551756500,8.303756591796875,-0.9894561767578125,-0.1559600830078125,-0.0464019775390625
1751014010561700600,8.31370068359375,-0.994903564453125,-0.149627685546875,-0.0476837158203125
1751014010571644700,8.323644775390624,-1.0006561279296875,-0.14532470703125,-0.0506439208984375
1751014010581587500,8.33358740234375,-1.005340576171875,-0.1385498046875,-0.0595703125
1751014010591531800,8.34353173828125,-1.0162353515625,-0.1207733154296875,-0.0659027099609375
1751014010601475800,8.353475830078125,-1.0176239013671875,-0.10882568359375,-0.0582733154296875
1751014010611418600,8.363418701171875,-1.0227813720703125,-0.1149139404296875,-0.0625
1751014010621362700,8.37336279296875,-1.0271759033203125,-0.1106414794921875,-0.0695037841796875
1751014010631306800,8.383306640625,-1.0259246826171875,-0.1097564697265625,-0.071685791015625
1751014010641249500,8.39324951171875,-1.02410888671875,-0.118804931640625,-0.0738525390625
1751014010651193600,8.403193603515625,-1.0251922607421875,-0.1243743896484375,-0.07220458984375
1751014010661137700,8.4131376953125,-1.0219879150390625,-0.1275177001953125,-0.0700225830078125
1751014010671080700,8.423080810546875,-1.0140533447265625,-0.1298065185546875,-0.069305419921875
1751014010681024500,8.4330244140625,-1.0020294189453125,-0.1384735107421875,-0.0709991455078125
1751014010690967600,8.442967529296874,-1.0008544921875,-0.14971923828125,-0.0704193115234375
1751014010700911900,8.452911865234375,-0.996917724609375,-0.15570068359375,-0.0693817138671875
1751014010710855700,8.462855712890626,-0.9922943115234375,-0.156463623046875,-0.067840576171875
1751014010720798700,8.472798828125,-0.9904327392578125,-0.155364990234375,-0.067535400390625
1751014010730742800,8.48274267578125,-0.98809814453125,-0.1502227783203125,-0.063079833984375
1751014010740686600,8.4926865234375,-0.98028564453125,-0.1500701904296875,-0.0573272705078125
1751014010750629600,8.502629638671875,-0.9753265380859375,-0.1466522216796875,-0.0565338134765625
1751014010760573700,8.51257373046875,-0.9795379638671875,-0.136993408203125,-0.0487518310546875
1751014010770517500,8.522517578125,-0.9900360107421875,-0.13031005859375,-0.042144775390625
1751014010780460500,8.53246044921875,-1.0029296875,-0.1277313232421875,-0.038909912109375
1751014010790404600,8.542404541015625,-1.0145263671875,-0.1273345947265625,-0.04095458984375
1751014010800348700,8.5523486328125,-1.0239715576171875,-0.1249237060546875,-0.04705810546875
1751014010810291700,8.562291748046874,-1.03076171875,-0.1195831298828125,-0.0506744384765625
1751014010820235800,8.57223583984375,-1.0378265380859375,-0.114044189453125,-0.049896240234375
1751014010830178800,8.5821787109375,-1.040496826171875,-0.1136932373046875,-0.051116943359375
1751014010840122600,8.59212255859375,-1.038238525390625,-0.1133880615234375,-0.0536651611328125
1751014010850066700,8.602066650390626,-1.037322998046875,-0.111419677734375,-0.0556793212890625
1751014010860009700,8.612009765625,-1.036224365234375,-0.113800048828125,-0.0622711181640625
1751014010869953500,8.62195361328125,-1.0335845947265625,-0.1199493408203125,-0.0661163330078125
1751014010879897600,8.631897705078124,-1.02587890625,-0.1326751708984375,-0.06890869140625
1751014010889840600,8.641840576171875,-1.022430419921875,-0.1461944580078125,-0.07110595703125
1751014010899784700,8.65178466796875,-1.0181732177734375,-0.1594085693359375,-0.0703277587890625
1751014010909728800,8.661728759765625,-1.01287841796875,-0.1729888916015625,-0.0670928955078125
1751014010919671800,8.671671875,-1.0078582763671875,-0.1806182861328125,-0.0568389892578125
1751014010929615600,8.68161572265625,-1.00152587890625,-0.18157958984375,-0.0519561767578125
1751014010939560000,8.691559814453125,-0.9983367919921875,-0.17633056640625,-0.052154541015625
1751014010949503000,8.7015029296875,-1.0019989013671875,-0.171966552734375,-0.0526580810546875
1751014010959446800,8.71144677734375,-1.0036468505859375,-0.168670654296875,-0.0609130859375
1751014010969390800,8.721390869140626,-1.0054168701171875,-0.16558837890625,-0.05889892578125
1751014010979334000,8.731333984375,-1.0099945068359375,-0.1580047607421875,-0.0568695068359375
1751014010989278000,8.74127783203125,-1.016387939453125,-0.1520843505859375,-0.06036376953125
1751014010999220700,8.751220703125,-1.0218658447265625,-0.14544677734375,-0.0591888427734375
1751014011009164800,8.761164794921875,-1.0157012939453125,-0.138916015625,-0.0619964599609375
1751014011019108900,8.77110888671875,-1.008331298828125,-0.1329193115234375,-0.0667572021484375
1751014011029052000,8.781052001953125,-1.0072479248046875,-0.1305389404296875,-0.066131591796875
1751014011038995700,8.79099560546875,-1.007781982421875,-0.131591796875,-0.0635223388671875
1751014011048940000,8.80093994140625,-1.00628662109375,-0.136016845703125,-0.059967041015625
1751014011058883000,8.810883056640625,-1.0003662109375,-0.14154052734375,-0.0580596923828125
1751014011068827000,8.820826904296876,-0.9946136474609375,-0.147369384765625,-0.0558624267578125
1751014011078771000,8.83077099609375,-0.9877777099609375,-0.15374755859375,-0.057220458984375
1751014011088714000,8.8407138671875,-0.9824676513671875,-0.153289794921875,-0.0594024658203125
1751014011098657800,8.85065771484375,-0.978363037109375,-0.1425933837890625,-0.061309814453125
1751014011108601900,8.860601806640625,-0.9696197509765625,-0.1326446533203125,-0.0550384521484375
1751014011118545000,8.870544921875,-0.9672698974609375,-0.1289215087890625,-0.045196533203125
1751014011128488700,8.88048876953125,-0.970184326171875,-0.1323089599609375,-0.0405731201171875
1751014011138431700,8.890431640625,-0.9761505126953125,-0.1328125,-0.0372314453125
1751014011148375800,8.900375732421875,-0.9813385009765625,-0.1327362060546875,-0.0378265380859375
1751014011158319900,8.91031982421875,-0.9916229248046875,-0.1285552978515625,-0.0387115478515625
1751014011168262700,8.9202626953125,-0.9998931884765625,-0.120635986328125,-0.039581298828125
1751014011178207000,8.93020703125,-1.0052490234375,-0.114166259765625,-0.0469970703125
1751014011188150800,8.94015087890625,-1.0070037841796875,-0.108795166015625,-0.0601959228515625
1751014011198093800,8.95009375,-1.011322021484375,-0.10589599609375,-0.0746917724609375
1751014011208038000,8.960037841796876,-1.021331787109375,-0.107452392578125,-0.07440185546875
1751014011217981700,8.969981689453125,-1.028778076171875,-0.1148681640625,-0.07696533203125
1751014011227924700,8.9799248046875,-1.0279083251953125,-0.11871337890625,-0.0859832763671875
1751014011237868800,8.989868896484374,-1.0249786376953125,-0.1175689697265625,-0.085479736328125
1751014011247812900,8.999812744140625,-1.018463134765625,-0.11962890625,-0.0847930908203125
1751014011257755600,9.009755615234376,-1.0176544189453125,-0.1253509521484375,-0.0871124267578125
1751014011267699700,9.01969970703125,-1.015533447265625,-0.1311798095703125,-0.091461181640625
1751014011277644000,9.02964404296875,-1.00762939453125,-0.1322174072265625,-0.082763671875
1751014011287586800,9.0395869140625,-1.00457763671875,-0.137115478515625,-0.0768280029296875
1751014011297531000,9.04953076171875,-0.9992523193359375,-0.1415557861328125,-0.0703277587890625
1751014011307474000,9.059473876953126,-0.9958038330078125,-0.142303466796875,-0.0640716552734375
1751014011317418000,9.06941796875,-0.9927825927734375,-0.141632080078125,-0.059326171875
1751014011327361800,9.07936181640625,-0.993194580078125,-0.1420135498046875,-0.060577392578125
1751014011337304800,9.089304931640624,-0.992218017578125,-0.140625,-0.064117431640625
1751014011347249000,9.099248779296875,-0.991363525390625,-0.1388397216796875,-0.063720703125
1751014011357192700,9.109192626953124,-0.9898834228515625,-0.1391754150390625,-0.0707550048828125
1751014011367135700,9.1191357421875,-0.99163818359375,-0.138214111328125,-0.0748443603515625
1751014011377079800,9.129079833984376,-0.9940948486328125,-0.1380615234375,-0.0794830322265625
1751014011387024000,9.13902392578125,-0.9933929443359375,-0.1374969482421875,-0.079620361328125
1751014011396967000,9.148966796875,-0.988037109375,-0.1367034912109375,-0.0773773193359375
1751014011406911000,9.158910888671874,-0.9847869873046875,-0.1370697021484375,-0.0739898681640625
1751014011416854800,9.168854736328125,-0.9776458740234375,-0.1377716064453125,-0.0706329345703125
1751014011426797800,9.1787978515625,-0.9755706787109375,-0.13995361328125,-0.0645599365234375
1751014011436742000,9.188741943359375,-0.981109619140625,-0.1417083740234375,-0.061553955078125
1751014011446685000,9.198684814453125,-0.979949951171875,-0.1407470703125,-0.0582733154296875
1751014011456628700,9.208628662109374,-0.978851318359375,-0.1370086669921875,-0.0553436279296875
1751014011466572800,9.21857275390625,-0.979400634765625,-0.1350860595703125,-0.0587921142578125
1751014011476515800,9.228515869140624,-0.98529052734375,-0.1280517578125,-0.0605010986328125
1751014011486459600,9.238459716796875,-0.9943084716796875,-0.1176300048828125,-0.059600830078125
1751014011496404000,9.248404052734376,-1.001007080078125,-0.112823486328125,-0.063812255859375
1751014011506347000,9.258346923828125,-1.0067291259765625,-0.1094207763671875,-0.065704345703125
1751014011516290800,9.268290771484375,-1.0138092041015625,-0.111724853515625,-0.070068359375
1751014011526235000,9.27823486328125,-1.0172119140625,-0.1181793212890625,-0.0791015625
1751014011536178000,9.288177978515625,-1.014190673828125,-0.120819091796875,-0.078369140625
1751014011546121700,9.298121826171876,-1.0142364501953125,-0.129180908203125,-0.0759735107421875
1751014011556065800,9.308065673828125,-1.0148468017578125,-0.140594482421875,-0.0729827880859375
1751014011566008800,9.3180087890625,-1.01409912109375,-0.147003173828125,-0.0729522705078125
1751014011575953000,9.327952880859375,-1.01275634765625,-0.15020751953125,-0.0731353759765625
1751014011585895700,9.337895751953125,-1.0090789794921875,-0.152008056640625,-0.0692138671875
1751014011595839700,9.34783984375,-1.0050201416015625,-0.1505584716796875,-0.0640869140625
1751014011605784000,9.3577841796875,-1.0045166015625,-0.14630126953125,-0.057373046875
1751014011615726800,9.367726806640626,-1.0017547607421875,-0.1407623291015625,-0.051483154296875
1751014011625671000,9.3776708984375,-0.9989471435546875,-0.1381988525390625,-0.0483245849609375
1751014011635615000,9.387614990234376,-1.0000152587890625,-0.1391754150390625,-0.0534210205078125
1751014011645557800,9.397557861328124,-1.005767822265625,-0.1373291015625,-0.0506134033203125
1751014011655501800,9.407501708984375,-1.007781982421875,-0.138397216796875,-0.058563232421875
1751014011665446000,9.41744580078125,-1.0093994140625,-0.1328582763671875,-0.0611419677734375
1751014011675389000,9.427388916015625,-1.01043701171875,-0.1300811767578125,-0.057861328125
1751014011685332700,9.437332763671876,-1.0104522705078125,-0.13031005859375,-0.06268310546875
1751014011695276800,9.44727685546875,-1.0125885009765625,-0.124603271484375,-0.0633392333984375
1751014011705219800,9.4572197265625,-1.011016845703125,-0.121124267578125,-0.065704345703125
1751014011715164000,9.467163818359374,-1.001312255859375,-0.1230010986328125,-0.0713348388671875
1751014011725108000,9.47710791015625,-0.98870849609375,-0.127593994140625,-0.07342529296875
1751014011735051000,9.487051025390626,-0.9805145263671875,-0.13238525390625,-0.071258544921875
1751014011744994800,9.496994873046875,-0.9766693115234375,-0.1346893310546875,-0.067291259765625
1751014011754937900,9.506937744140625,-0.977203369140625,-0.1369171142578125,-0.0667266845703125
1751014011764882000,9.5168818359375,-0.9842529296875,-0.1428375244140625,-0.070648193359375
1751014011774825700,9.52682568359375,-0.995574951171875,-0.149932861328125,-0.07537841796875
1751014011784768800,9.536768798828126,-1.0020751953125,-0.151214599609375,-0.079193115234375
1751014011794712800,9.546712890625,-1.0014190673828125,-0.150390625,-0.0807342529296875
1751014011804656600,9.55665673828125,-1.002593994140625,-0.1477508544921875,-0.0810089111328125
1751014011814599700,9.566599609375,-1.00738525390625,-0.1450653076171875,-0.0820159912109375
1751014011824544000,9.5765439453125,-1.00823974609375,-0.1437835693359375,-0.0863494873046875
1751014011834487800,9.58648779296875,-1.0071258544921875,-0.1470184326171875,-0.085418701171875
1751014011844430800,9.596430908203125,-1.010589599609375,-0.1491851806640625,-0.0829620361328125
1751014011854375000,9.606375,-1.013916015625,-0.150146484375,-0.0769195556640625
1751014011864318700,9.616318603515625,-1.0098114013671875,-0.1508331298828125,-0.0709075927734375
1751014011874261800,9.62626171875,-1.0069580078125,-0.149017333984375,-0.06494140625
1751014011884205800,9.636205810546874,-1.007049560546875,-0.1429901123046875,-0.0589447021484375
1751014011894148900,9.64614892578125,-1.0077972412109375,-0.1401214599609375,-0.0576324462890625
1751014011904092700,9.6560927734375,-1.0094757080078125,-0.140960693359375,-0.0560150146484375
1751014011914036700,9.66603662109375,-1.00921630859375,-0.146240234375,-0.056427001953125
1751014011923979800,9.675979736328125,-1.01007080078125,-0.140716552734375,-0.0504150390625
1751014011933923800,9.685923828125,-1.007476806640625,-0.13299560546875,-0.0445404052734375
1751014011943867600,9.69586767578125,-1.004486083984375,-0.1302032470703125,-0.048065185546875
1751014011953810700,9.705810791015624,-1.0001983642578125,-0.12872314453125,-0.0572509765625
1751014011963755000,9.715755126953125,-0.9963531494140625,-0.1251373291015625,-0.0540618896484375
1751014011973698800,9.72569873046875,-0.9950408935546875,-0.1201171875,-0.0514678955078125
1751014011983641900,9.735641845703125,-0.9962005615234375,-0.120635986328125,-0.04620361328125
1751014011993586000,9.7455859375,-0.9978790283203125,-0.1247711181640625,-0.0477294921875
1751014012003529000,9.755529052734374,-0.9970245361328125,-0.1277313232421875,-0.048431396484375
1751014012013472800,9.76547265625,-0.9976348876953125,-0.1300506591796875,-0.04888916015625
1751014012023416800,9.775416748046876,-0.9996795654296875,-0.132080078125,-0.0509490966796875
1751014012033360000,9.78535986328125,-0.997802734375,-0.13421630859375,-0.055938720703125
1751014012043303700,9.7953037109375,-0.9971771240234375,-0.132232666015625,-0.0583038330078125
1751014012053247700,9.805247802734375,-1.002899169921875,-0.1297454833984375,-0.0619964599609375
1751014012063190800,9.815190673828125,-1.002227783203125,-0.126983642578125,-0.0599365234375
1751014012073134800,9.825134765625,-1.00128173828125,-0.1221771240234375,-0.0576324462890625
1751014012083079000,9.835078857421875,-0.99761962890625,-0.1215972900390625,-0.0596923828125
1751014012093022000,9.84502197265625,-0.9968414306640625,-0.1223602294921875,-0.06512451171875
1751014012102965800,9.8549658203125,-1.0045623779296875,-0.1232757568359375,-0.0682373046875
1751014012112909800,9.864909912109376,-1.00836181640625,-0.1221923828125,-0.06231689453125
1751014012122852900,9.874852783203124,-1.00103759765625,-0.126190185546875,-0.0578460693359375
1751014012132796700,9.884796630859375,-0.999725341796875,-0.1291046142578125,-0.05462646484375
1751014012142739700,9.89473974609375,-1.00164794921875,-0.127685546875,-0.05218505859375
1751014012152683800,9.904683837890625,-1.000701904296875,-0.1304931640625,-0.054046630859375
1751014012162627600,9.914627685546876,-0.998809814453125,-0.1345367431640625,-0.0519561767578125
1751014012172570600,9.924570556640624,-0.998016357421875,-0.1354522705078125,-0.050384521484375
1751014012182515000,9.934514892578125,-1.0001678466796875,-0.13299560546875,-0.0491943359375
1751014012192458800,9.944458740234374,-1.0005950927734375,-0.13177490234375,-0.0496978759765625
1751014012202401800,9.95440185546875,-1.004364013671875,-0.131378173828125,-0.052734375
1751014012212345900,9.964345947265626,-1.0045928955078125,-0.1248626708984375,-0.050506591796875
1751014012222290000,9.9742900390625,-1.003997802734375,-0.1179351806640625,-0.049285888671875
1751014012232232700,9.984232666015625,-1.0054931640625,-0.1132049560546875,-0.0450286865234375
1751014012242176800,9.9941767578125,-1.0055999755859375,-0.1142425537109375,-0.0451812744140625
1751014012252120800,10.004120849609375,-1.012451171875,-0.116912841796875,-0.050384521484375
1751014012262063600,10.014063720703126,-1.0211639404296875,-0.1162109375,-0.058685302734375
1751014012272007700,10.024007568359375,-1.0214385986328125,-0.1171875,-0.065185546875
1751014012281950700,10.03395068359375,-1.02374267578125,-0.119293212890625,-0.0651397705078125
1751014012291895000,10.04389501953125,-1.022857666015625,-0.1180267333984375,-0.0645904541015625
1751014012301838800,10.0538388671875,-1.017730712890625,-0.1188812255859375,-0.065765380859375
1751014012311782000,10.063781982421874,-1.0115814208984375,-0.121856689453125,-0.0688323974609375
1751014012321726000,10.073725830078125,-1.0092620849609375,-0.1211090087890625,-0.0733642578125
1751014012331669800,10.083669677734376,-1.0122528076171875,-0.1175537109375,-0.080108642578125
1751014012341612800,10.09361279296875,-1.011962890625,-0.115875244140625,-0.0833892822265625
1751014012351556900,10.103556884765625,-1.007354736328125,-0.1170196533203125,-0.0805816650390625
1751014012361500700,10.113500732421874,-1.004638671875,-0.1168670654296875,-0.0748291015625
1751014012371443700,10.123443603515625,-1.001678466796875,-0.1189117431640625,-0.074249267578125
1751014012381387800,10.1333876953125,-1.0006103515625,-0.124969482421875,-0.0797271728515625
1751014012391330800,10.143330810546875,-0.99542236328125,-0.1298828125,-0.08331298828125
1751014012401274600,10.153274658203125,-0.9912109375,-0.132965087890625,-0.0842132568359375
1751014012411219000,10.163218994140625,-0.9894561767578125,-0.134735107421875,-0.08038330078125
1751014012421162000,10.173161865234375,-0.991455078125,-0.1345977783203125,-0.0760345458984375
1751014012431105800,10.183105712890624,-0.9944915771484375,-0.1362152099609375,-0.072662353515625
1751014012441049900,10.1930498046875,-0.9987640380859375,-0.134063720703125,-0.07171630859375
1751014012450993000,10.202992919921876,-1.0009765625,-0.1307525634765625,-0.0712890625
1751014012460936700,10.212936767578125,-1.0018157958984375,-0.1278076171875,-0.07073974609375
1751014012470880800,10.222880859375,-1.00494384765625,-0.1233062744140625,-0.06585693359375
1751014012480823800,10.23282373046875,-1.0058441162109375,-0.12164306640625,-0.068206787109375
1751014012490767600,10.242767578125,-1.0031280517578125,-0.1229248046875,-0.0684814453125
1751014012500711700,10.252711669921876,-1.0035858154296875,-0.122161865234375,-0.06671142578125
1751014012510654700,10.26265478515625,-1.0055999755859375,-0.1221923828125,-0.0674591064453125
1751014012520598800,10.272598876953126,-1.0159912109375,-0.12762451171875,-0.070831298828125
1751014012530541800,10.282541748046874,-1.0327301025390625,-0.1353912353515625,-0.0725555419921875
1751014012540486000,10.29248583984375,-1.04144287109375,-0.14288330078125,-0.0770416259765625
1751014012550429700,10.3024296875,-1.046905517578125,-0.1429595947265625,-0.07623291015625
1751014012560372700,10.312372802734375,-1.050445556640625,-0.1369781494140625,-0.06707763671875
1751014012570316800,10.32231689453125,-1.0543975830078125,-0.133331298828125,-0.059814453125
1751014012580260900,10.3322607421875,-1.04608154296875,-0.1293487548828125,-0.052337646484375
1751014012590203600,10.34220361328125,-1.0312957763671875,-0.1238555908203125,-0.04962158203125
1751014012600147700,10.352147705078124,-1.0201416015625,-0.1158447265625,-0.040374755859375
1751014012610091800,10.362091796875,-1.009002685546875,-0.1143798828125,-0.0345306396484375
1751014012620034800,10.372034912109376,-0.9979400634765625,-0.1174468994140625,-0.03155517578125
1751014012629979000,10.381978759765625,-0.990875244140625,-0.121917724609375,-0.0291290283203125
1751014012639923000,10.3919228515625,-0.990081787109375,-0.1287994384765625,-0.03271484375
1751014012649866000,10.401865966796874,-0.992523193359375,-0.1347808837890625,-0.0348358154296875
1751014012659809800,10.411809814453125,-0.995574951171875,-0.139739990234375,-0.036407470703125
1751014012669752800,10.4217529296875,-0.9959869384765625,-0.145660400390625,-0.038055419921875
1751014012679697000,10.43169677734375,-0.9898681640625,-0.146270751953125,-0.039581298828125
1751014012689640700,10.441640625,-0.983367919921875,-0.1434478759765625,-0.0396575927734375
1751014012699583700,10.451583740234375,-0.981048583984375,-0.1405181884765625,-0.0408935546875
1751014012709527800,10.46152783203125,-0.980712890625,-0.1369781494140625,-0.0380401611328125
1751014012719471600,10.4714716796875,-0.9851837158203125,-0.133026123046875,-0.0307769775390625
1751014012729414700,10.48141455078125,-0.9812469482421875,-0.1263275146484375,-0.0159454345703125
1751014012739359000,10.49135888671875,-0.960357666015625,-0.1314697265625,-0.0180511474609375
1751014012749302800,10.501302734375,-0.971435546875,-0.1405487060546875,-0.0326385498046875
1751014012759245800,10.511245849609375,-0.9881439208984375,-0.1467742919921875,-0.0513763427734375
1751014012769190000,10.52118994140625,-0.9837646484375,-0.14892578125,-0.07086181640625
1751014012779133700,10.5311337890625,-0.981414794921875,-0.1523590087890625,-0.0835113525390625
1751014012789076700,10.54107666015625,-1.0070037841796875,-0.149871826171875,-0.06903076171875
1751014012799020800,10.551020751953125,-1.0231475830078125,-0.1432647705078125,-0.04779052734375
1751014012808963800,10.5609638671875,-1.010467529296875,-0.149810791015625,-0.042510986328125
1751014012818907600,10.57090771484375,-0.9982757568359375,-0.1611785888671875,-0.046112060546875
1751014012828851700,10.580851806640625,-1.0068206787109375,-0.1582183837890625,-0.0414276123046875
1751014012838794800,10.590794677734374,-1.0192413330078125,-0.146484375,-0.0336456298828125
1751014012848738800,10.60073876953125,-1.0037841796875,-0.141937255859375,-0.0335540771484375
1751014012858683000,10.610682861328126,-0.9921112060546875,-0.1384124755859375,-0.032135009765625
1751014012868626000,10.6206259765625,-0.9973907470703125,-0.1326751708984375,-0.0279388427734375
1751014012878569700,10.63056982421875,-1.0102691650390625,-0.12347412109375,-0.022735595703125
1751014012888513800,10.640513671875,-1.0054779052734375,-0.1180419921875,-0.0210113525390625
1751014012898456600,10.65045654296875,-0.993499755859375,-0.1198272705078125,-0.01971435546875
1751014012908400600,10.660400634765624,-0.9891204833984375,-0.12493896484375,-0.020111083984375
1751014012918344400,10.670344482421875,-0.993804931640625,-0.1300048828125,-0.02008056640625
1751014012928287500,10.68028759765625,-0.9986724853515625,-0.1342620849609375,-0.0196990966796875
1751014012938231600,10.6902314453125,-1.0019378662109375,-0.14068603515625,-0.02362060546875
1751014012948174600,10.700174560546875,-1.0019989013671875,-0.14306640625,-0.0181121826171875
1751014012958118400,10.710118408203124,-1.003814697265625,-0.140411376953125,-0.024993896484375
1751014012968062500,10.7200625,-1.00506591796875,-0.1324310302734375,-0.0261077880859375
1751014012978005500,10.730005615234376,-0.9998931884765625,-0.1280975341796875,-0.029083251953125
1751014012987949300,10.73994921875,-0.9940185546875,-0.12554931640625,-0.02752685546875
1751014012997893600,10.7498935546875,-0.9929962158203125,-0.1251068115234375,-0.0261077880859375
1751014013007836700,10.759836669921874,-0.995361328125,-0.1268310546875,-0.029388427734375
1751014013017780500,10.769780517578125,-0.997100830078125,-0.1294708251953125,-0.03314208984375
1751014013027724500,10.779724609375,-0.9959564208984375,-0.1327667236328125,-0.0323486328125
1751014013037667600,10.78966748046875,-0.997161865234375,-0.13641357421875,-0.0330047607421875
1751014013047611400,10.799611328125,-0.9996795654296875,-0.1400604248046875,-0.03466796875
1751014013057554400,10.809554443359374,-0.9970550537109375,-0.1446990966796875,-0.03155517578125
1751014013067498500,10.81949853515625,-0.993560791015625,-0.1471099853515625,-0.0295867919921875
1751014013077442300,10.8294423828125,-0.99517822265625,-0.150421142578125,-0.0282135009765625
1751014013087385300,10.83938525390625,-0.9983062744140625,-0.150238037109375,-0.0243072509765625
1751014013097329400,10.849329345703126,-0.999969482421875,-0.1476898193359375,-0.02410888671875
1751014013107273500,10.8592734375,-1.0016632080078125,-0.1427001953125,-0.027923583984375
1751014013117216300,10.86921630859375,-1.00616455078125,-0.1389617919921875,-0.034271240234375
1751014013127160600,10.87916064453125,-1.014556884765625,-0.13525390625,-0.0393218994140625
1751014013137104400,10.8891044921875,-1.0189361572265625,-0.128692626953125,-0.03973388671875
1751014013147047400,10.89904736328125,-1.0156097412109375,-0.1275482177734375,-0.0412750244140625
1751014013156991500,10.908991455078125,-1.0174560546875,-0.1277923583984375,-0.046295166015625
1751014013166935600,10.918935546875,-1.022613525390625,-0.1245269775390625,-0.0467681884765625
1751014013176878300,10.92887841796875,-1.02264404296875,-0.1218109130859375,-0.0481109619140625
1751014013186822400,10.938822509765625,-1.01934814453125,-0.1219940185546875,-0.0407257080078125
1751014013196765400,10.948765380859374,-1.022918701171875,-0.123565673828125,-0.0394134521484375
1751014013206709500,10.95870947265625,-1.02471923828125,-0.12908935546875,-0.0442352294921875
1751014013216653300,10.9686533203125,-1.0268707275390625,-0.134124755859375,-0.037750244140625
1751014013226596400,10.978596435546875,-1.0268707275390625,-0.1363677978515625,-0.034271240234375
1751014013236540700,10.988540771484375,-1.0218658447265625,-0.138092041015625,-0.027496337890625
1751014013246484500,10.998484375,-1.015289306640625,-0.139068603515625,-0.0223236083984375
1751014013256427500,11.008427490234375,-1.0079345703125,-0.1368865966796875,-0.0214385986328125
1751014013266371600,11.01837158203125,-1.00299072265625,-0.13702392578125,-0.0197601318359375
1751014013276315400,11.0283154296875,-0.998443603515625,-0.139495849609375,-0.0225982666015625
1751014013286258400,11.038258544921876,-0.9961700439453125,-0.139862060546875,-0.0290985107421875
1751014013296202500,11.048202392578125,-0.99041748046875,-0.139129638671875,-0.0299530029296875
1751014013306146300,11.058146240234375,-0.9833526611328125,-0.1394805908203125,-0.02410888671875
1751014013316089300,11.06808935546875,-0.985260009765625,-0.1411285400390625,-0.0142364501953125
1751014013326033400,11.078033447265625,-0.9905548095703125,-0.1435089111328125,-0.014251708984375
1751014013335976400,11.0879765625,-0.9893035888671875,-0.1463623046875,-0.0177154541015625
1751014013345920500,11.09792041015625,-0.9904937744140625,-0.1448822021484375,-0.017486572265625
1751014013355864600,11.107864501953125,-0.992584228515625,-0.1428985595703125,-0.0139617919921875
1751014013365807600,11.1178076171875,-0.9908599853515625,-0.141143798828125,-0.0128631591796875
1751014013375751400,11.12775146484375,-0.9884796142578125,-0.1407928466796875,-0.013336181640625
1751014013385695500,11.137695556640624,-0.98681640625,-0.1419677734375,-0.0130615234375
1751014013395638500,11.147638427734375,-0.9884185791015625,-0.142181396484375,-0.0110015869140625
1751014013405582300,11.157582275390626,-0.96160888671875,-0.140625,-0.0052642822265625
1751014013415526400,11.1675263671875,-0.9745330810546875,-0.13690185546875,0.002593994140625
1751014013425469400,11.177469482421875,-1.04559326171875,-0.134246826171875,-0.0094757080078125
1751014013435413200,11.187413330078124,-1.0145263671875,-0.129150390625,-0.038970947265625
1751014013445356300,11.197356201171875,-0.9949493408203125,-0.13238525390625,-0.04931640625
