time,seconds_elapsed,z,y,x
1751014002368134000,0.1201337890625,-0.021162809804081917,-0.07447023689746857,0.024049144238233566
1751014002378076700,0.13007666015625,-0.02046372927725315,-0.07303186506032944,0.0065772091038525105
1751014002388020700,0.140020751953125,-0.012460663914680481,-0.0803518295288086,0.005377454683184624
1751014002397964800,0.14996484375,-0.01079672109335661,-0.08844837546348572,0.01210113801062107
1751014002407907800,0.159907958984375,-0.023577231913805008,-0.09451106190681458,0.03256300464272499
1751014002417851600,0.1698515625,-0.036678384989500046,-0.10634774714708328,0.06896868348121643
1751014002427795700,0.179795654296875,-0.036485038697719574,-0.11026445776224136,0.1260162591934204
1751014002437738800,0.18973876953125,-0.037632595747709274,-0.10806361585855484,0.17784057557582855
1751014002447682600,0.1996826171875,-0.030362965539097786,-0.10265420377254486,0.21984128654003143
1751014002457626600,0.209626708984375,-0.02161075361073017,-0.09361490607261658,0.25023406744003296
1751014002467569700,0.219569580078125,-0.016520652920007706,-0.06486208736896515,0.26164600253105164
1751014002477513500,0.229513427734375,-0.01642690971493721,-0.03917510062456131,0.23310887813568115
1751014002487457800,0.239457763671875,-0.015512647107243538,-0.010663563385605812,0.1786392480134964
1751014002497401600,0.249401611328125,-0.017490843310952187,0.011884089559316635,0.11038722842931747
1751014002507344600,0.2593447265625,-0.02213246561586857,0.02738714963197708,0.041665952652692795
1751014002517288700,0.269288818359375,-0.030763771384954453,0.025967951864004135,-0.010304036550223827
1751014002527232800,0.279232666015625,-0.03605733811855316,0.007721036672592163,-0.03522030636668205
1751014002537175600,0.289175537109375,-0.04615684226155281,-0.011049987748265266,-0.021577198058366776
1751014002547119600,0.29911962890625,-0.05590960383415222,-0.023621972650289536,0.0320838987827301
1751014002557063700,0.309063720703125,-0.06401466578245163,-0.03299416974186897,0.09465593844652176
1751014002567006500,0.31900634765625,-0.06577315181493759,-0.042212169617414474,0.14945420622825623
1751014002576950800,0.32895068359375,-0.0593797042965889,-0.038301050662994385,0.18794220685958862
1751014002586894800,0.338894775390625,-0.04748975485563278,-0.026195650920271873,0.21134606003761292
1751014002596837600,0.348837646484375,-0.031859926879405975,-0.009018261916935444,0.2065310776233673
1751014002606781700,0.35878173828125,-0.017648234963417053,0.006741259712725878,0.18010851740837097
1751014002616725800,0.368725830078125,-0.012865198776125908,0.01840377412736416,0.13145789504051208
1751014002626668800,0.378668701171875,-0.02262701466679573,0.014464426785707474,0.06400055438280106
1751014002636612600,0.388612548828125,-0.03708957880735397,-0.0016498282784596086,-0.0008341020438820124
1751014002646556700,0.398556640625,-0.04969485104084015,-0.00606295233592391,-0.054786816239356995
1751014002656499700,0.408499755859375,-0.06190677732229233,-0.021701566874980927,-0.10416581481695175
1751014002666443500,0.418443603515625,-0.07168270647525787,-0.04415547847747803,-0.13234898447990417
1751014002676387800,0.428387939453125,-0.059844158589839935,-0.057012151926755905,-0.1308959573507309
1751014002686330600,0.43833056640625,-0.05224562808871269,-0.06179492548108101,-0.10849957913160324
1751014002696274700,0.448274658203125,-0.04809216037392616,-0.06549538671970367,-0.08631784468889236
1751014002706218800,0.45821875,-0.048890311270952225,-0.05789738893508911,-0.05425764620304108
1751014002716161800,0.468161865234375,-0.04477279633283615,-0.03687892109155655,-0.03111211210489273
1751014002726105600,0.478105712890625,-0.0347590446472168,-0.012540292926132679,-0.022335398942232132
1751014002736049700,0.488049560546875,-0.00872158631682396,0.012249208986759186,-0.028901422396302223
1751014002745992700,0.49799267578125,0.020497284829616547,0.03538515418767929,-0.03701980412006378
1751014002755936500,0.5079365234375,0.04316424950957298,0.05726328864693642,-0.05223417654633522
1751014002765880600,0.517880615234375,0.056896038353443146,0.06298854947090149,-0.0774758830666542
1751014002775823600,0.52782373046875,0.06571775674819946,0.05283072218298912,-0.10398206114768982
1751014002785767700,0.537767578125,0.05535992980003357,0.042390599846839905,-0.13158971071243286
1751014002795711700,0.547711669921875,0.03809492290019989,0.027957065030932426,-0.16124215722084045
1751014002805654800,0.55765478515625,0.015247662551701069,-0.002430400811135769,-0.17022205889225006
1751014002815598800,0.567598876953125,-0.008584166876971722,-0.036681849509477615,-0.1606368124485016
1751014002825542700,0.577542724609375,-0.030401581898331642,-0.057383399456739426,-0.13267521560192108
1751014002835485700,0.587485595703125,-0.029763754457235336,-0.05928569287061691,-0.09354939311742783
1751014002845429800,0.5974296875,-0.012692359276115894,-0.058759186416864395,-0.05931472405791283
1751014002855373600,0.60737353515625,0.009220662526786327,-0.0515044704079628,-0.03122716210782528
1751014002865316600,0.617316650390625,0.032165125012397766,-0.03873248025774956,-0.01611851528286934
1751014002875260700,0.6272607421875,0.05272899195551872,-0.03086364082992077,-0.012456136755645275
1751014002885204500,0.63720458984375,0.05648830905556679,-0.03759238123893738,-0.013952300883829594
1751014002895143200,0.64714306640625,0.04514004662632942,-0.0452476404607296,-0.020264258608222008
1751014002905087200,0.657087158203125,0.022239791229367256,-0.051186222583055496,-0.02912965603172779
1751014002915031300,0.66703125,0.0002663161139935255,-0.05486458167433739,-0.03803606703877449
1751014002924974000,0.67697412109375,-0.013822871260344982,-0.051482100039720535,-0.040640369057655334
1751014002934918100,0.686918212890625,-0.007982292212545872,-0.04388489946722984,-0.03646506741642952
1751014002944862200,0.6968623046875,-0.0006048039067536592,-0.05919488146901131,-0.040585774928331375
1751014002954805200,0.70680517578125,-0.008961803279817104,-0.08514925092458725,-0.051892492920160294
1751014002964749000,0.7167490234375,-0.025654496625065804,-0.10235726088285446,-0.056902166455984116
1751014002974693000,0.726693115234375,-0.04381832107901573,-0.10986418277025223,-0.04475894942879677
1751014002984636200,0.73663623046875,-0.05301900953054428,-0.10262464731931686,-0.01611931435763836
1751014002994580200,0.746580322265625,-0.05204163119196892,-0.08162721991539001,0.01506949681788683
1751014003004524300,0.756524169921875,-0.03567890077829361,-0.052190233021974564,0.039751142263412476
1751014003014467300,0.76646728515625,-0.013862019404768944,-0.030526217073202133,0.04838830605149269
1751014003024411100,0.7764111328125,0.0009001484140753746,-0.011945342645049095,0.039931438863277435
1751014003034355200,0.786355224609375,0.018967831507325172,0.01152536179870367,0.00851545762270689
1751014003044298200,0.79629833984375,0.040579117834568024,0.035293009132146835,-0.020248811691999435
1751014003054242000,0.806241943359375,0.05869021266698837,0.042400188744068146,-0.05034439638257027
1751014003064186000,0.81618603515625,0.05338093265891075,0.03532896190881729,-0.06858412176370621
1751014003074129200,0.826129150390625,0.031004788354039192,0.0133863789960742,-0.06670206785202026
1751014003084073000,0.836072998046875,-0.0009760485263541341,-0.015751799568533897,-0.054178282618522644
1751014003094017300,0.846017333984375,-0.03567623719573021,-0.048650093376636505,-0.029617279767990112
1751014003103960300,0.855960205078125,-0.058883290737867355,-0.06664933264255524,0.0010772485984489322
1751014003113904000,0.865904052734375,-0.06474970281124115,-0.06478139013051987,0.030411435291171074
1751014003123848200,0.87584814453125,-0.055331431329250336,-0.060198623687028885,0.05067303031682968
1751014003133791200,0.885791259765625,-0.03479286655783653,-0.04278980940580368,0.05989183112978935
1751014003143735300,0.8957353515625,-0.0035206989850848913,-0.010362359695136547,0.058987684547901154
1751014003153679000,0.90567919921875,0.02286856435239315,0.02911953628063202,0.04729054868221283
1751014003163622100,0.9156220703125,0.052314870059490204,0.05332181230187416,0.03201039880514145
1751014003173566200,0.925566162109375,0.07263505458831787,0.06217868626117706,0.007455785758793354
1751014003183510000,0.935510009765625,0.0822376161813736,0.05590667575597763,-0.019000323489308357
1751014003193453000,0.945453125,0.07810705155134201,0.04119670391082764,-0.0430380143225193
1751014003203397400,0.9553974609375,0.05716448649764061,0.015342204831540585,-0.043828438967466354
1751014003213341200,0.965341064453125,0.027775438502430916,-0.000365918327588588,-0.032348353415727615
1751014003223284200,0.9752841796875,0.0010703244479373097,-0.013744307681918144,-0.009359147399663925
1751014003233228300,0.985228271484375,-0.01894759200513363,-0.01798911951482296,0.009644105099141598
1751014003243172000,0.995172119140625,-0.025415077805519104,-0.007932225242257118,0.022223280742764473
1751014003253115100,1.005115234375,-0.023805197328329086,0.010867028497159481,0.03441416472196579
1751014003263059200,1.01505908203125,-0.016329703852534294,0.03551778197288513,0.03202397748827934
1751014003273003000,1.0250029296875,-0.007242999039590359,0.050983820110559464,0.0173795223236084
1751014003282946000,1.034946044921875,-0.0004271710349712521,0.06728130578994751,-0.004233627114444971
1751014003292890000,1.04489013671875,-0.0023638217244297266,0.08206344395875931,-0.027725636959075928
1751014003302834200,1.054834228515625,-0.005681854207068682,0.08787712454795837,-0.044142693281173706
1751014003312777200,1.064777099609375,-0.013923272490501404,0.08581797033548355,-0.04767937213182449
1751014003322721300,1.07472119140625,-0.031090807169675827,0.07057616859674454,-0.05718579143285751
1751014003332664300,1.084664306640625,-0.05162990465760231,0.047499340027570724,-0.0588420107960701
1751014003342608100,1.094608154296875,-0.07299964129924774,0.023509319871664047,-0.052388906478881836
1751014003352552200,1.10455224609375,-0.08943267911672592,0.002852511825039983,-0.04222388565540314
1751014003362496300,1.114496337890625,-0.09427883476018906,-0.004449076950550079,-0.024338629096746445
1751014003372439000,1.12443896484375,-0.08219633251428604,-0.0011488876771181822,-0.009880061261355877
1751014003382383000,1.134383056640625,-0.06100449711084366,0.00464588450267911,0.0038077877834439278
1751014003392326100,1.144326171875,-0.035654135048389435,0.008761533536016941,0.003837615018710494
1751014003402270000,1.15427001953125,-0.017840249463915825,0.012627644464373589,-0.016585901379585266
1751014003412214300,1.16421435546875,-0.003612045431509614,0.019177423790097237,-0.046969372779130936
1751014003422158300,1.174158447265625,0.0011073424248024821,0.028325913473963737,-0.07030612230300903
1751014003432101400,1.184101318359375,0.0015614113071933389,0.032220788300037384,-0.10160039365291595
1751014003442045200,1.194045166015625,0.0008072041091509163,0.0337558314204216,-0.11654019355773926
1751014003451988200,1.20398828125,-0.003372893435880542,0.021867481991648674,-0.11292096227407455
1751014003461932300,1.213932373046875,-0.002314553363248706,0.006741259712725878,-0.08923880010843277
1751014003471876000,1.2238759765625,-0.007187072653323412,-0.004575843457132578,-0.044793836772441864
1751014003481819100,1.233819091796875,-0.005618737079203129,-0.012134160846471786,0.015389076434075832
1751014003491763200,1.24376318359375,0.005637379363179207,-0.0006237123161554337,0.07361456751823425
1751014003501707000,1.25370703125,0.018938804045319557,0.014622618444263935,0.12252458184957504
1751014003511650000,1.263650146484375,0.03771036118268967,0.047235157340765,0.1603396087884903
1751014003521594400,1.273594482421875,0.07188218086957932,0.0793190598487854,0.1856875717639923
1751014003531538200,1.2835380859375,0.09426578134298325,0.10093940049409866,0.18757309019565582
1751014003541481200,1.293481201171875,0.10725321620702744,0.1125531792640686,0.16737034916877747
1751014003551425300,1.30342529296875,0.1031559482216835,0.10621378570795059,0.1162847951054573
1751014003561369000,1.313369140625,0.08850802481174469,0.08569066971540451,0.06199998781085014
1751014003571312000,1.32331201171875,0.05945160984992981,0.04584392160177231,0.014611433260142803
1751014003581256200,1.333256103515625,0.015255119651556015,0.0036938043776899576,-0.012307532131671906
1751014003591200000,1.343199951171875,-0.024894963949918747,-0.030781349167227745,0.0029462550301104784
1751014003601143000,1.35314306640625,-0.035233620554208755,-0.048227716237306595,0.040553018450737
1751014003611087000,1.363087158203125,-0.02538551762700081,-0.06094750761985779,0.09137172251939774
1751014003621031200,1.37303125,-0.006899451371282339,-0.05255348980426788,0.13916747272014618
1751014003630974000,1.382973876953125,0.01607377454638481,-0.03657079488039017,0.16615435481071472
1751014003640918300,1.392918212890625,0.03916418179869652,-0.024058731272816658,0.16607525944709778
1751014003650862300,1.4028623046875,0.06546422839164734,-0.014691594056785107,0.13950569927692413
1751014003660805000,1.41280517578125,0.08970405161380768,-0.005131112411618233,0.10239215195178986
1751014003670749200,1.422749267578125,0.0996008887887001,-0.003472229465842247,0.061411429196596146
1751014003680693200,1.432693359375,0.09937665611505508,-0.01449638418853283,0.027035878971219063
1751014003690636000,1.442635986328125,0.08767978101968765,-0.02834189310669899,0.0054943677969276905
1751014003700580000,1.452580078125,0.07332321256399155,-0.05002588406205177,0.004200870171189308
1751014003710524200,1.462524169921875,0.05019738897681236,-0.07730837166309357,0.013018330559134483
1751014003720467200,1.47246728515625,0.03326847404241562,-0.09878835827112198,0.038958583027124405
1751014003730411000,1.482410888671875,0.02178359217941761,-0.11739160865545273,0.06966882944107056
1751014003740355300,1.492355224609375,0.014308098703622818,-0.12293258309364319,0.10392612963914871
1751014003750298400,1.50229833984375,0.012981845065951347,-0.0978245660662651,0.14243784546852112
1751014003760242200,1.5122421875,0.0026706180069595575,-0.04976782202720642,0.17374089360237122
1751014003770186200,1.522186279296875,-0.010574347339570522,0.005135373678058386,0.18413148820400238
1751014003780129300,1.53212939453125,-0.02522413060069084,0.05227145925164223,0.1620275229215622
1751014003790073000,1.542072998046875,-0.039212118834257126,0.0824647843837738,0.11488503962755203
1751014003800017200,1.55201708984375,-0.041789524257183075,0.09485168009996414,0.06305859237909317
1751014003809960200,1.561960205078125,-0.05397481843829155,0.08689495176076889,0.014002367854118347
1751014003819904000,1.571904052734375,-0.0598771832883358,0.068356953561306,-0.024746624752879143
1751014003829848000,1.58184814453125,-0.06407645344734192,0.046069756150245667,-0.03448846936225891
1751014003839791000,1.591791015625,-0.05986279994249344,0.02672215737402439,-0.025253424420952797
1751014003849735200,1.601735107421875,-0.05006023868918419,0.010480870492756367,0.0043595945462584496
1751014003859679200,1.61167919921875,-0.034686874598264694,-0.0036043222062289715,0.04171335697174072
1751014003869622300,1.621622314453125,-0.014198643155395985,-0.010775682516396046,0.0830586701631546
1751014003879566000,1.631566162109375,0.005435245577245951,-0.00869255792349577,0.11492152512073517
1751014003889510100,1.64151025390625,0.0263059064745903,0.003733219113200903,0.13481773436069489
1751014003899457800,1.651457763671875,0.043174367398023605,0.014272679574787617,0.13266883790493011
1751014003909401600,1.661401611328125,0.054010771214962006,0.039083752781152725,0.12285161763429642
1751014003919345700,1.671345703125,0.06572015583515167,0.061635132879018784,0.09917744994163513
1751014003929288700,1.681288818359375,0.07744286209344864,0.0861724317073822,0.0886068344116211
1751014003939232500,1.691232421875,0.08894558250904083,0.10144460201263428,0.08208155632019043
1751014003949176600,1.701176513671875,0.08755594491958618,0.11837298423051834,0.07528330385684967
1751014003959119600,1.71111962890625,0.083272784948349,0.14253771305084229,0.05229968950152397
1751014003969063400,1.7210634765625,0.0712994784116745,0.17224660515785217,0.015382951125502586
1751014003979007500,1.731007568359375,0.06245085969567299,0.2013903707265854,-0.021630194038152695
1751014003988950500,1.740950439453125,0.06191796064376831,0.22264611721038818,-0.05223657190799713
1751014003998894600,1.75089453125,0.060989849269390106,0.23198236525058746,-0.06777984648942947
1751014004008838700,1.760838623046875,0.0691433846950531,0.2164585292339325,-0.05751815438270569
1751014004018781700,1.77078173828125,0.0682578831911087,0.19427867233753204,-0.03144846856594086
1751014004028725500,1.7807255859375,0.06305672973394394,0.16535088419914246,0.006852047052234411
1751014004038669600,1.790669677734375,0.049789395183324814,0.12312406301498413,0.0378432534635067
1751014004048612600,1.800612548828125,0.00911227148026228,0.08960604667663574,0.059253204613924026
1751014004058556700,1.810556640625,-0.03274409845471382,0.061517421156167984,0.05181046575307846
1751014004068500500,1.82050048828125,-0.06796679645776749,0.043705668300390244,0.015842612832784653
1751014004078443500,1.830443603515625,-0.08903586864471436,0.042813777923583984,-0.035038143396377563
1751014004088387600,1.8403876953125,-0.10234101861715317,0.03731434792280197,-0.09959849715232849
1751014004098331600,1.85033154296875,-0.10627078264951706,0.03139467537403107,-0.14560221135616302
1751014004108274700,1.860274658203125,-0.101952463388443,0.0367545522749424,-0.15429289638996124
1751014004118218800,1.87021875,-0.08497854322195053,0.0356631875038147,-0.13008077442646027
1751014004128162600,1.88016259765625,-0.0650104284286499,0.025293372571468353,-0.08089245110750198
1751014004138105600,1.890105712890625,-0.03994927927851677,0.011885687708854675,-0.0065537733025848866
1751014004148049700,1.900049560546875,-0.01793772168457508,-0.009612945839762688,0.06492653489112854
1751014004157993500,1.909993408203125,-0.009845972992479801,-0.03531644493341446,0.11846166849136353
1751014004167936500,1.9199365234375,-0.005987851414829493,-0.054492004215717316,0.14989282190799713
1751014004177880600,1.929880615234375,-0.006590791046619415,-0.06538912653923035,0.1489814966917038
1751014004187823600,1.93982373046875,-0.008082693442702293,-0.062197063118219376,0.11684060096740723
1751014004197767400,1.949767333984375,-0.002630936913192272,-0.05058834329247475,0.0723586156964302
1751014004207711700,1.959711669921875,0.00267754215747118,-0.038176149129867554,0.01714329980313778
1751014004217654800,1.96965478515625,0.013037770986557007,-0.02725745365023613,-0.029045233502984047
1751014004227598600,1.9795986328125,0.015895875170826912,-0.01077035628259182,-0.044553354382514954
1751014004237542700,1.989542724609375,0.023902669548988342,0.01170166302472353,-0.03921637684106827
1751014004247485700,1.999485595703125,0.0252800565212965,0.03473587706685066,-0.012860670685768127
1751014004257429500,2.009429443359375,0.020124442875385284,0.05026450380682945,0.022949790582060814
1751014004267373600,2.01937353515625,0.01085610967129469,0.051532965153455734,0.05685875564813614
1751014004277316600,2.029316650390625,0.006521016359329224,0.047560859471559525,0.08311326056718826
1751014004287260400,2.039260498046875,-0.001978728687390685,0.034337468445301056,0.07519754767417908
1751014004297204500,2.04920458984375,-0.00947925541549921,0.021861355751752853,0.03443041071295738
1751014004307147500,2.0591474609375,-0.013186641968786716,0.018260495737195015,-0.03184554725885391
1751014004317091600,2.069091552734375,-0.01613183133304119,0.032160598784685135,-0.0999673455953598
1751014004327035600,2.07903564453125,0.008077633567154408,0.03978416323661804,-0.14652632176876068
1751014004336978700,2.088978759765625,0.035765986889600754,0.04068031907081604,-0.1553397923707962
1751014004346922800,2.0989228515625,0.061711300164461136,0.03851809725165367,-0.12896251678466797
1751014004356866600,2.108866455078125,0.06644187122583389,0.02623693086206913,-0.07335304468870163
1751014004366809600,2.1188095703125,0.05315509811043739,0.010658769868314266,-0.01028486154973507
1751014004376753700,2.128753662109375,0.031266309320926666,-0.010104033164680004,0.05351382493972778
1751014004386697500,2.138697509765625,0.014516091905534267,-0.04289819672703743,0.09864109009504318
1751014004396640500,2.148640625,-0.002459961920976639,-0.07288991659879684,0.13005253672599792
1751014004406584600,2.15858447265625,-0.007691209204494953,-0.08945424854755402,0.1487271636724472
1751014004416528600,2.168528564453125,-0.00993146002292633,-0.09438296407461166,0.14620061218738556
1751014004426471400,2.178471435546875,-0.009836385026574135,-0.08956370502710342,0.11548185348510742
1751014004436415700,2.188415771484375,-0.001106809708289802,-0.07896672189235687,0.0682685375213623
1751014004446359600,2.198359619140625,0.0020154803059995174,-0.06686771661043167,0.017957428470253944
1751014004456302600,2.208302490234375,0.007143130525946617,-0.057924818247556686,-0.038533277809619904
1751014004466246700,2.21824658203125,0.011199924163520336,-0.04062545672059059,-0.06717024743556976
1751014004476190500,2.2281904296875,0.018187526613473892,-0.024442225694656372,-0.07894141972064972
1751014004486133500,2.238133544921875,0.017469538375735283,-0.02118091844022274,-0.08127062022686005
1751014004496077600,2.24807763671875,0.013983193784952164,-0.02353435382246971,-0.06827226281166077
1751014004506021400,2.258021484375,0.005498628597706556,-0.04170776531100273,-0.044316064566373825
1751014004515964400,2.26796435546875,-0.007014766335487366,-0.06395874172449112,-0.02232581190764904
1751014004525908500,2.277908447265625,-0.01997850090265274,-0.0892353355884552,0.002427737694233656
1751014004535852500,2.2878525390625,-0.037571609020233154,-0.11303786933422089,0.013881727121770382
1751014004545795600,2.297795654296875,-0.05113242566585541,-0.13202008605003357,0.019649600610136986
1751014004555739600,2.30773974609375,-0.052265603095293045,-0.13518765568733215,0.02155029959976673
1751014004565683700,2.31768359375,-0.04107366502285004,-0.1254226416349411,0.013934990391135216
1751014004575626500,2.32762646484375,-0.031627167016267776,-0.1058177724480629,-0.010514958761632442
1751014004585570600,2.337570556640625,-0.03572097793221474,-0.0823390781879425,-0.06114751100540161
1751014004595513600,2.347513671875,-0.043286487460136414,-0.05489680543541908,-0.12742400169372559
1751014004605457700,2.357457763671875,-0.057906974107027054,-0.032581113278865814,-0.19023944437503815
1751014004615401500,2.3674013671875,-0.07349126040935516,-0.03245168179273605,-0.22975969314575195
1751014004625345500,2.377345458984375,-0.09167905151844025,-0.041299235075712204,-0.2295096218585968
1751014004635288600,2.38728857421875,-0.1036188006401062,-0.05314604192972183,-0.19072973728179932
1751014004645232600,2.397232666015625,-0.10608142614364624,-0.06930717080831528,-0.11866086721420288
1751014004655175700,2.40717578125,-0.09178238362073898,-0.07921092957258224,-0.035518843680620193
1751014004665119700,2.41711962890625,-0.07595894485712051,-0.08341287076473236,0.03223250433802605
1751014004675063600,2.4270634765625,-0.048780590295791626,-0.08640226721763611,0.0764596238732338
1751014004685006600,2.437006591796875,-0.0232965350151062,-0.07832249999046326,0.09565968066453934
1751014004694950700,2.44695068359375,0.006013151258230209,-0.06742830574512482,0.09583970904350281
1751014004704894500,2.45689453125,0.030606377869844437,-0.04868444800376892,0.06340933591127396
1751014004714837500,2.46683740234375,0.04793743044137955,-0.025841983035206795,0.022904250770807266
1751014004724781600,2.476781494140625,0.0590292327105999,-0.0011073424248024821,-0.018991533666849136
1751014004734725400,2.486725341796875,0.05754851549863815,0.01884559355676174,-0.05648671090602875
1751014004744668400,2.49666845703125,0.04941681772470474,0.030486803501844406,-0.07628384977579117
1751014004754612700,2.50661279296875,0.03646799549460411,0.028786640614271164,-0.08756686747074127
1751014004764556500,2.516556640625,0.02369840443134308,0.010002832859754562,-0.08448398858308792
1751014004774499600,2.52649951171875,0.005376389715820551,-0.010458233766257763,-0.060745373368263245
1751014004784443600,2.536443603515625,-0.015779761597514153,-0.028434304520487785,-0.032519858330488205
1751014004794387500,2.546387451171875,-0.02774428017437458,-0.039691485464572906,0.007892278023064137
1751014004804330500,2.55633056640625,-0.029697708785533905,-0.03963768854737282,0.04686737433075905
1751014004814274600,2.566274658203125,-0.027939222753047943,-0.03231053426861763,0.0676589384675026
1751014004824218600,2.576218505859375,-0.02298254705965519,-0.01732359640300274,0.06998041272163391
1751014004834161400,2.586161376953125,-0.010252371430397034,0.006837666034698486,0.058461178094148636
1751014004844105500,2.59610546875,0.0038717035204172134,0.03247698396444321,0.024441959336400032
1751014004854049800,2.6060498046875,0.014348046854138374,0.05301235243678093,-0.012746421620249748
1751014004863992600,2.61599267578125,0.019652796909213066,0.07447876036167145,-0.050521764904260635
1751014004873936600,2.6259365234375,0.016039952635765076,0.07529102265834808,-0.08021281659603119
1751014004883880700,2.635880615234375,0.007995608262717724,0.06365913897752762,-0.09363088756799698
1751014004893823700,2.64582373046875,-0.009544502943754196,0.05079447105526924,-0.09479894489049911
1751014004903767800,2.655767822265625,-0.02556820958852768,0.022061092779040337,-0.08572502434253693
1751014004913711900,2.6657119140625,-0.032637570053339005,-0.004270112607628107,-0.06339175254106522
1751014004923655000,2.675655029296875,-0.03189055621623993,-0.03284609690308571,-0.03675162419676781
1751014004933598700,2.6855986328125,-0.028653481975197792,-0.05820498242974281,-0.01631345972418785
1751014004943541800,2.695541748046875,-0.02911314368247986,-0.07434746623039246,-0.005803028121590614
1751014004953485800,2.70548583984375,-0.020330306142568588,-0.07687560468912125,-0.0023869911674410105
1751014004963430000,2.715429931640625,-0.004780640359967947,-0.06424876302480698,-0.005526059307157993
1751014004973373000,2.725373046875,0.01872255466878414,-0.044200483709573746,-0.01363272126764059
1751014004983317000,2.73531689453125,0.03832182288169861,-0.013578925281763077,-0.028777586296200752
1751014004993260800,2.7452607421875,0.04358556121587753,0.01902349293231964,-0.05431836470961571
1751014005003203800,2.755203857421875,0.043530698865652084,0.04012877866625786,-0.0817478597164154
1751014005013148000,2.76514794921875,0.03611592575907707,0.039017707109451294,-0.1054084450006485
1751014005023091700,2.775091796875,0.032582975924015045,0.030478812754154205,-0.1059378832578659
1751014005033034800,2.78503466796875,0.02743215672671795,0.0013760552974417806,-0.10214713960886002
1751014005042978800,2.794978759765625,0.023093868046998978,-0.031675904989242554,-0.07707401365041733
1751014005052922600,2.804922607421875,0.011285411193966866,-0.0644753947854042,-0.0423051118850708
1751014005062865700,2.81486572265625,0.003564641112461686,-0.08662597090005875,-0.004555070772767067
1751014005072810000,2.82481005859375,-0.00914502888917923,-0.09138823300600052,0.027705930173397064
1751014005082753800,2.83475390625,-0.005605687852948904,-0.08398917317390442,0.05347973480820656
1751014005092696800,2.84469677734375,0.006059490609914064,-0.06130144000053406,0.05938715860247612
1751014005102641000,2.854640869140625,0.019422700628638268,-0.03183223307132721,0.05167863890528679
1751014005112584700,2.864584716796875,0.037154559046030045,0.0016698020044714212,0.03014298900961876
1751014005122527700,2.87452783203125,0.05236094072461128,0.027231886982917786,0.004173972178250551
1751014005132471800,2.884471923828125,0.05759405344724655,0.03840304911136627,-0.019100457429885864
1751014005142416000,2.894415771484375,0.054363638162612915,0.037755899131298065,-0.03417155146598816
1751014005152358700,2.904358642578125,0.04723808541893959,0.021693311631679535,-0.040217991918325424
1751014005162302700,2.914302734375,0.035474371165037155,0.00410419749096036,-0.03380510210990906
1751014005172247000,2.9242470703125,0.02400599978864193,-0.009528257884085178,-0.011779693886637688
1751014005182189800,2.93418994140625,0.014422082342207432,-0.024525849148631096,0.0204490814357996
1751014005192134000,2.9441337890625,0.004178233444690704,-0.028609540313482285,0.05582891032099724
1751014005202077000,2.954076904296875,0.0001680454588495195,-0.023539680987596512,0.0836658701300621
1751014005212021000,2.96402099609375,0.0059689427725970745,-0.010824152268469334,0.10214287787675858
1751014005221964800,2.97396484375,0.009281116537749767,0.005474127363413572,0.1091025173664093
1751014005231908900,2.983908935546875,0.01369290892034769,0.02081766352057457,0.10373331606388092
1751014005241852000,2.993851806640625,0.01781601458787918,0.03410071134567261,0.09022283554077148
1751014005251795700,3.003795654296875,0.021072527393698692,0.04220018535852432,0.0712941512465477
1751014005261738800,3.01373876953125,0.02021738700568676,0.04027871415019035,0.04396612569689751
1751014005271682800,3.023682861328125,0.019530557096004486,0.03521950542926788,0.01889832317829132
1751014005281627000,3.033626953125,0.008931176736950874,0.02099609561264515,0.007364439312368631
1751014005291570000,3.04356982421875,-0.0023912524338811636,0.008079498074948788,-0.0043718451634049416
1751014005301514000,3.053513916015625,-0.014345915988087654,-0.008552475832402706,0.0015893745003268123
1751014005311457800,3.063457763671875,-0.023782294243574142,-0.025240108370780945,0.010469418950378895
1751014005321400800,3.07340087890625,-0.02460414543747902,-0.04074743017554283,0.02105308696627617
1751014005331345000,3.083344970703125,-0.019889818504452705,-0.042144257575273514,0.03736042231321335
1751014005341288700,3.093288818359375,-0.015993613749742508,-0.03285328671336174,0.05019579082727432
1751014005351231700,3.103231689453125,-0.006192381959408522,-0.01859498955309391,0.04759335145354271
1751014005361175800,3.11317578125,0.0012189288390800357,-0.0003171824791934341,0.037700239568948746
1751014005371119600,3.12311962890625,0.005282912403345108,0.01438240148127079,0.013018863275647163
1751014005381062700,3.133062744140625,0.009888317435979843,0.017360348254442215,-0.0023869911674410105
1751014005391007000,3.143007080078125,0.008213454857468605,0.015328089706599712,-0.01275600865483284
1751014005400950800,3.15295068359375,0.005693838465958834,0.009288573637604713,-0.004490888677537441
1751014005410893800,3.162893798828125,-0.0020120181143283844,-0.00013315805699676275,0.010177004151046276
1751014005420838000,3.172837890625,-0.005268265027552843,-0.011750665493309498,0.038366299122571945
1751014005430782000,3.182781982421875,-0.006776147056370974,-0.017193101346492767,0.06216297298669815
1751014005440724700,3.192724853515625,-0.012182364240288734,-0.017006147652864456,0.07233438640832901
1751014005450668800,3.202668701171875,-0.012178901582956314,-0.014856710098683834,0.07005205750465393
1751014005460612900,3.21261279296875,-0.017289508134126663,-0.014815963804721832,0.06137308105826378
1751014005470556000,3.222555908203125,-0.02267628349363804,-0.012337625958025455,0.0420590378344059
1751014005480499700,3.232499755859375,-0.018756376579403877,-0.005396896041929722,0.021506624296307564
1751014005490444000,3.242444091796875,-0.016403473913669586,0.010458766482770443,0.002404035534709692
1751014005500387000,3.252386962890625,-0.011032943613827229,0.023265108466148376,-0.013075321912765503
1751014005510331000,3.262330810546875,0.0017608820926398039,0.03825870528817177,-0.022347649559378624
1751014005520275000,3.27227490234375,0.007489075418561697,0.05975653976202011,-0.021649368107318878
1751014005530218000,3.282218017578125,0.014616759493947029,0.07553204149007797,-0.012018579989671707
1751014005540161800,3.292161865234375,0.01140099298208952,0.0768314003944397,-0.0046634613536298275
1751014005550104800,3.302104736328125,0.0024892566725611687,0.06624799221754074,0.00544350128620863
1751014005560049000,3.312048828125,-0.007700530346482992,0.04372537508606911,0.023267772048711777
1751014005569992700,3.32199267578125,-0.018618425354361534,0.03711887449026108,0.052739378064870834
1751014005579935700,3.331935791015625,-0.01894998922944069,0.04645058885216713,0.0877160057425499
1751014005589879800,3.3418798828125,-0.015088405460119247,0.058573830872774124,0.10016494989395142
1751014005599824000,3.351823974609375,-0.012649215757846832,0.06834416836500168,0.08243575692176819
1751014005609766700,3.3617666015625,-0.005622199270874262,0.08178593963384628,0.055322110652923584
1751014005619711000,3.3717109375,0.0016160061350092292,0.08031348139047623,0.019050389528274536
1751014005629654800,3.38165478515625,0.00012197277828818187,0.04971775412559509,-0.013004748150706291
1751014005639597800,3.391597900390625,-0.006563093978911638,0.01446842122823,-0.0313054583966732
1751014005649542000,3.4015419921875,-0.014390656724572182,-0.007769505959004164,-0.022650450468063354
1751014005659485700,3.411485595703125,-0.021349763497710228,-0.01073866430670023,-0.005908755585551262
1751014005669428700,3.4214287109375,-0.030042853206396103,-0.00680171325802803,0.00558198569342494
1751014005679372800,3.431372802734375,-0.03460618108510971,-0.0042144525796175,0.005431517027318478
1751014005689316900,3.44131689453125,-0.033659957349300385,0.0072991917841136456,0.0014543522847816348
1751014005699259600,3.451259765625,-0.022347116842865944,0.017532121390104294,-0.016527578234672546
1751014005709203700,3.46120361328125,-0.014738199301064014,0.01333098579198122,-0.050924431532621384
1751014005719148000,3.47114794921875,-0.005378253757953644,-0.006866694428026676,-0.09174669533967972
1751014005729090800,3.4810908203125,-0.0012034825049340725,-0.030821828171610832,-0.11581768095493317
1751014005739035000,3.491034912109375,-0.001219727797433734,-0.04995344579219818,-0.11258966475725174
1751014005748979000,3.50097900390625,-0.000538491178303957,-0.05836184322834015,-0.08220059424638748
1751014005758922000,3.510921875,0.0019765980541706085,-0.056001216173172,-0.03502615913748741
1751014005768865800,3.52086572265625,0.00926300697028637,-0.05157291144132614,0.004536428488790989
1751014005778809900,3.530809814453125,0.00956687331199646,-0.06029343232512474,0.03273531049489975
1751014005788753000,3.5407529296875,0.008944759145379066,-0.06113925576210022,0.0389505960047245
1751014005798696700,3.55069677734375,0.00005299690383253619,-0.06079357489943504,0.02773202955722809
1751014005808640800,3.560640869140625,-0.007892278023064137,-0.051852013915777206,0.016404272988438606
1751014005818583800,3.570583740234375,-0.007978830486536026,-0.0326644703745842,0.008189752697944641
1751014005828527900,3.58052783203125,-0.01306120678782463,-0.013996775262057781,-0.0021646174136549234
1751014005838472000,3.590471923828125,-0.009412409737706184,-0.0023302659392356873,-0.01942909136414528
1751014005848415000,3.6004150390625,0.0024778051301836967,0.007798268459737301,-0.025243837386369705
1751014005858358800,3.61035888671875,0.009955428540706635,0.01178981363773346,-0.028609540313482285
1751014005868301800,3.6203017578125,0.011728561483323574,0.012432967312633991,-0.03923662006855011
1751014005878246000,3.630245849609375,0.012557070702314377,0.005075718741863966,-0.046068158000707626
1751014005888189700,3.640189697265625,0.013526194728910923,0.00935941282659769,-0.04248407855629921
1751014005898128400,3.65012841796875,0.015015967190265656,0.02533118985593319,-0.02383582480251789
1751014005908072400,3.660072509765625,0.0153778912499547,0.049311622977256775,0.0032314795535057783
1751014005918016500,3.6700166015625,0.019098592922091484,0.06935536861419678,0.03933515399694443
1751014005927959600,3.67995947265625,0.029494509100914,0.08684302121400833,0.07267526537179947
1751014005937903400,3.6899033203125,0.05012308806180954,0.11119416356086731,0.09302794188261032
1751014005947847400,3.699847412109375,0.05946812033653259,0.13530242443084717,0.10205765813589096
1751014005957790500,3.70979052734375,0.07603751122951508,0.12398453056812286,0.09021937847137451
1751014005967734500,3.719734619140625,0.07231681048870087,0.09803761541843414,0.05511811375617981
1751014005977678600,3.7296787109375,0.0581091083586216,0.060569871217012405,0.01582610048353672
1751014005987621600,3.73962158203125,0.0336381196975708,0.01531956810504198,-0.02424275502562523
1751014005997565400,3.7495654296875,0.011915248818695545,-0.03211692348122597,-0.039382558315992355
1751014006007509500,3.759509521484375,-0.0037590519059449434,-0.06414196640253067,-0.04686950519680977
1751014006017452500,3.76945263671875,-0.007406251039355993,-0.09437816590070724,-0.03879533335566521
1751014006027396400,3.779396240234375,-0.0031105722300708294,-0.11191161721944809,-0.02166268415749073
1751014006037340400,3.78934033203125,0.005340969655662775,-0.10546570271253586,0.009042763151228428
1751014006047283500,3.799283447265625,0.01435390580445528,-0.08328051120042801,0.03212331607937813
1751014006057227300,3.809227294921875,0.021279456093907356,-0.05994163081049919,0.04416346549987793
1751014006067171600,3.819171630859375,0.03371588513255119,-0.036551885306835175,0.044009801000356674
1751014006077114400,3.8291142578125,0.03724297508597374,-0.015843678265810013,0.02347736246883869
1751014006087058400,3.839058349609375,0.039265114814043045,-0.0008719189208932221,0.002466087229549885
1751014006097002500,3.84900244140625,0.042038530111312866,0.004192348103970289,-0.014626879245042801
1751014006106945500,3.858945556640625,0.03923555463552475,0.004256263840943575,-0.01954920031130314
1751014006116889600,3.8688896484375,0.029231388121843338,-0.005004345905035734,-0.015231417492032051
1751014006126833400,3.87883349609375,0.007585481740534306,-0.021401960402727127,-0.008984173648059368
1751014006136776400,3.8887763671875,-0.015044196508824825,-0.04054982215166092,0.015850069001317024
1751014006146720500,3.898720458984375,-0.04404149204492569,-0.07037349790334702,0.039684828370809555
1751014006156664300,3.908664306640625,-0.08281365782022476,-0.11445387452840805,0.05778180807828903
1751014006166607400,3.918607421875,-0.12071976065635681,-0.14491324126720428,0.07742182165384293
1751014006176551400,3.928551513671875,-0.15405641496181488,-0.1645471304655075,0.09968797862529755
1751014006186494500,3.938494384765625,-0.17537528276443481,-0.17054909467697144,0.11206288635730743
1751014006196438500,3.9484384765625,-0.18203452229499817,-0.15383084118366241,0.11224877834320068
1751014006206382600,3.958382568359375,-0.17176216840744019,-0.12255547940731049,0.10226458311080933
1751014006216325600,3.96832568359375,-0.15088379383087158,-0.08825609087944031,0.08481555432081223
1751014006226269400,3.97826953125,-0.12075065076351166,-0.036435771733522415,0.05480971932411194
1751014006236213500,3.988213623046875,-0.08038938045501709,0.02063949778676033,0.00845580268651247
1751014006246156500,3.998156494140625,-0.03576065972447395,0.07179082930088043,-0.03199015557765961
1751014006256100400,4.008100341796875,0.011274226009845734,0.10532482713460922,-0.06521043181419373
1751014006266044400,4.01804443359375,0.03965872898697853,0.1258266419172287,-0.07984716445207596
1751014006275987500,4.027987548828125,0.05411649867892265,0.1328938752412796,-0.07570274919271469
1751014006285931300,4.03793115234375,0.0418182872235775,0.11940442770719528,-0.0555892251431942
1751014006295875600,4.04787548828125,0.023356720805168152,0.09715478122234344,-0.035118307918310165
1751014006305818600,4.057818603515625,0.007418501656502485,0.07896352559328079,-0.013075854629278183
1751014006315762400,4.067762451171875,0.0015222628135234118,0.06965763866901398,-0.0030043120495975018
1751014006325706500,4.07770654296875,0.009074987843632698,0.0816035196185112,-0.008617723360657692
1751014006335649500,4.0876494140625,0.023479759693145752,0.10604920238256454,-0.031438350677490234
1751014006345593300,4.09759326171875,0.04785753786563873,0.13989824056625366,-0.06356353312730789
1751014006355537400,4.107537353515625,0.07480259984731674,0.17157788574695587,-0.09843309968709946
1751014006365480400,4.11748046875,0.09380185604095459,0.19296465814113617,-0.12973003089427948
1751014006375424500,4.127424560546875,0.09977666288614273,0.19307704269886017,-0.1533200442790985
1751014006385368300,4.137368408203125,0.08707870543003082,0.17703816294670105,-0.15765593945980072
1751014006395311400,4.147311279296875,0.06692710518836975,0.13558152318000793,-0.14625947177410126
1751014006405255700,4.157255615234375,0.04120522737503052,0.06567461788654327,-0.1076606810092926
1751014006415199500,4.167199462890625,0.010466489009559155,-0.006207828409969807,-0.05992485210299492
1751014006425142500,4.177142578125,-0.02209438383579254,-0.06958573311567307,-0.0009038768475875258
1751014006435086600,4.187086669921875,-0.043178897351026535,-0.11336703598499298,0.05257319658994675
1751014006445030400,4.197030517578125,-0.05564515292644501,-0.1277260035276413,0.08856341987848282
1751014006454973400,4.206973388671875,-0.056770604103803635,-0.11659399420022964,0.10438898950815201
1751014006464917500,4.21691748046875,-0.04096447676420212,-0.09570015966892242,0.09560242295265198
1751014006474860500,4.226860595703125,-0.021255221217870712,-0.0629427433013916,0.07159455865621567
1751014006484804400,4.236804443359375,-0.0003462109307292849,-0.026316825300455093,0.03311507776379585
1751014006494748400,4.24674853515625,0.024220384657382965,-0.0030429279431700706,-0.003781422507017851
1751014006504691500,4.25669140625,0.03755936026573181,0.0025744778104126453,-0.027456657961010933
1751014006514635500,4.266635498046875,0.03930426388978958,0.003952397499233484,-0.037871215492486954
1751014006524579600,4.27657958984375,0.03350762650370598,0.0006599313346669078,-0.03074619546532631
1751014006534522600,4.286522705078125,0.023133547976613045,-0.004289287142455578,-0.0047177900560200214
1751014006544466400,4.296466552734375,0.005298625212162733,-0.0094507597386837,0.025796443223953247
1751014006554410500,4.306410400390625,-0.0008514125947840512,-0.011093397624790668,0.05335616692900658
1751014006564353500,4.316353515625,-0.0028961875941604376,-0.007444600574672222,0.07850173115730286
1751014006574297300,4.32629736328125,0.009615609422326088,0.008318649604916573,0.08726619929075241
1751014006584241400,4.336241455078125,0.021996911615133286,0.029708094894886017,0.08748351037502289
1751014006594184400,4.346184326171875,0.038235537707805634,0.05042828619480133,0.06673402339220047
1751014006604128300,4.356128173828125,0.04699387401342392,0.06436727195978165,0.03506051376461983
1751014006614072600,4.366072509765625,0.04897686466574669,0.07717707753181458,0.008332498371601105
1751014006624015600,4.376015625,0.0441908985376358,0.08357558399438858,-0.016287093982100487
1751014006633959400,4.38595947265625,0.03497582674026489,0.0751996785402298,-0.031039142981171608
1751014006643903500,4.395903564453125,0.02736930549144745,0.0660698339343071,-0.028382105752825737
1751014006653846500,4.405846435546875,0.02911793813109398,0.05444646254181862,-0.011127485893666744
1751014006663790600,4.41579052734375,0.027729898691177368,0.0369630791246891,0.02153565175831318
1751014006673734400,4.425734375,0.021739117801189423,0.025525333359837532,0.04784608632326126
1751014006683677400,4.435677490234375,0.019355321303009987,0.01561011839658022,0.0744398757815361
1751014006693621500,4.44562158203125,0.019510317593812943,0.009329319931566715,0.09638912230730057
1751014006703565300,4.4555654296875,0.01822907105088234,0.006325806491076946,0.11060108244419098
1751014006713508400,4.46550830078125,0.014789332635700703,0.004249073565006256,0.11560196429491043
1751014006723452700,4.47545263671875,0.009853695519268513,0.001576857641339302,0.108452707529068
1751014006733396500,4.485396484375,0.00415319949388504,-0.007228618022054434,0.08702464401721954
1751014006743339500,4.495339599609375,-0.007408381439745426,-0.024054735898971558,0.05282752960920334
1751014006753283600,4.50528369140625,-0.022492259740829468,-0.04170004278421402,0.020954815670847893
1751014006763227400,4.515227294921875,-0.03272758796811104,-0.05963616445660591,0.002150502521544695
1751014006773170400,4.52517041015625,-0.03322373330593109,-0.07375065237283707,-0.008792160078883171
1751014006783114500,4.535114501953125,-0.050085537135601044,-0.08826354891061783,-0.02123631350696087
1751014006793057500,4.5450576171875,-0.06290119886398315,-0.11198725551366806,-0.04206915572285652
1751014006803001300,4.55500146484375,-0.06567967683076859,-0.14019599556922913,-0.06641284376382828
1751014006812945400,4.5649453125,-0.0651630237698555,-0.18593551218509674,-0.08648642152547836
1751014006822888400,4.574888427734375,-0.06201703101396561,-0.23806849122047424,-0.07418741285800934
1751014006832832500,4.58483251953125,-0.08160964399576187,-0.26592114567756653,-0.032390695065259933
1751014006842776600,4.594776611328125,-0.1031828448176384,-0.2595631182193756,0.015064436942338943
1751014006852719600,4.6047197265625,-0.09708313643932343,-0.22377610206604004,0.0637478232383728
1751014006862663400,4.614663330078125,-0.07270988821983337,-0.18000970780849457,0.09943311661481857
1751014006872607500,4.624607421875,-0.036195822060108185,-0.11166421324014664,0.11489622294902802
1751014006882550500,4.634550537109375,-0.004138285759836435,-0.03690555319190025,0.11571700870990753
1751014006892494300,4.644494384765625,0.018994996324181557,0.0363612025976181,0.09678113460540771
1751014006902438700,4.654438720703125,0.03154194727540016,0.08547495305538177,0.06675639003515244
1751014006912381700,4.664381591796875,0.041673678904771805,0.08926329761743546,0.020531373098492622
1751014006922325500,4.674325439453125,0.05096464604139328,0.06814789772033691,-0.021408086642622948
1751014006932269800,4.684269775390625,0.050628289580345154,0.05420678108930588,-0.04856061190366745
1751014006942212900,4.694212890625,0.0431344211101532,0.041240911930799484,-0.05994535982608795
1751014006952156700,4.70415673828125,0.03657851740717888,0.023804930970072746,-0.05841803550720215
1751014006962100700,4.714100830078125,0.02881859801709652,0.010241718962788582,-0.04545110464096069
1751014006972043800,4.724043701171875,0.02322622574865818,-0.0002324939559912309,-0.030002107843756676
1751014006981987800,4.73398779296875,0.02299346588551998,-0.00812130980193615,-0.01441142987459898
1751014006991931600,4.743931640625,0.0306367389857769,-0.018200043588876724,-0.007982824929058552
1751014007001874700,4.753874755859375,0.04710972309112549,-0.018501246348023415,0.001606152392923832
1751014007011818800,4.76381884765625,0.0545620433986187,-0.013305685482919216,0.009730391204357147
1751014007021761500,4.773761474609375,0.058392737060785294,-0.005019525997340679,0.015225558541715145
1751014007031705600,4.78370556640625,0.052978262305259705,0.006718888878822327,0.010939466767013073
1751014007041650000,4.79364990234375,0.047387223690748215,0.011854794807732105,-0.007831824012100697
1751014007051592700,4.8035927734375,0.03790770098567009,0.013764548115432262,-0.029567746445536613
1751014007061536800,4.813536865234375,0.030895598232746124,0.005357214715331793,-0.048761945217847824
1751014007071480800,4.823480712890625,0.009702161885797977,-0.0054640076123178005,-0.0676802471280098
1751014007081424000,4.833423828125,-0.003775563556700945,-0.02208586037158966,-0.07939974963665009
1751014007091367700,4.84336767578125,-0.006817159708589315,-0.032011728733778,-0.07144542038440704
1751014007101311700,4.853311767578125,-0.004141481593251228,-0.03958043083548546,-0.046594131737947464
1751014007111254800,4.8632548828125,-0.005124987103044987,-0.041245441883802414,-0.017778197303414345
1751014007121198600,4.873198486328125,-0.007020891644060612,-0.03509380668401718,0.01401621662080288
1751014007131142700,4.883142578125,-0.0025590313598513603,-0.019088473170995712,0.03708371892571449
1751014007141085700,4.893085693359375,0.002743055811151862,-0.004927114117890596,0.05272899195551872
1751014007151029800,4.90302978515625,0.006659766659140587,0.015231683850288391,0.06272516399621964
1751014007160973800,4.912973876953125,0.013310745358467102,0.03484213724732399,0.060029514133930206
1751014007170916900,4.922916748046875,0.012650014832615852,0.05109008029103279,0.037461619824171066
1751014007180860700,4.932860595703125,0.008145278319716454,0.06555237621068954,0.00666535971686244
1751014007190804700,4.9428046875,-0.0022977753542363644,0.06616570055484772,-0.037336185574531555
1751014007200747800,4.952747802734375,-0.02323688007891178,0.048409078270196915,-0.08320673555135727
1751014007210691600,4.962691650390625,-0.053713295608758926,0.031068170443177223,-0.11536414176225662
1751014007220635600,4.9726357421875,-0.08021894097328186,0.01315255369991064,-0.12478960305452347
1751014007230578700,4.98257861328125,-0.09580748528242111,-0.0054123420268297195,-0.1153862476348877
1751014007240522500,4.9925224609375,-0.1006978452205658,-0.013795441016554832,-0.08871069550514221
1751014007250466800,5.002466796875,-0.0906047374010086,-0.00869282428175211,-0.05149701237678528
1751014007260409600,5.01240966796875,-0.06460428982973099,0.013697968795895576,-0.00905394833534956
1751014007270354000,5.02235400390625,-0.03081170842051506,0.02815227583050728,0.012864932417869568
1751014007280296700,5.032296630859375,0.005828061606734991,0.039017174392938614,0.0274414774030447
1751014007290240800,5.04224072265625,0.03292892128229141,0.05258810892701149,0.034991540014743805
1751014007300184800,5.052184814453125,0.05697327107191086,0.06845495849847794,0.033669546246528625
1751014007310127600,5.062127685546875,0.06141648814082146,0.06976070255041122,0.02280198596417904
1751014007320071700,5.07207177734375,0.06522320955991745,0.05245655030012131,-0.003357979701831937
1751014007330015700,5.082015625,0.06743097305297852,0.027154656127095222,-0.020115122199058533
1751014007339958800,5.091958740234375,0.06915749609470367,0.0011917646043002605,-0.026263561099767685
1751014007349902600,5.101902587890625,0.07263638824224472,-0.031134217977523804,-0.02028396539390087
1751014007359846700,5.1118466796875,0.06115070730447769,-0.050034139305353165,-0.006842459551990032
1751014007369789700,5.121789794921875,0.04767324775457382,-0.06698010116815567,0.005226986017078161
1751014007379733800,5.131733642578125,0.041315216571092606,-0.07144861668348312,0.01654621958732605
1751014007389677800,5.141677734375,0.04435894265770912,-0.06247003376483917,0.020809408277273178
1751014007399620900,5.151620849609375,0.045459095388650894,-0.047326501458883286,0.023368705064058304
1751014007409564700,5.161564697265625,0.04964611679315567,-0.021038439124822617,0.01960965432226658
1751014007419508700,5.1715087890625,0.059235092252492905,0.003320961957797408,0.0179371889680624
1751014007429451800,5.18145166015625,0.05801030620932579,0.024323714897036552,0.013638846576213837
1751014007439395600,5.1913955078125,0.05440039187669754,0.030067354440689087,0.003269829088822007
1751014007449339600,5.201339599609375,0.040413737297058105,0.01961418054997921,-0.021038705483078957
1751014007459282700,5.21128271484375,0.022709039971232414,0.0022567627020180225,-0.0380065031349659
1751014007469226500,5.2212265625,0.004262122791260481,-0.009471798315644264,-0.05387388542294502
1751014007479170800,5.2311708984375,-0.017603494226932526,-0.010543454438447952,-0.06407192349433899
1751014007489113900,5.24111376953125,-0.020917266607284546,-0.005770004820078611,-0.061705972999334335
1751014007499057700,5.2510576171875,-0.015687350183725357,-0.005941246170550585,-0.04779228940606117
1751014007509000700,5.261000732421875,-0.005050951149314642,-0.010030529461801052,-0.029652699828147888
1751014007518944800,5.27094482421875,0.008043012581765652,-0.011575163342058659,-0.008733037859201431
1751014007528888600,5.280888671875,0.029273200780153275,-0.01798192970454693,0.00920495018362999
1751014007538831600,5.29083154296875,0.04899390786886215,-0.026431873440742493,0.022064289078116417
1751014007548775700,5.300775634765625,0.06155737116932869,-0.03160346671938896,0.027050793170928955
1751014007558719700,5.3107197265625,0.06616943329572678,-0.02768302708864212,0.02955496311187744
1751014007568662500,5.32066259765625,0.06333423405885696,-0.02942766435444355,0.03092036582529545
1751014007578606600,5.330606689453125,0.061175473034381866,-0.03171665221452713,0.01696513406932354
1751014007588551000,5.340551025390625,0.05342434346675873,-0.04217168688774109,-0.0029079054947942495
1751014007598493700,5.35049365234375,0.045945655554533005,-0.043114978820085526,-0.02635144628584385
1751014007608437800,5.360437744140625,0.04029815271496773,-0.044912345707416534,-0.04700479283928871
1751014007618381800,5.3703818359375,0.04055647924542427,-0.04035913944244385,-0.05664410442113876
1751014007628324900,5.380324951171875,0.04778004065155983,-0.03852928429841995,-0.04512566700577736
1751014007638268700,5.3902685546875,0.05441344156861305,-0.03803260251879692,-0.015508918091654778
1751014007648212700,5.400212646484375,0.0555918887257576,-0.052250154316425323,0.016345150768756866
1751014007658155800,5.41015576171875,0.050326552242040634,-0.08255399763584137,0.04554804414510727
1751014007668099600,5.420099609375,0.046365369111299515,-0.13230504095554352,0.07122251391410828
1751014007678043600,5.430043701171875,0.03521258011460304,-0.17801792919635773,0.09286735951900482
1751014007687986700,5.439986572265625,0.018557971343398094,-0.20193499326705933,0.09631188958883286
1751014007697930800,5.4499306640625,0.010525078512728214,-0.19806568324565887,0.0902918130159378
1751014007707873800,5.459873779296875,0.018937738612294197,-0.19042320549488068,0.07660716027021408
1751014007717817900,5.46981787109375,0.029280656948685646,-0.13951101899147034,0.06127294525504112
1751014007727761700,5.47976171875,0.05269596725702286,-0.06762778013944626,0.04006752371788025
1751014007737704700,5.48970458984375,0.08476602286100388,-0.009197493083775043,0.020374514162540436
1751014007747648800,5.499648681640625,0.11250950396060944,0.026317091658711433,0.0018548916559666395
1751014007757592600,5.509592529296875,0.1315431147813797,0.0603506937623024,0.006088252644985914
1751014007767535600,5.51953564453125,0.144394189119339,0.07627985626459122,0.03074166737496853
1751014007777479700,5.529479736328125,0.14333611726760864,0.06787624955177307,0.06288442015647888
1751014007787423500,5.539423583984375,0.12820696830749512,0.051424041390419006,0.09864907711744308
1751014007797366500,5.549366455078125,0.10268723219633102,0.044554151594638824,0.13244245946407318
1751014007807310800,5.559310791015625,0.06861075013875961,0.050388872623443604,0.1538417637348175
1751014007817254700,5.569254638671875,0.029530994594097137,0.05469973012804985,0.15217435359954834
1751014007827197700,5.57919775390625,-0.008343949913978577,0.06139225512742996,0.12754331529140472
1751014007837141800,5.589141845703125,-0.025546105578541756,0.06908585876226425,0.08241764456033707
1751014007847085800,5.5990859375,-0.03556278720498085,0.07890892773866653,0.031211715191602707
1751014007857028600,5.609028564453125,-0.03220241144299507,0.09110354632139206,-0.0273264292627573
1751014007866972700,5.61897265625,-0.028436435386538506,0.09743760526180267,-0.0665755644440651
1751014007876916700,5.628916748046875,-0.02400413528084755,0.109022356569767,-0.09269291907548904
1751014007886859800,5.63885986328125,-0.018445853143930435,0.11387357115745544,-0.10888653248548508
1751014007896807700,5.6488076171875,-0.005469067487865686,0.10578262060880661,-0.10147123038768768
1751014007906750700,5.658750732421875,0.000800279900431633,0.08811760693788528,-0.0871889665722847
1751014007916694500,5.668694580078125,0.002817358123138547,0.04607854411005974,-0.07909242063760757
1751014007926638600,5.678638671875,-0.004424042999744415,0.005238703917711973,-0.07779599726200104
1751014007936581600,5.68858154296875,-0.009455020539462566,-0.021528461948037148,-0.09138371050357819
1751014007946525700,5.698525634765625,-0.004634432960301638,-0.03617877513170242,-0.11068043857812881
1751014007956469800,5.7084697265625,0.002555036684498191,-0.042338669300079346,-0.13675358891487122
1751014007966412800,5.718412841796875,0.022845661267638206,-0.03832581639289856,-0.1538742482662201
1751014007976356900,5.72835693359375,0.048348624259233475,-0.028422852978110313,-0.14830105006694794
1751014007986300700,5.73830078125,0.06906508654356003,-0.024951955303549767,-0.13193193078041077
1751014007996243700,5.74824365234375,0.08305813372135162,-0.026125077158212662,-0.10291653126478195
1751014008006187800,5.758187744140625,0.09689911454916,-0.01775715872645378,-0.05903295800089836
1751014008016131600,5.768131591796875,0.10784710198640823,0.010059824213385582,-0.004351605195552111
1751014008026074600,5.77807470703125,0.114952951669693,0.03687892109155655,0.039204128086566925
1751014008036018700,5.788018798828125,0.10455996543169022,0.03525439277291298,0.059603940695524216
1751014008045962500,5.79796240234375,0.08274121582508087,0.02851153537631035,0.07077057659626007
1751014008055905500,5.807905517578125,0.06338616460561752,0.03675561770796776,0.07191386818885803
1751014008065849900,5.817849853515625,0.04427531734108925,0.04867139831185341,0.05456923693418503
1751014008075792600,5.827792724609375,0.023620640859007835,0.05525366961956024,0.022175343707203865
1751014008085736700,5.83773681640625,0.009002549573779106,0.06202715262770653,-0.009303220547735691
1751014008095680800,5.8476806640625,0.00032570460462011397,0.07204622775316238,-0.023324763402342796
1751014008105623800,5.857623779296875,-0.011610583402216434,0.08323124051094055,-0.026517627760767937
1751014008115567600,5.867567626953125,-0.023682426661252975,0.083253875374794,-0.023517310619354248
1751014008125511700,5.87751171875,-0.03075604885816574,0.07155780494213104,-0.0137789286673069
1751014008135454700,5.887454833984375,-0.032586172223091125,0.06662696599960327,0.00022024342615623027
1751014008145398500,5.8973984375,-0.030893467366695404,0.06058717891573906,0.010498447343707085
1751014008155342600,5.907342529296875,-0.026399649679660797,0.059175439178943634,0.013119264505803585
1751014008165285600,5.91728564453125,-0.018791263923048973,0.0641518235206604,0.009936519898474216
1751014008175229700,5.927229736328125,-0.009827863425016403,0.0834892988204956,0.010033725760877132
1751014008185173800,5.937173828125,-0.011991148814558983,0.08920630812644958,-0.0012921657180413604
1751014008195116800,5.94711669921875,-0.02178998477756977,0.08914771676063538,-0.015603194013237953
1751014008205060600,5.957060546875,-0.037570543587207794,0.08375934511423111,-0.03184128552675247
1751014008215004700,5.967004638671875,-0.04643674194812775,0.07183823734521866,-0.04922027513384819
1751014008224947700,5.97694775390625,-0.04290539026260376,0.053579073399305344,-0.06217442452907562
1751014008234891800,5.986891845703125,-0.032877255231142044,0.02395566552877426,-0.06070462614297867
1751014008244835600,5.996835693359375,-0.02352290228009224,0.005382515024393797,-0.04706524685025215
1751014008254778600,6.006778564453125,-0.010849718004465103,-0.005221926141530275,-0.024712802842259407
1751014008264722700,6.01672265625,0.0054735951125621796,-0.0019046928500756621,-0.0006668555433861911
1751014008274665500,6.02666552734375,0.01630893163383007,0.002600310370326042,0.015607455745339394
1751014008284609500,6.036609619140625,0.03143435716629028,0.011166367679834366,0.021982796490192413
1751014008294553900,6.046553955078125,0.03664855659008026,0.015476161614060402,0.018446385860443115
1751014008304496600,6.05649658203125,0.0371878482401371,0.014421016909182072,-0.0010135991033166647
1751014008314440700,6.066440673828125,0.03448660299181938,0.011561847291886806,-0.027874508872628212
1751014008324384800,6.076384765625,0.030540864914655685,0.0033547841012477875,-0.04842132702469826
1751014008334327800,6.086327880859375,0.024346617981791496,0.012193283066153526,-0.052919406443834305
1751014008344271600,6.096271728515625,0.014652978628873825,0.022414494305849075,-0.050275154411792755
1751014008354215700,6.106215576171875,-0.0024053670931607485,0.03357953205704689,-0.036197151988744736
1751014008364158700,6.11615869140625,-0.01677764765918255,0.03352547064423561,-0.02707662433385849
1751014008374102500,6.1261025390625,-0.02762283943593502,0.02365419641137123,-0.029093703255057335
1751014008384046600,6.136046630859375,-0.035225898027420044,0.0026458504144102335,-0.02773415856063366
1751014008393989600,6.14598974609375,-0.041256360709667206,-0.015965383499860764,-0.029151227325201035
1751014008403933700,6.15593359375,-0.042266231030225754,-0.025496305897831917,-0.030531011521816254
1751014008413877800,6.165877685546875,-0.03991279378533363,-0.027583424001932144,-0.029515814036130905
1751014008423820800,6.17582080078125,-0.03670235350728035,-0.01525591779500246,-0.031843151897192
1751014008433764600,6.1857646484375,-0.027453461661934853,0.006436061579734087,-0.03165113553404808
1751014008443707600,6.195707763671875,-0.016766462475061417,0.02787184529006481,-0.02971714921295643
1751014008453651700,6.205651611328125,-0.004729241598397493,0.04379754886031151,-0.02799088880419731
1751014008463595500,6.215595458984375,0.008768457919359207,0.056419067084789276,-0.02594371698796749
1751014008473538600,6.22553857421875,0.023084014654159546,0.06424370408058167,-0.02941993996500969
1751014008483482600,6.235482666015625,0.026584206148982048,0.05973497033119202,-0.028792764991521835
1751014008493426700,6.2454267578125,0.01890658028423786,0.043469980359077454,-0.027096599340438843
1751014008503369500,6.255369384765625,-0.0003640541108325124,0.026851853355765343,-0.027087543159723282
1751014008513313800,6.265313720703125,-0.010813765227794647,0.017680993303656578,-0.011158645153045654
1751014008523257900,6.2752578125,-0.015676697716116905,0.020798489451408386,0.009354352951049805
1751014008533200600,6.28520068359375,-0.013001020066440105,0.026569558307528496,0.024264326319098473
1751014008543144700,6.295144775390625,-0.009838515892624855,0.02875335142016411,0.03305115923285484
1751014008553088800,6.3050888671875,-0.016383234411478043,0.03286580368876457,0.019585952162742615
1751014008563031600,6.315031494140625,-0.010656905360519886,0.04623247683048248,0.00003435477628954686
1751014008572975600,6.3249755859375,0.00018269284919369966,0.0556693859398365,-0.019947076216340065
1751014008582919700,6.334919677734375,0.002528405049815774,0.05717939883470535,-0.024048345163464546
1751014008592862700,6.34486279296875,0.0019883159548044205,0.056950099766254425,-0.02937093749642372
1751014008602806500,6.354806640625,-0.0059902481734752655,0.04631130397319794,-0.03501657396554947
1751014008612749600,6.36474951171875,-0.010536263696849346,0.028927521780133247,-0.03352972865104675
1751014008622694000,6.37469384765625,-0.02057957649230957,0.014200241304934025,-0.03507037088274956
1751014008632637700,6.3846376953125,-0.028865203261375427,-0.004338555503636599,-0.03586878627538681
1751014008642580700,6.394580810546875,-0.026885144412517548,-0.01471582893282175,-0.033964890986680984
1751014008652524800,6.40452490234375,-0.02352743037045002,-0.013377058319747448,-0.027352795004844666
1751014008662468600,6.414468505859375,-0.010279268957674503,-0.007863782346248627,-0.018632540479302406
1751014008672411600,6.42441162109375,0.00996075477451086,-0.002403502818197012,-0.009770605713129044
1751014008682355700,6.434355712890625,0.02804415114223957,0.005471730604767799,0.006061354652047157
1751014008692299500,6.444299560546875,0.04572887346148491,0.01269635371863842,0.025257952511310577
1751014008702242600,6.45424267578125,0.06191183626651764,0.01185080036520958,0.04602714627981186
1751014008712186600,6.4641865234375,0.06956363469362259,0.009106678888201714,0.056952763348817825
1751014008722130700,6.474130615234375,0.068049356341362,0.00646801944822073,0.06508126854896545
1751014008732073700,6.48407373046875,0.06045295670628548,0.001716939965263009,0.07063395529985428
1751014008742017800,6.494017822265625,0.04878591373562813,0.006622216198593378,0.07277993112802505
1751014008751960800,6.5039609375,0.03708851337432861,0.01008033100515604,0.062985360622406
1751014008761904600,6.513904541015625,0.025598570704460144,-0.0004849616379942745,0.041792720556259155
1751014008771848700,6.5238486328125,0.016079101711511612,-0.019759589806199074,0.009386311285197735
1751014008781791700,6.533791748046875,0.020478377118706703,-0.033719081431627274,-0.01010829396545887
1751014008791735600,6.543735595703125,0.018809907138347626,-0.040047816932201385,-0.022062158212065697
1751014008801679600,6.5536796875,0.018620822578668594,-0.03910612314939499,-0.026556774973869324
1751014008811622700,6.56362255859375,0.012496883049607277,-0.035416312515735626,-0.02953711897134781
1751014008821566500,6.57356640625,0.0092923017218709,-0.030939806252717972,-0.025053421035408974
1751014008831510800,6.5835107421875,0.009374327026307583,-0.014721954241394997,-0.013550695963203907
1751014008841453600,6.59345361328125,0.008674448356032372,-0.0049369679763913155,-0.004036553204059601
1751014008851397600,6.603397705078125,0.0017233315156772733,0.009246761910617352,-0.0023491743486374617
1751014008861341700,6.613341796875,-0.0012876383261755109,0.017786188051104546,-0.011151188053190708
1751014008871284700,6.62328466796875,0.00004926848123432137,0.02502359449863434,-0.027182085439562798
1751014008881228800,6.633228759765625,0.004649613052606583,0.031327031552791595,-0.03999881446361542
1751014008891172600,6.643172607421875,0.014845258556306362,0.03608556464314461,-0.05710163712501526
1751014008901111600,6.653111572265625,0.02046293020248413,0.04219192638993263,-0.06710180640220642
1751014008911055600,6.6630556640625,0.02683614194393158,0.04813237488269806,-0.06900197267532349
1751014008920998700,6.67299853515625,0.03496730327606201,0.052200619131326675,-0.057304300367832184
1751014008930942700,6.682942626953125,0.036319658160209656,0.04663647711277008,-0.043524838984012604
1751014008940886800,6.69288671875,0.03074006922543049,0.029938457533717155,-0.030949126929044724
1751014008950829800,6.702829833984375,0.022395586594939232,0.008475510403513908,-0.024661405012011528
1751014008960773600,6.712773681640625,0.01762533187866211,-0.0010634001810103655,-0.02310531958937645
1751014008970717700,6.7227177734375,0.012145612388849258,0.05501531437039375,-0.02972194366157055
1751014008980660700,6.73266064453125,0.03552497178316116,0.11880095303058624,-0.037330061197280884
1751014008990604500,6.7426044921875,0.07539941370487213,0.105948805809021,-0.022664831951260567
1751014009000548600,6.752548583984375,0.08915810286998749,0.07511153072118759,0.032346222549676895
1751014009010491600,6.76249169921875,0.07323373109102249,0.04772677645087242,0.1050233542919159
1751014009020435500,6.772435546875,0.05402461811900139,0.013544570654630661,0.17964938282966614
1751014009030379800,6.7823798828125,0.04770973324775696,0.001970472978428006,0.22666536271572113
1751014009040322800,6.79232275390625,0.06942248344421387,0.010453173890709877,0.22041653096675873
1751014009050266600,6.8022666015625,0.09265829622745514,0.019769443199038506,0.1647718995809555
1751014009060210700,6.812210693359375,0.11707974970340729,0.010990865528583527,0.06519365310668945
1751014009070153700,6.82215380859375,0.13603000342845917,-0.004737763665616512,-0.028900889679789543
1751014009080097800,6.832097900390625,0.13841938972473145,-0.029023662209510803,-0.08081255853176117
1751014009090040600,6.84204052734375,0.12005263566970825,-0.026098178699612617,-0.08768671005964279
1751014009099984600,6.851984619140625,0.08364589512348175,-0.05404858663678169,-0.06335633248090744
1751014009109928700,6.8619287109375,0.05995308235287666,-0.07831025123596191,-0.016828780993819237
1751014009119871700,6.871871826171875,0.0552896223962307,-0.06614972651004791,0.03667039796710014
1751014009129815600,6.881815673828125,0.06278642266988754,-0.048472195863723755,0.0710853636264801
1751014009139759900,6.891759765625,0.0785006657242775,-0.04761172831058502,0.08002692461013794
1751014009149703000,6.901702880859375,0.0930204913020134,-0.0542142353951931,0.07002782076597214
1751014009159646700,6.911646728515625,0.09745492041110992,-0.060020726174116135,0.04649985581636429
1751014009169590800,6.9215908203125,0.097086600959301,-0.054061636328697205,0.025489646941423416
1751014009179533800,6.931533935546875,0.09212832897901535,-0.04012691229581833,0.009428389370441437
1751014009189477600,6.9414775390625,0.08376893401145935,-0.023363379761576653,-0.008348477073013783
1751014009199421700,6.951421630859375,0.07913130521774292,-0.005942311137914658,-0.02034042589366436
1751014009209364700,6.96136474609375,0.06927227973937988,0.012538694776594639,-0.027050793170928955
1751014009219308500,6.97130859375,0.05550214275717735,0.016997093334794044,-0.03638250753283501
1751014009229251600,6.98125146484375,0.0480002835392952,0.01643250323832035,-0.04535789415240288
1751014009239195600,6.991195556640625,0.0387660376727581,0.014267086051404476,-0.05447123199701309
1751014009249139700,7.0011396484375,0.018790997564792633,0.002478603972122073,-0.06738383322954178
1751014009259082500,7.01108251953125,0.005655488930642605,-0.0031161648221313953,-0.0751887634396553
1751014009269026800,7.02102685546875,0.0022160164080560207,-0.006473878398537636,-0.08254653960466385
1751014009278970600,7.030970703125,0.01465670671314001,-0.012120578438043594,-0.08352551609277725
1751014009288913700,7.04091357421875,0.022218486294150352,-0.021023526787757874,-0.07402122765779495
1751014009298857700,7.050857666015625,0.020715132355690002,-0.03723152354359627,-0.06151289492845535
1751014009308801500,7.060801513671875,0.010116550140082836,-0.048593636602163315,-0.043288618326187134
1751014009318744600,7.07074462890625,-0.007435545790940523,-0.05092523247003555,-0.029046032577753067
1751014009328688600,7.080688720703125,-0.018200309947133064,-0.049434926360845566,-0.028606077656149864
1751014009338632700,7.0906328125,-0.012743225321173668,-0.033728137612342834,-0.03301680460572243
1751014009348575500,7.100575439453125,-0.0057252636179327965,-0.01540532149374485,-0.048052214086055756
1751014009358519600,7.11051953125,0.0019736685790121555,-0.0012154667638242245,-0.06047293171286583
1751014009368464000,7.1204638671875,0.00986461527645588,0.012689696624875069,-0.07104568183422089
1751014009378406700,7.13040673828125,0.029338980093598366,0.021378524601459503,-0.06887280941009521
1751014009388350700,7.140350830078125,0.04433736950159073,0.02166960947215557,-0.05628484487533569
1751014009398293800,7.150293701171875,0.05371809005737305,0.02136947028338909,-0.033676471561193466
1751014009408237600,7.160237548828125,0.0635233148932457,0.03009079024195671,-0.004881574306637049
1751014009418181600,7.170181640625,0.06577874720096588,0.043236687779426575,0.02423822693526745
1751014009428124700,7.180124755859375,0.07189390063285828,0.0575205497443676,0.04614938423037529
1751014009438068700,7.19006884765625,0.07093888521194458,0.06755001842975616,0.04838404431939125
1751014009448012500,7.200012451171875,0.07033328711986542,0.06917907297611237,0.043364785611629486
1751014009457955600,7.20995556640625,0.06768263876438141,0.05962604656815529,0.02954963594675064
1751014009467899600,7.219899658203125,0.05760683864355087,0.03975779935717583,0.009317602030932903
1751014009477843700,7.22984375,0.043830838054418564,0.016467923298478127,-0.013472399674355984
1751014009487786800,7.239786865234375,0.029978405684232712,0.007042197044938803,-0.022429674863815308
1751014009497730800,7.249730712890625,0.020981714129447937,-0.0015078817959874868,-0.03117682784795761
1751014009507674600,7.259674560546875,0.021167069673538208,0.005544435232877731,-0.03116883896291256
1751014009517617700,7.26961767578125,0.012824718840420246,0.012540292926132679,-0.024937041103839874
1751014009527561700,7.279561767578125,0.013335779309272766,0.016216786578297615,-0.021691979840397835
1751014009537505500,7.289505615234375,0.011066765524446964,0.014402109198272228,-0.010404437780380249
1751014009547448600,7.299448486328125,0.00926327332854271,0.012351741082966328,0.0032021848019212484
1751014009557392600,7.309392578125,0.008834504522383213,0.009740778245031834,0.007790811359882355
1751014009567335700,7.319335693359375,0.011060373857617378,0.004332962911576033,0.00962759368121624
1751014009577279500,7.329279541015625,0.011098457500338554,0.008054464124143124,0.01786688156425953
1751014009587223800,7.339223876953125,-0.00022503710351884365,0.01576085388660431,0.01689828932285309
1751014009597166800,7.349166748046875,-0.008917062543332577,0.017588315531611443,0.0054458980448544025
1751014009607110700,7.359110595703125,-0.017363544553518295,0.01396029070019722,-0.012248676270246506
1751014009617054700,7.3690546875,-0.024351412430405617,0.015972575172781944,-0.028190625831484795
1751014009626997800,7.378997802734375,-0.023980699479579926,0.014284662902355194,-0.04225877299904823
1751014009636941600,7.388941650390625,-0.029217272996902466,0.006206230726093054,-0.05176013335585594
1751014009646885600,7.3988857421875,-0.03163595497608185,-0.0010309095960110426,-0.055623047053813934
1751014009656828700,7.40882861328125,-0.03326421231031418,-0.006552175153046846,-0.05529841035604477
1751014009666772500,7.4187724609375,-0.029739785939455032,-0.00466559175401926,-0.0462748222053051
1751014009676716500,7.428716552734375,-0.01744130812585354,0.005697034299373627,-0.035520974546670914
1751014009686659600,7.43865966796875,-0.005642705596983433,0.019236013293266296,-0.02273460663855076
1751014009696603600,7.448603759765625,0.004593953024595976,0.034085799008607864,-0.009638246148824692
1751014009706546700,7.458546630859375,0.02213566191494465,0.043892621994018555,0.0028703550342470407
1751014009716490800,7.46849072265625,0.033718280494213104,0.044312335550785065,0.010041981004178524
1751014009726434800,7.478434814453125,0.04236609861254692,0.04042944684624672,0.012441223487257957
1751014009736377600,7.488377685546875,0.043712060898542404,0.026318157091736794,0.009309878572821617
1751014009746321700,7.49832177734375,0.03912929445505142,0.0006815029191784561,-0.0024985778145492077
1751014009756265700,7.508265625,0.032755814492702484,-0.018260229378938675,-0.016707340255379677
1751014009766208800,7.518208740234375,0.024449417367577553,-0.028333105146884918,-0.025535985827445984
1751014009776152600,7.528152587890625,0.014426875859498978,-0.03219575434923172,-0.032524120062589645
1751014009786096600,7.5380966796875,0.014565627090632915,-0.022191587835550308,-0.025547703728079796
1751014009796039700,7.548039794921875,0.0169126708060503,-0.0006282397080212831,-0.010298976674675941
1751014009805983700,7.557983642578125,0.02558259107172489,0.025252891704440117,0.008113319985568523
1751014009815927800,7.567927734375,0.04272296279668808,0.03898068889975548,0.02905402146279812
1751014009825870800,7.577870849609375,0.05192897841334343,0.044850029051303864,0.03994768112897873
1751014009835814700,7.587814697265625,0.06143300235271454,0.03981425613164902,0.04610304534435272
1751014009845758700,7.5977587890625,0.06096694618463516,0.034689802676439285,0.04478424787521362
1751014009855701800,7.60770166015625,0.05037529021501541,0.024957014247775078,0.03501231223344803
1751014009865645600,7.6176455078125,0.038475487381219864,0.011860920116305351,0.01684262976050377
1751014009875588600,7.627588623046875,0.023070698603987694,-0.0023039006628096104,-0.003469566348940134
1751014009885532700,7.63753271484375,0.003300189273431897,-0.00833942275494337,-0.022000107914209366
1751014009895476500,7.6474765625,-0.017053551971912384,-0.014161891303956509,-0.03771142661571503
1751014009905419500,7.65741943359375,-0.034692734479904175,-0.014174141921103,-0.041728273034095764
1751014009915363800,7.66736376953125,-0.0371958389878273,0.0002950782363768667,-0.03760356828570366
1751014009925307600,7.6773076171875,-0.03123674914240837,0.017137175425887108,-0.01605912670493126
1751014009935250700,7.687250732421875,-0.022883212193846703,0.03743978217244148,0.006351372692734003
1751014009945194800,7.69719482421875,-0.009584982879459858,0.06138959154486656,0.025416409596800804
1751014009955138600,7.707138671875,-0.0035832831636071205,0.07275117188692093,0.04015061631798744
1751014009965081600,7.71708154296875,-0.006657636258751154,0.06939291954040527,0.03774444758892059
1751014009975025700,7.727025634765625,-0.0163028072565794,0.056898437440395355,0.024991368874907494
1751014009984969700,7.7369697265625,-0.024457139894366264,0.04198526591062546,0.015115835703909397
1751014009994912500,7.74691259765625,-0.030651919543743134,0.03170812875032425,0.004630704410374165
1751014010004856600,7.756856689453125,-0.035229891538619995,0.022950056940317154,-0.0006024070316925645
1751014010014799600,7.766799560546875,-0.031251128762960434,0.021145764738321304,-0.011745339259505272
1751014010024743700,7.77674365234375,-0.021576398983597755,0.029104355722665787,-0.023133814334869385
1751014010034687700,7.786687744140625,-0.0033358754590153694,0.04033703729510307,-0.03220081329345703
1751014010044630800,7.796630859375,0.017966482788324356,0.05136571824550629,-0.039204925298690796
1751014010054574800,7.806574951171875,0.035229627043008804,0.053396377712488174,-0.03738678619265556
1751014010064518700,7.8165185546875,0.044732850044965744,0.052991047501564026,-0.027302727103233337
1751014010074461700,7.826461669921875,0.04553712531924248,0.039196938276290894,-0.01739390380680561
1751014010084405800,7.83640576171875,0.037269074469804764,0.019829098135232925,-0.009674198925495148
1751014010094349600,7.846349609375,0.023785224184393883,0.001297225710004568,-0.008700813166797161
1751014010104292600,7.856292724609375,0.013291836716234684,-0.023792413994669914,-0.011114968918263912
1751014010114236700,7.866236572265625,-0.00119602563790977,-0.04530276730656624,-0.014785869978368282
1751014010124180500,7.876180419921875,-0.004989432170987129,-0.053707435727119446,-0.020676782354712486
1751014010134123500,7.88612353515625,-0.0022053637076169252,-0.051300738006830215,-0.02502572536468506
1751014010144067800,7.89606787109375,0.009186840616166592,-0.04177461192011833,-0.02251116745173931
1751014010154011600,7.90601171875,0.028504611924290657,-0.033118005841970444,-0.012770390138030052
1751014010163954700,7.91595458984375,0.04857445880770683,-0.014258830808103085,-0.0016082830261439085
1751014010173898800,7.925898681640625,0.05094973370432854,0.0028186896815896034,0.005012601613998413
1751014010183841800,7.935841796875,0.046119824051856995,0.012721920385956764,0.005680522415786982
1751014010193785600,7.94578564453125,0.03819239139556885,0.01690388284623623,0.007792143151164055
1751014010203729700,7.955729736328125,0.031070034950971603,0.01907595619559288,0.01013785507529974
1751014010213672700,7.965672607421875,0.026078471913933754,0.03169135004281998,0.016044214367866516
1751014010223616500,7.975616455078125,0.020074907690286636,0.051535364240407944,0.023787355050444603
1751014010233560600,7.985560546875,0.012313923798501492,0.06723256409168243,0.02569577656686306
1751014010243503600,7.995503662109375,0.005420864559710026,0.07092983275651932,0.02564064785838127
1751014010253447700,8.00544775390625,-0.00381391285918653,0.06421200931072235,0.011542938649654388
1751014010263391700,8.015391845703125,-0.007997739128768444,0.04767537862062454,-0.005105812568217516
1751014010273334800,8.025334716796875,-0.017423996701836586,0.0304521806538105,-0.025233451277017593
1751014010283278600,8.035278564453124,-0.027727767825126648,0.008371113799512386,-0.04531368613243103
1751014010293222700,8.04522265625,-0.04441220685839653,-0.00830639898777008,-0.05702946335077286
1751014010303165700,8.055165771484376,-0.0593288354575634,-0.012894759885966778,-0.06199066713452339
1751014010313109800,8.06510986328125,-0.06703788787126541,-0.012928315438330173,-0.05735170468688011
1751014010323053600,8.075053466796875,-0.06148120388388634,-0.005378786474466324,-0.04771292582154274
1751014010332996600,8.08499658203125,-0.043164514005184174,0.01672838069498539,-0.03079865872859955
1751014010342940700,8.094940673828125,-0.022280804812908173,0.04314294457435608,-0.023976705968379974
1751014010352883500,8.104883544921876,0.000693220819812268,0.06089823693037033,-0.02443663403391838
1751014010362827800,8.114827880859375,0.02232927456498146,0.07850199937820435,-0.02659912034869194
1751014010372771800,8.124771728515626,0.036916207522153854,0.07841065526008606,-0.03819825127720833
1751014010382714600,8.134714599609374,0.04209818318486214,0.06710180640220642,-0.053632333874702454
1751014010392658700,8.14465869140625,0.04123665392398834,0.04758669435977936,-0.055456601083278656
1751014010402602800,8.154602783203124,0.035472504794597626,0.022294387221336365,-0.048600293695926666
1751014010412545800,8.1645458984375,0.02238946221768856,-0.012012454681098461,-0.033226128667593
1751014010422489600,8.174489501953126,0.007860053330659866,-0.040281377732753754,-0.011389806866645813
1751014010432433700,8.18443359375,-0.002805640222504735,-0.0602542869746685,0.005046690348535776
1751014010442376700,8.194376708984375,-0.004482632502913475,-0.07484520971775055,0.015268701128661633
1751014010452320500,8.204320556640624,0.0054365769028663635,-0.06689088046550751,0.02580816112458706
1751014010462264800,8.214264892578125,0.02081180550158024,-0.04304387420415878,0.034866105765104294
1751014010472208000,8.224207763671876,0.026140524074435234,-0.012150139547884464,0.041555698961019516
1751014010482151700,8.234151611328125,0.02815520577132702,0.027184216305613518,0.047743819653987885
1751014010492095700,8.244095703125,0.026166623458266258,0.06028251349925995,0.043788760900497437
1751014010502038800,8.254038818359374,0.013713682070374489,0.07893157005310059,0.04030481353402138
1751014010511982600,8.263982666015625,-0.008982043713331223,0.07632007449865341,0.018379805609583855
1751014010521925600,8.273925537109376,-0.03927656635642052,0.05079660192131996,-0.0025595640763640404
1751014010531869700,8.28386962890625,-0.0727303996682167,0.01709882542490959,-0.022350579500198364
1751014010541813500,8.2938134765625,-0.1020110547542572,-0.016826650127768517,-0.0383487194776535
1751014010551756500,8.303756591796875,-0.11286476254463196,-0.04035913944244385,-0.06275712698698044
1751014010561700600,8.31370068359375,-0.11559157818555832,-0.06329508125782013,-0.08630426228046417
1751014010571644700,8.323644775390624,-0.09118770062923431,-0.07033807784318924,-0.10214394330978394
1751014010581587500,8.33358740234375,-0.04885915294289589,-0.08356919884681702,-0.09924216568470001
1751014010591531800,8.34353173828125,-0.045093707740306854,-0.07350191473960876,-0.09189077466726303
1751014010601475800,8.353475830078125,-0.03459153324365616,-0.05205680802464485,-0.07740850746631622
1751014010611418600,8.363418701171875,-0.01793905347585678,-0.03254036605358124,-0.05116065591573715
1751014010621362700,8.37336279296875,0.00021358551748562604,-0.004306597635149956,-0.031981367617845535
1751014010631306800,8.383306640625,0.016282035037875175,0.02839648723602295,-0.014123542234301567
1751014010641249500,8.39324951171875,0.02954697236418724,0.050885286182165146,-0.0006535397260449827
1751014010651193600,8.403193603515625,0.031800538301467896,0.0515793040394783,0.005825931206345558
1751014010661137700,8.4131376953125,0.022638732567429543,0.045407962054014206,0.011531487107276917
1751014010671080700,8.423080810546875,0.006202768534421921,0.03815058246254921,0.02797890454530716
1751014010681024500,8.4330244140625,-0.022537000477313995,0.02353648468852043,0.03857295960187912
1751014010690967600,8.442967529296874,-0.06733136624097824,0.01008246187120676,0.0317816324532032
1751014010700911900,8.452911865234375,-0.1313423067331314,0.010282731615006924,0.02298840694129467
1751014010710855700,8.462855712890626,-0.16967745125293732,0.015250591561198235,0.016105998307466507
1751014010720798700,8.472798828125,-0.18848443031311035,0.015175756998360157,0.002226402750238776
1751014010730742800,8.48274267578125,-0.17700007557868958,0.021793445572257042,-0.006667756475508213
1751014010740686600,8.4926865234375,-0.1362617015838623,0.03616040199995041,-0.013324594125151634
1751014010750629600,8.502629638671875,-0.09317388385534286,0.04885568842291832,-0.00771784083917737
1751014010760573700,8.51257373046875,-0.06403597444295883,0.04741225764155388,-0.00996182020753622
1751014010770517500,8.522517578125,-0.05354072153568268,0.03350016847252846,-0.01871243491768837
1751014010780460500,8.53246044921875,-0.05839060619473457,0.01877581886947155,-0.037143904715776443
1751014010790404600,8.542404541015625,-0.06024390086531639,0.006590524688363075,-0.05270795151591301
1751014010800348700,8.5523486328125,-0.06472813338041306,-0.002129463478922844,-0.06748104095458984
1751014010810291700,8.562291748046874,-0.06467512995004654,-0.0004985437262803316,-0.0782143771648407
1751014010820235800,8.57223583984375,-0.05625900998711586,0.0017305220244452357,-0.08132734894752502
1751014010830178800,8.5821787109375,-0.028847360983490944,0.00629012007266283,-0.06009369716048241
1751014010840122600,8.59212255859375,-0.001455151243135333,0.018366755917668343,-0.028081169351935387
1751014010850066700,8.602066650390626,0.03622617945075035,0.026101108640432358,0.008787899278104305
1751014010860009700,8.612009765625,0.06314274668693542,0.026126675307750702,0.037874944508075714
1751014010869953500,8.62195361328125,0.08340568095445633,0.04198100417852402,0.06359042972326279
1751014010879897600,8.631897705078124,0.10184833407402039,0.06574412435293198,0.07393654435873032
1751014010889840600,8.641840576171875,0.11356677860021591,0.08138860017061234,0.0656871348619461
1751014010899784700,8.65178466796875,0.10638662427663803,0.08331699669361115,0.04081933572888374
1751014010909728800,8.661728759765625,0.08784063905477524,0.06311771273612976,0.018312428146600723
1751014010919671800,8.671671875,0.06766320019960403,0.03690502047538757,0.0013973605819046497
1751014010929615600,8.68161572265625,0.04723275825381279,0.007799333427101374,0.00803262647241354
1751014010939560000,8.691559814453125,0.02713974192738533,-0.010979946702718735,0.022487465292215347
1751014010949503000,8.7015029296875,0.019769443199038506,-0.024034762755036354,0.05000058189034462
1751014010959446800,8.71144677734375,0.015220764093101025,-0.014505173079669476,0.0684557557106018
1751014010969390800,8.721390869140626,0.001484445994719863,-0.008304002694785595,0.07614883035421371
1751014010979334000,8.731333984375,0.0020157466642558575,-0.007947671227157116,0.07233039289712906
1751014010989278000,8.74127783203125,0.005215268116444349,-0.02646915800869465,0.04957554116845131
1751014010999220700,8.751220703125,0.012865465134382248,-0.0335845910012722,0.02617274783551693
1751014011009164800,8.761164794921875,0.022764701396226883,-0.036428846418857574,0.017257817089557648
1751014011019108900,8.77110888671875,0.03570153936743736,-0.03515851870179176,0.018381403759121895
1751014011029052000,8.781052001953125,0.03640061989426613,-0.034507643431425095,0.020610736683011055
1751014011038995700,8.79099560546875,0.027958929538726807,-0.033428531140089035,0.02141527645289898
1751014011048940000,8.80093994140625,0.02268454059958458,-0.024384168907999992,0.017408285290002823
1751014011058883000,8.810883056640625,0.01709855906665325,-0.007441404741257429,0.0009358347742818296
1751014011068827000,8.820826904296876,0.017580324783921242,0.012139753438532352,-0.03519047796726227
1751014011078771000,8.83077099609375,0.033661823719739914,0.035775575786828995,-0.08591011166572571
1751014011088714000,8.8407138671875,0.05616020783782005,0.04615630954504013,-0.13962846994400024
1751014011098657800,8.85065771484375,0.06644799560308456,0.05390051752328873,-0.17855402827262878
1751014011108601900,8.860601806640625,0.057370349764823914,0.061957910656929016,-0.18875660002231598
1751014011118545000,8.870544921875,0.041969552636146545,0.057735733687877655,-0.1807418167591095
1751014011128488700,8.88048876953125,0.016049273312091827,0.04162707179784775,-0.14992983639240265
1751014011138431700,8.890431640625,-0.014121944084763527,0.026825223118066788,-0.12504233419895172
1751014011148375800,8.900375732421875,-0.039326366037130356,-0.0017142767319455743,-0.10222144424915314
1751014011158319900,8.91031982421875,-0.058211106806993484,-0.04402924329042435,-0.08858232945203781
1751014011168262700,8.9202626953125,-0.06303782016038895,-0.08350235223770142,-0.0769624263048172
1751014011178207000,8.93020703125,-0.05925906077027321,-0.10210133343935013,-0.05318838730454445
1751014011188150800,8.94015087890625,-0.03626692667603493,-0.1105174571275711,-0.025239309296011925
1751014011198093800,8.95009375,-0.018340392038226128,-0.11912266165018082,-0.003183010034263134
1751014011208038000,8.960037841796876,0.001514539704658091,-0.1323319375514984,0.004576376173645258
1751014011217981700,8.969981689453125,0.020653080195188522,-0.1238311305642128,0.003914047963917255
1751014011227924700,8.9799248046875,0.026071814820170403,-0.10124299675226212,0.004808071069419384
1751014011237868800,8.989868896484374,0.03172783553600311,-0.06688955426216125,0.011985289864242077
1751014011247812900,8.999812744140625,0.04020201414823532,-0.030766168609261513,0.012271580286324024
1751014011257755600,9.009755615234376,0.06262529641389847,-0.0026258768048137426,0.008146610110998154
1751014011267699700,9.01969970703125,0.07752994447946548,0.02635117992758751,0.001430916483514011
1751014011277644000,9.02964404296875,0.08623901754617691,0.04530702903866768,-0.017499364912509918
1751014011287586800,9.0395869140625,0.08481502532958984,0.05089300870895386,-0.020254405215382576
1751014011297531000,9.04953076171875,0.07311895489692688,0.051299139857292175,-0.026218021288514137
1751014011307474000,9.059473876953126,0.048476722091436386,0.04676750674843788,-0.020612334832549095
1751014011317418000,9.06941796875,0.027997013181447983,0.03375263884663582,-0.00762889115139842
1751014011327361800,9.07936181640625,0.010487794876098633,0.020621655508875847,0.008293616585433483
1751014011337304800,9.089304931640624,-0.002930542454123497,0.008174573071300983,0.029582658782601357
1751014011347249000,9.099248779296875,-0.007250722497701645,0.004375307355076075,0.04969431832432747
1751014011357192700,9.109192626953124,-0.008330633863806725,0.010095510631799698,0.07067736238241196
1751014011367135700,9.1191357421875,-0.006192914675921202,0.021918615326285362,0.07420365512371063
1751014011377079800,9.129079833984376,0.0002181128947995603,0.03549913689494133,0.0746326893568039
1751014011387024000,9.13902392578125,0.005246427375823259,0.05359931290149689,0.06770341098308563
1751014011396967000,9.148966796875,0.015729427337646484,0.07734405994415283,0.06030808016657829
1751014011406911000,9.158910888671874,0.023249397054314613,0.09452011436223984,0.05486777424812317
1751014011416854800,9.168854736328125,0.027762388810515404,0.10435356944799423,0.04170510172843933
1751014011426797800,9.1787978515625,0.02527100220322609,0.09402289986610413,0.012584234587848186
1751014011436742000,9.188741943359375,0.014376808889210224,0.06506048887968063,-0.022591860964894295
1751014011446685000,9.198684814453125,0.0005225121858529747,0.04157913476228714,-0.04898219183087349
1751014011456628700,9.208628662109374,-0.012141884304583073,0.025774339213967323,-0.06222715601325035
1751014011466572800,9.21857275390625,-0.018371017649769783,0.005524461157619953,-0.05548856034874916
1751014011476515800,9.228515869140624,-0.022731412202119827,-0.00845793355256319,-0.0390898771584034
1751014011486459600,9.238459716796875,-0.02329040877521038,-0.016750484704971313,-0.00945049338042736
1751014011496404000,9.248404052734376,-0.023249661549925804,-0.01991005800664425,0.017128653824329376
1751014011506347000,9.258346923828125,-0.011227620765566826,-0.00893969926983118,0.03654149919748306
1751014011516290800,9.268290771484375,0.024252874776721,0.0020724718924611807,0.050209108740091324
1751014011526235000,9.27823486328125,0.05537617206573486,0.015667377039790154,0.05264270305633545
1751014011536178000,9.288177978515625,0.07166379690170288,0.03248816728591919,0.03967657312750816
1751014011546121700,9.298121826171876,0.07649131119251251,0.04783836379647255,0.019357718527317047
1751014011556065800,9.308065673828125,0.06704534590244293,0.059969328343868256,-0.009638512507081032
1751014011566008800,9.3180087890625,0.04940083995461464,0.07013221830129623,-0.03657585382461548
1751014011575953000,9.327952880859375,0.03644722327589989,0.06689940392971039,-0.062117964029312134
1751014011585895700,9.337895751953125,0.017774203792214394,0.0647430419921875,-0.08024556934833527
1751014011595839700,9.34783984375,0.0016591493040323257,0.05506298691034317,-0.09054134786128998
1751014011605784000,9.3577841796875,-0.01194054912775755,0.03839505836367607,-0.08223548531532288
1751014011615726800,9.367726806640626,-0.01986638270318508,0.022699452936649323,-0.06530390679836273
1751014011625671000,9.3776708984375,-0.014520352706313133,0.01672038994729519,-0.04313974827528
1751014011635615000,9.387614990234376,-0.014819426462054253,0.013675598427653313,-0.026065954938530922
1751014011645557800,9.397557861328124,-0.009441172704100609,0.0073109096847474575,-0.012329370714724064
1751014011655501800,9.407501708984375,0.0070160976611077785,0.003949468024075031,-0.004035487771034241
1751014011665446000,9.41744580078125,0.014974688179790974,0.004217115696519613,0.0010458233300596476
1751014011675389000,9.427388916015625,0.02965536341071129,0.002814961364492774,0.0002740392810665071
1751014011685332700,9.437332763671876,0.03473720699548721,-0.0010719223646447062,-0.0019925772212445736
1751014011695276800,9.44727685546875,0.041851308196783066,-0.009727728553116322,-0.0051681301556527615
1751014011705219800,9.4572197265625,0.05391915887594223,-0.009720005095005035,-0.0010301107540726662
1751014011715164000,9.467163818359374,0.07827882468700409,0.009516806341707706,0.008972455747425556
1751014011725108000,9.47710791015625,0.09923524409532547,0.03377474099397659,0.027287812903523445
1751014011735051000,9.487051025390626,0.1092577800154686,0.04230724275112152,0.0432468056678772
1751014011744994800,9.496994873046875,0.10686866194009781,0.03904034197330475,0.047140080481767654
1751014011754937900,9.506937744140625,0.09194909781217575,0.023207318037748337,0.0419253446161747
1751014011764882000,9.5168818359375,0.06992928683757782,0.0020956413354724646,0.008130364120006561
1751014011774825700,9.52682568359375,0.05164109170436859,-0.02008662559092045,-0.03304237127304077
1751014011784768800,9.536768798828126,0.034266360104084015,-0.03543974831700325,-0.05856690555810928
1751014011794712800,9.546712890625,0.02376365289092064,-0.03734763711690903,-0.06290040165185928
1751014011804656600,9.55665673828125,0.014328871853649616,-0.03211692348122597,-0.05227279290556908
1751014011814599700,9.566599609375,0.009336776100099087,-0.02123764343559742,-0.030943535268306732
1751014011824544000,9.5765439453125,0.011091799475252628,-0.0024780714884400368,0.00018136126163881272
1751014011834487800,9.58648779296875,0.008275240659713745,0.017858093604445457,0.014633004553616047
1751014011844430800,9.596430908203125,-0.00013076121103949845,0.028569059446454048,0.02190183661878109
1751014011854375000,9.606375,-0.007933557033538818,0.03664536401629448,0.015970977023243904
1751014011864318700,9.616318603515625,-0.015413844026625156,0.04175170883536339,0.011813249439001083
1751014011874261800,9.62626171875,-0.02022111602127552,0.04874783009290695,0.00689039658755064
1751014011884205800,9.636205810546874,-0.03172410652041435,0.053707435727119446,0.00839694682508707
1751014011894148900,9.64614892578125,-0.04338342696428299,0.06467273831367493,0.0011797803454101086
1751014011904092700,9.6560927734375,-0.04261483997106552,0.06897560507059097,-0.013406353071331978
1751014011914036700,9.66603662109375,-0.048231445252895355,0.06492307037115097,-0.031680431216955185
1751014011923979800,9.675979736328125,-0.06860489398241043,0.04922160878777504,-0.05035877972841263
1751014011933923800,9.685923828125,-0.0950559452176094,0.045945655554533005,-0.059535231441259384
1751014011943867600,9.69586767578125,-0.09828582406044006,0.035775575786828995,-0.06191210448741913
1751014011953810700,9.705810791015624,-0.08773278445005417,0.035597141832113266,-0.049013614654541016
1751014011963755000,9.715755126953125,-0.07304331660270691,0.03436702862381935,-0.026144253090023994
1751014011973698800,9.72569873046875,-0.0620868057012558,0.04409315809607506,0.0013044163351878524
1751014011983641900,9.735641845703125,-0.04868817701935768,0.043478768318891525,0.015918778255581856
1751014011993586000,9.7455859375,-0.03876763582229614,0.039019037038087845,0.022827817127108574
1751014012003529000,9.755529052734374,-0.03540299832820892,0.029406623914837837,0.012748552486300468
1751014012013472800,9.76547265625,-0.04134850576519966,0.009922139346599579,-0.008357532322406769
1751014012023416800,9.775416748046876,-0.05100885406136513,-0.00863370206207037,-0.03626639395952225
1751014012033360000,9.78535986328125,-0.06142021715641022,-0.019584886729717255,-0.06060235947370529
1751014012043303700,9.7953037109375,-0.06785308569669724,-0.031499069184064865,-0.07882370799779892
1751014012053247700,9.805247802734375,-0.07154156267642975,-0.04704607278108597,-0.08308876305818558
1751014012063190800,9.815190673828125,-0.07233039289712906,-0.05422675237059593,-0.06831194460391998
1751014012073134800,9.825134765625,-0.06769755482673645,-0.04433603957295418,-0.04779202491044998
1751014012083079000,9.835078857421875,-0.051962800323963165,-0.02599511481821537,-0.014652712270617485
1751014012093022000,9.84502197265625,-0.028067586943507195,-0.004572913981974125,0.0006463492172770202
1751014012102965800,9.8549658203125,-0.006424077320843935,0.007126885466277599,0.003725496120750904
1751014012112909800,9.864909912109376,0.005585980135947466,0.024345019832253456,0.0006644586683250964
1751014012122852900,9.874852783203124,0.015490543097257614,0.03494253754615784,-0.0015065502375364304
1751014012132796700,9.884796630859375,0.01774730533361435,0.02749500796198845,-0.0019915117882192135
1751014012142739700,9.89473974609375,0.017653828486800194,0.014357900246977806,-0.014444452710449696
1751014012152683800,9.904683837890625,0.013904097490012646,0.0022011026740074158,-0.028676917776465416
1751014012162627600,9.914627685546876,0.0030567762441933155,-0.007809187285602093,-0.03983663022518158
1751014012172570600,9.924570556640624,-0.012145079672336578,-0.015785887837409973,-0.051852013915777206
1751014012182515000,9.934514892578125,-0.0360429547727108,-0.018869828432798386,-0.07256181538105011
1751014012192458800,9.944458740234374,-0.04482366517186165,-0.028015656396746635,-0.0955483615398407
1751014012202401800,9.95440185546875,-0.03662645444273949,-0.04054609313607216,-0.1099960058927536
1751014012212345900,9.964345947265626,-0.024150077253580093,-0.043664123862981796,-0.11111560463905334
1751014012222290000,9.9742900390625,-0.01293444074690342,-0.04783809557557106,-0.0969446524977684
1751014012232232700,9.984232666015625,-0.01452834252268076,-0.043960265815258026,-0.07522524893283844
1751014012242176800,9.9941767578125,-0.018337195739150047,-0.028067320585250854,-0.05615754425525665
1751014012252120800,10.004120849609375,-0.023624902591109276,-0.018730277195572853,-0.05233484506607056
1751014012262063600,10.014063720703126,-0.025829466059803963,-0.018394719809293747,-0.05663984268903732
1751014012272007700,10.024007568359375,-0.0303358007222414,-0.019705794751644135,-0.059418320655822754
1751014012281950700,10.03395068359375,-0.037222471088171005,-0.021408086642622948,-0.06546662747859955
1751014012291895000,10.04389501953125,-0.05221366882324219,-0.01811934821307659,-0.07417143136262894
1751014012301838800,10.0538388671875,-0.05613064765930176,-0.011718708090484142,-0.07908895611763
1751014012311782000,10.063781982421874,-0.05453115329146385,0.002254632068797946,-0.07759252935647964
1751014012321726000,10.073725830078125,-0.03817348554730415,0.007536213379353285,-0.08133932948112488
1751014012331669800,10.083669677734376,-0.019399797543883324,0.007792143151164055,-0.07972438633441925
1751014012341612800,10.09361279296875,-0.0036581179592758417,0.010076336562633514,-0.0656711533665657
1751014012351556900,10.103556884765625,-0.005303951445966959,0.01684822142124176,-0.03748159483075142
1751014012361500700,10.113500732421874,-0.016833309084177017,0.0201026052236557,-0.003230147995054722
1751014012371443700,10.123443603515625,-0.028791701421141624,0.023748738691210747,0.02353355474770069
1751014012381387800,10.1333876953125,-0.02791685238480568,0.02737303450703621,0.04807032272219658
1751014012391330800,10.143330810546875,-0.022366292774677277,0.040290165692567825,0.06831354647874832
1751014012401274600,10.153274658203125,-0.010588196106255054,0.049070607870817184,0.07651741057634354
1751014012411219000,10.163218994140625,-0.002728408435359597,0.05686381459236145,0.07902850210666656
1751014012421162000,10.173161865234375,-0.004416320007294416,0.05317506939172745,0.06661444902420044
1751014012431105800,10.183105712890624,-0.013718741945922375,0.05139607936143875,0.05428880453109741
1751014012441049900,10.1930498046875,-0.020867997780442238,0.043364252895116806,0.03635401278734207
1751014012450993000,10.202992919921876,-0.027523769065737724,0.04079962894320488,0.023443806916475296
1751014012460936700,10.212936767578125,-0.032397087663412094,0.039745014160871506,0.021743910387158394
1751014012470880800,10.222880859375,-0.027634823694825172,0.04194904863834381,0.010311493650078773
1751014012480823800,10.23282373046875,-0.00833596009761095,0.04587161913514137,0.013566674664616585
1751014012490767600,10.242767578125,0.013824203051626682,0.06138692796230316,0.023792680352926254
1751014012500711700,10.252711669921876,0.034871961921453476,0.07909242063760757,0.037161484360694885
1751014012510654700,10.26265478515625,0.0470612533390522,0.10065817087888718,0.04749295115470886
1751014012520598800,10.272598876953126,0.041726406663656235,0.13466620445251465,0.04363882541656494
1751014012530541800,10.282541748046874,0.02797490917146206,0.19909605383872986,0.04308914765715599
1751014012540486000,10.29248583984375,0.010542122647166252,0.26724448800086975,0.029860960319638252
1751014012550429700,10.3024296875,-0.006883738562464714,0.30561771988868713,0.004935370292514563
1751014012560372700,10.312372802734375,-0.027407122775912285,0.3192909061908722,-0.03755776211619377
1751014012570316800,10.32231689453125,-0.030790936201810837,0.3096763491630554,-0.0793057382106781
1751014012580260900,10.3322607421875,-0.02262275479733944,0.2778864800930023,-0.09939316660165787
1751014012590203600,10.34220361328125,-0.007040865253657103,0.22872957587242126,-0.09160927683115005
1751014012600147700,10.352147705078124,0.0015108112711459398,0.16783906519412994,-0.057366352528333664
1751014012610091800,10.362091796875,0.0017438378417864442,0.11595775932073593,0.0033601103350520134
1751014012620034800,10.372034912109376,-0.002412823960185051,0.0830240473151207,0.0838560163974762
1751014012629979000,10.381978759765625,-0.009178584441542625,0.062494534999132156,0.1448192298412323
1751014012639923000,10.3919228515625,-0.017725201323628426,0.038172684609889984,0.17226789891719818
1751014012649866000,10.401865966796874,-0.027841750532388687,0.01774996891617775,0.15658614039421082
1751014012659809800,10.411809814453125,-0.03638943284749985,-0.002672215923666954,0.11409620940685272
1751014012669752800,10.4217529296875,-0.03684057295322418,-0.01125345379114151,0.06313609331846237
1751014012679697000,10.43169677734375,-0.031797345727682114,-0.00503949960693717,0.02298334613442421
1751014012689640700,10.441640625,-0.01793825440108776,0.005812881514430046,-0.003674629610031843
1751014012699583700,10.451583740234375,-0.00675297761335969,0.010638529434800148,-0.01167556457221508
1751014012709527800,10.46152783203125,0.0046573360450565815,-0.005078914575278759,-0.010011621750891209
1751014012719471600,10.4714716796875,-0.009183111600577831,-0.05108608677983284,0.02648140862584114
1751014012729414700,10.48141455078125,-0.028231637552380562,-0.05856264382600784,0.10216232389211655
1751014012739359000,10.49135888671875,-0.03394971042871475,-0.03386209160089493,0.16585661470890045
1751014012749302800,10.501302734375,-0.024043817073106766,-0.016767527908086777,0.20138052105903625
1751014012759245800,10.511245849609375,-0.002353169023990631,0.01665913686156273,0.21821223199367523
1751014012769190000,10.52118994140625,0.020383302122354507,0.06547035276889801,0.21918322145938873
1751014012779133700,10.5311337890625,0.027992751449346542,0.0944916158914566,0.19694209098815918
1751014012789076700,10.54107666015625,0.00023196132679004222,0.08366666734218597,0.15279753506183624
1751014012799020800,10.551020751953125,-0.04573499783873558,0.07766842842102051,0.09417416900396347
1751014012808963800,10.5609638671875,-0.07517171651124954,0.08470956236124039,0.03770982846617699
1751014012818907600,10.57090771484375,-0.08401527255773544,0.09277094900608063,-0.026766367256641388
1751014012828851700,10.580851806640625,-0.08529971539974213,0.06865788996219635,-0.09919795393943787
1751014012838794800,10.590794677734374,-0.07637253403663635,0.05396256595849991,-0.14904168248176575
1751014012848738800,10.60073876953125,-0.05221207067370415,0.06653162091970444,-0.1635652333498001
1751014012858683000,10.610682861328126,-0.04235145077109337,0.09297574311494827,-0.1644640415906906
1751014012868626000,10.6206259765625,-0.030967503786087036,0.09031578153371811,-0.1591515690088272
1751014012878569700,10.63056982421875,-0.027124561369419098,0.05746675655245781,-0.13507074117660522
1751014012888513800,10.640513671875,-0.02003496140241623,0.03663790598511696,-0.09268972277641296
1751014012898456600,10.65045654296875,-0.01381168607622385,0.02431279607117176,-0.04084889590740204
1751014012908400600,10.660400634765624,-0.02046506106853485,0.003135872073471546,-0.0051878378726542
1751014012918344400,10.670344482421875,-0.03551218658685684,-0.019845876842737198,-0.00304612354375422
1751014012928287500,10.68028759765625,-0.04876061528921127,-0.04573766142129898,-0.026318956166505814
1751014012938231600,10.6902314453125,-0.06326845288276672,-0.06183460354804993,-0.06377311795949936
1751014012948174600,10.700174560546875,-0.07430299371480942,-0.05379132553935051,-0.10113966464996338
1751014012958118400,10.710118408203124,-0.07115992903709412,-0.05413514003157616,-0.1303156614303589
1751014012968062500,10.7200625,-0.056106943637132645,-0.055210258811712265,-0.1319391280412674
1751014012978005500,10.730005615234376,-0.03284982591867447,-0.04697869345545769,-0.10540392249822617
1751014012987949300,10.73994921875,-0.01426229253411293,-0.03254649043083191,-0.06585544347763062
1751014012997893600,10.7498935546875,0.00007643271965207532,-0.013925136998295784,-0.028198614716529846
1751014013007836700,10.759836669921874,0.01206651609390974,-0.008710933849215508,0.005385976750403643
1751014013017780500,10.769780517578125,0.01558322086930275,-0.010521883144974709,0.03151744604110718
1751014013027724500,10.779724609375,0.013028983026742935,0.005221926141530275,0.04307210445404053
1751014013037667600,10.78966748046875,0.00932372733950615,0.009096292778849602,0.030971763655543327
1751014013047611400,10.799611328125,0.014991465955972672,-0.0017616810509935021,0.017186177894473076
1751014013057554400,10.809554443359374,0.012174640782177448,-0.01389770582318306,0.00152306177187711
1751014013067498500,10.81949853515625,0.007239803206175566,-0.014634336344897747,-0.015203453600406647
1751014013077442300,10.8294423828125,-0.0032000544015318155,-0.020384900271892548,-0.03195154294371605
1751014013087385300,10.83938525390625,-0.010403105989098549,-0.029086247086524963,-0.044373057782649994
1751014013097329400,10.849329345703126,-0.011996741406619549,-0.038970302790403366,-0.060071591287851334
1751014013107273500,10.8592734375,-0.014335796236991882,-0.03562989830970764,-0.0709410160779953
1751014013117216300,10.86921630859375,-0.005230181850492954,-0.024955151602625847,-0.07804020494222641
1751014013127160600,10.87916064453125,0.008107194676995277,-0.021387580782175064,-0.07737255096435547
1751014013137104400,10.8891044921875,0.010098973289132118,-0.0022003035992383957,-0.06389109790325165
1751014013147047400,10.89904736328125,0.014903315342962742,0.02569524385035038,-0.04107366502285004
1751014013156991500,10.908991455078125,0.024655278772115707,0.05342807248234749,-0.010994860902428627
1751014013166935600,10.918935546875,0.02335299365222454,0.07165687531232834,0.029798908159136772
1751014013176878300,10.92887841796875,0.01582317240536213,0.09274858236312866,0.08510024845600128
1751014013186822400,10.938822509765625,0.0037345506716519594,0.1301228553056717,0.13195297122001648
1751014013196765400,10.948765380859374,-0.00285011506639421,0.16828274726867676,0.15947407484054565
1751014013206709500,10.95870947265625,-0.006702377460896969,0.18155062198638916,0.14512470364570618
1751014013216653300,10.9686533203125,-0.005732720717787743,0.18284651637077332,0.09157972037792206
1751014013226596400,10.978596435546875,0.008912268094718456,0.17169027030467987,0.026695260778069496
1751014013236540700,10.988540771484375,0.021514080464839935,0.15230324864387512,-0.03532177209854126
1751014013246484500,10.998484375,0.03469859063625336,0.13312795758247375,-0.07799439877271652
1751014013256427500,11.008427490234375,0.04215650632977486,0.1118684783577919,-0.09076851606369019
1751014013266371600,11.01837158203125,0.04710039868950844,0.09871885180473328,-0.08683370053768158
1751014013276315400,11.0283154296875,0.05095506086945534,0.09468762576580048,-0.07305530458688736
1751014013286258400,11.038258544921876,0.05811390280723572,0.08994879573583603,-0.04380873218178749
1751014013296202500,11.048202392578125,0.05904547497630119,0.08970911055803299,-0.007774033583700657
1751014013306146300,11.058146240234375,0.054131411015987396,0.08066954463720322,0.030438067391514778
1751014013316089300,11.06808935546875,0.037400636821985245,0.06259999424219131,0.04477439448237419
1751014013326033400,11.078033447265625,0.02995816431939602,0.049481797963380814,0.050089266151189804
1751014013335976400,11.0879765625,0.026928020641207695,0.03749597445130348,0.04057272523641586
1751014013345920500,11.09792041015625,0.0202163215726614,0.02473970130085945,0.022352976724505424
1751014013355864600,11.107864501953125,0.015690812841057777,0.004062119405716658,0.005798500496894121
1751014013365807600,11.1178076171875,0.01221645250916481,-0.025731995701789856,-0.009582852013409138
1751014013375751400,11.12775146484375,0.0051657333970069885,-0.055266451090574265,-0.02197187766432762
1751014013385695500,11.137695556640624,-0.0033246902748942375,-0.0889490470290184,-0.026552248746156693
1751014013395638500,11.147638427734375,-0.01907755434513092,-0.10742366313934326,-0.012467321939766407
1751014013405582300,11.157582275390626,-0.046606115996837616,-0.07821197807788849,0.06866507977247238
1751014013415526400,11.1675263671875,-0.06279440969228745,-0.14623364806175232,0.08557695150375366
1751014013425469400,11.177469482421875,-0.04436133801937103,-0.1848265677690506,0.055573780089616776
1751014013435413200,11.187413330078124,-0.007564709056168795,-0.1345604807138443,0.02279878966510296
1751014013445356300,11.197356201171875,0.01924906112253666,-0.08919565379619598,-0.0018253305461257696
