time,seconds_elapsed,z,y,x
1751013486738989000,0.119989013671875,-0.023852335289120674,0.07686176151037216,-0.010508034378290176
1751013486748932000,0.12993212890625,-0.015917181968688965,0.06004256382584572,-0.005272792652249336
1751013486758875100,0.139875244140625,-0.015171229839324951,0.022436067461967468,-0.0013989584986120462
1751013486768819200,0.149819091796875,-0.02576049044728279,-0.02911847084760666,-0.005200354848057032
1751013486778762000,0.159761962890625,-0.039572976529598236,-0.07858295738697052,-0.017980331555008888
1751013486788705000,0.169705078125,-0.05116145312786102,-0.11525522172451019,-0.034927356988191605
1751013486798649000,0.179649169921875,-0.05651547387242317,-0.11430340260267258,-0.045647647231817245
1751013486808592100,0.189592041015625,-0.052270662039518356,-0.0817025825381279,-0.05644489824771881
1751013486818535200,0.19953515625,-0.04153306037187576,-0.041491515934467316,-0.06814949214458466
1751013486828479000,0.20947900390625,-0.03304583579301834,-0.03056616522371769,-0.07918722927570343
1751013486838422000,0.219422119140625,-0.02316177822649479,-0.02184324711561203,-0.09108010679483414
1751013486848365000,0.229364990234375,-0.009124522097408772,0.0558994859457016,-0.09642347693443298
1751013486858309000,0.23930908203125,0.034327615052461624,0.3126484453678131,-0.07864607870578766
1751013486868252200,0.249252197265625,0.07802529633045197,0.4017082750797272,-0.07265263050794601
1751013486878195000,0.25919482421875,0.10759010910987854,0.3609965443611145,-0.06752151995897293
1751013486888139000,0.269138916015625,0.12727060914039612,0.28900039196014404,-0.03201279416680336
1751013486898082000,0.27908203125,0.14123009145259857,0.24530109763145447,0.024818796664476395
1751013486908025000,0.289025146484375,0.15422658622264862,0.23076024651527405,0.08408638089895248
1751013486917969000,0.298968994140625,0.1570812314748764,0.22436466813087463,0.12333391606807709
1751013486927912000,0.308911865234375,0.15783384442329407,0.21037454903125763,0.13516953587532043
1751013486937855000,0.31885498046875,0.15659306943416595,0.19547230005264282,0.12126784026622772
1751013486947799000,0.328799072265625,0.15313255786895752,0.15993426740169525,0.09278346598148346
1751013486957742000,0.3387421875,0.1465177983045578,0.1232319176197052,0.04048776999115944
1751013486967684900,0.348684814453125,0.14537078142166138,0.08534232527017593,-0.011144530028104782
1751013486977629200,0.358629150390625,0.13115881383419037,0.041980206966400146,-0.05211353302001953
1751013486987572000,0.368572021484375,0.10343318432569504,0.014257232658565044,-0.07532298564910889
1751013486997515000,0.378514892578125,0.07606706768274307,0.00791438203305006,-0.06926669180393219
1751013487007459000,0.388458984375,0.05793573707342148,0.00935328844934702,-0.05174681916832924
1751013487017402000,0.398402099609375,0.053825147449970245,0.01167210191488266,-0.02887825295329094
1751013487027345200,0.40834521484375,0.06048038974404335,0.02010473608970642,-0.009783388115465641
1751013487037289200,0.418289306640625,0.08257503807544708,0.010039851069450378,0.010990599170327187
1751013487047232300,0.428232177734375,0.09727808088064194,0.029564550146460533,0.026080602779984474
1751013487057175000,0.438175048828125,0.10344250500202179,0.039560459554195404,0.03786109387874603
1751013487067119000,0.448119140625,0.10464971512556076,0.03164447844028473,0.04484736546874046
1751013487077062100,0.458062255859375,0.10919786244630814,0.03556092455983162,0.05884414166212082
1751013487087005200,0.468005126953125,0.11381817609071732,0.04405827075242996,0.07042383402585983
1751013487096949000,0.477948974609375,0.10358870774507523,0.03351721540093422,0.07681462168693542
1751013487106892000,0.48789208984375,0.0873681977391243,0.01678537204861641,0.08265173435211182
1751013487116835000,0.4978349609375,0.059471581131219864,-0.00740358792245388,0.0776444599032402
1751013487126779100,0.507779052734375,0.024507207795977592,-0.024415327236056328,0.06503891944885254
1751013487136722200,0.51772216796875,-0.00047857005847617984,-0.03855964168906212,0.035537220537662506
1751013487146665200,0.527665283203125,-0.010352239944040775,-0.03123515099287033,-0.002811232814565301
1751013487156609000,0.537609130859375,-0.00962493009865284,-0.006342051550745964,-0.04031439870595932
1751013487166552000,0.547552001953125,-0.0008844357798807323,0.02233007363975048,-0.0761653408408165
1751013487176495000,0.5574951171875,0.010394318029284477,0.04207954183220863,-0.09765066206455231
1751013487186439000,0.56743896484375,0.019713517278432846,0.05290316045284271,-0.10640393942594528
1751013487196382000,0.5773818359375,0.02375912480056286,0.0425298847258091,-0.10696479678153992
1751013487206325000,0.587324951171875,0.022958312183618546,0.02462012507021427,-0.09790339320898056
1751013487216269000,0.59726904296875,0.013276657089591026,0.0005880259559489787,-0.08396920561790466
1751013487226212000,0.607212158203125,-0.005632319487631321,-0.030290527269244194,-0.07483375817537308
1751013487236155100,0.617155029296875,-0.029017535969614983,-0.06867813318967819,-0.06719847768545151
1751013487246099000,0.627098876953125,-0.05008101090788841,-0.11087751388549805,-0.0670621246099472
1751013487256042000,0.6370419921875,-0.0550728403031826,-0.12649083137512207,-0.06694894284009933
1751013487265985000,0.646985107421875,-0.03407807648181915,-0.06303568929433823,-0.05747367814183235
1751013487275929000,0.65692919921875,-0.015164039097726345,-0.017366472631692886,-0.057982876896858215
1751013487285871900,0.666871826171875,0.002017344580963254,0.014591725543141365,-0.05079420655965805
1751013487295815000,0.67681494140625,0.0011211908422410488,0.026925090700387955,-0.02756078727543354
1751013487305759200,0.68675927734375,-0.006543386727571487,0.014022874645888805,0.0025987126864492893
1751013487315702000,0.696701904296875,-0.018082331866025925,-0.012116317637264729,0.0399591326713562
1751013487325645000,0.70664501953125,-0.017971277236938477,-0.045532599091529846,0.07238871604204178
1751013487335589000,0.716589111328125,-0.006453105714172125,-0.06499045342206955,0.09710045158863068
1751013487345532200,0.7265322265625,0.012622584588825703,-0.06955031305551529,0.10682898014783859
1751013487355475200,0.73647509765625,0.03079812601208687,-0.05883774906396866,0.09677394479513168
1751013487365419300,0.746419189453125,0.03815963491797447,-0.04372857138514519,0.06896442174911499
1751013487375362000,0.756362060546875,0.03303944319486618,-0.05362434685230255,0.03467275947332382
1751013487385305000,0.76630517578125,0.018220815807580948,-0.05457615852355957,-0.004577174782752991
1751013487395247900,0.776247802734375,0.006120743229985237,-0.04758482798933983,-0.0329052209854126
1751013487405191000,0.78619091796875,-0.01560985203832388,-0.03446769714355469,-0.06204792484641075
1751013487415134000,0.796134033203125,-0.017252756282687187,-0.026269953697919846,-0.08323097229003906
1751013487425078000,0.806078125,-0.01974600739777088,-0.03363386169075966,-0.09443303197622299
1751013487435020800,0.816020751953125,-0.023075757548213005,-0.04945250600576401,-0.09593798220157623
1751013487444963800,0.8259638671875,-0.024763137102127075,-0.05693305656313896,-0.0864936113357544
1751013487454908000,0.835907958984375,-0.023803066462278366,-0.05802308768033981,-0.06420082598924637
1751013487464851000,0.845850830078125,-0.016446884721517563,-0.0571807324886322,-0.03273557499051094
1751013487474794000,0.8557939453125,0.002162753138691187,-0.06036294251680374,-0.00424294825643301
1751013487484737800,0.86573779296875,0.011559717357158661,-0.06326872110366821,0.0243117306381464
1751013487494680800,0.875680908203125,0.012988236732780933,-0.05922417342662811,0.04362444207072258
1751013487504623900,0.885623779296875,0.006441920530050993,-0.046364568173885345,0.06208201125264168
1751013487514568000,0.89556787109375,0.005054413340985775,-0.023934626951813698,0.059658002108335495
1751013487524511000,0.905510986328125,-0.004847751930356026,-0.014705975539982319,0.048645831644535065
1751013487534453800,0.915453857421875,-0.020313261076807976,-0.009316536597907543,0.027875572443008423
1751013487544397800,0.925397705078125,-0.03383040055632591,-0.013364008627831936,0.01830310747027397
1751013487554340900,0.9353408203125,-0.03356808051466942,-0.004288754425942898,0.016386697068810463
1751013487564284000,0.945283935546875,-0.0200410857796669,0.008392952382564545,0.014190121553838253
1751013487574227700,0.955227783203125,-0.005056810099631548,0.020246416330337524,0.012256666086614132
1751013487584170800,0.965170654296875,0.012509133666753769,0.0483052134513855,0.009305617772042751
1751013487594113800,0.97511376953125,0.021827001124620438,0.06270252913236618,0.00863103847950697
1751013487604057900,0.985057861328125,0.017539313063025475,0.06512627005577087,0.0032591766212135553
1751013487614001000,0.9950009765625,0.011785286478698254,0.041132789105176926,0.0019315907265990973
1751013487623943700,1.004943603515625,0.006214220076799393,0.026856381446123123,0.012970926240086555
1751013487633888000,1.014887939453125,0.008282165043056011,0.01956491358578205,0.024220651015639305
1751013487643831000,1.0248310546875,0.003510312642902136,0.009639844298362732,0.03658464178442955
1751013487653774000,1.034774169921875,0.006987069267779589,-0.0026434536557644606,0.0435544028878212
1751013487663718000,1.0447177734375,0.008974320255219936,-0.03226499632000923,0.05144508183002472
1751013487673661000,1.054660888671875,0.008651278913021088,-0.03960120677947998,0.057425741106271744
1751013487683604000,1.06460400390625,0.0282279085367918,-0.054904259741306305,0.05007941275835037
1751013487693548000,1.074548095703125,0.02911980263888836,-0.06765387952327728,0.03472815454006195
1751013487703491000,1.084490966796875,0.03798546642065048,-0.06280932575464249,0.02815760113298893
1751013487713433900,1.094433837890625,0.04382524639368057,-0.05716421827673912,0.0245511494576931
1751013487723378000,1.1043779296875,0.0432065911591053,-0.05696368217468262,0.018197113648056984
1751013487733321000,1.114321044921875,0.038961779326200485,-0.051649078726768494,0.009497631341218948
1751013487743264000,1.124263916015625,0.03215287625789642,-0.037160951644182205,0.0037558560725301504
1751013487753207800,1.134207763671875,0.019175292924046516,-0.024896828457713127,-0.0015310513554140925
1751013487763150800,1.14415087890625,0.00022370553051587194,-0.0073503246530890465,-0.0019912454299628735
1751013487773094000,1.154093994140625,-0.014073740690946579,0.005146558862179518,-0.009661415591835976
1751013487783038000,1.164037841796875,-0.02184990420937538,0.004282895475625992,-0.01654249057173729
1751013487792981000,1.17398095703125,-0.02070314809679985,0.0070741549134254456,-0.021755095571279526
1751013487802924000,1.183924072265625,-0.017056748270988464,0.011031345464289188,-0.02564197964966297
1751013487812867800,1.193867919921875,-0.00818069837987423,0.010275274515151978,-0.03261280432343483
1751013487822811000,1.203810791015625,-0.002635996788740158,0.005254150368273258,-0.03987764194607735
1751013487832754000,1.21375390625,0.0010495517635717988,-0.009300291538238525,-0.043291546404361725
1751013487842698000,1.223697998046875,0.00452843913808465,-0.016342753544449806,-0.04192161560058594
1751013487852640800,1.233640869140625,0.009092031978070736,-0.01961764320731163,-0.04073411226272583
1751013487862583800,1.243583740234375,0.018133196979761124,-0.0162974800914526,-0.03736335039138794
1751013487872528000,1.25352783203125,0.021434985101222992,-0.0111647704616189,-0.038838740438222885
1751013487882471000,1.263470947265625,0.01853932999074459,-0.00686136819422245,-0.04079856351017952
1751013487892414000,1.2734140625,0.010238522663712502,0.000023169501218944788,-0.04416772723197937
1751013487902357800,1.283357666015625,0.00042823629337362945,-0.000937166390940547,-0.04747750237584114
1751013487912300800,1.29330078125,-0.018382469192147255,-0.003975833300501108,-0.05312127619981766
1751013487922243800,1.303243896484375,-0.04302816092967987,-0.0033510555513203144,-0.06523200124502182
1751013487932188000,1.31318798828125,-0.05405657738447189,-0.006133526097983122,-0.07100466638803482
1751013487942130700,1.323130615234375,-0.0525209978222847,-0.017952902242541313,-0.06886721402406693
1751013487952073700,1.33307373046875,-0.04380393773317337,-0.03217045217752457,-0.056416671723127365
1751013487962018000,1.34301806640625,-0.030893733724951744,-0.04640531539916992,-0.03867282718420029
1751013487971961000,1.352961181640625,-0.025121863931417465,-0.030182935297489166,-0.02155429497361183
1751013487981904000,1.36290380859375,-0.03638090938329697,0.0012258529895916581,-0.014158429577946663
1751013487991848000,1.372847900390625,-0.056119728833436966,0.03434865176677704,-0.03741821274161339
1751013488001791000,1.382791015625,-0.06906721740961075,0.07237300276756287,-0.09388894587755203
1751013488011734000,1.392734130859375,-0.06071048602461815,0.10579007863998413,-0.1562279462814331
1751013488021678000,1.402677978515625,-0.040762610733509064,0.1392154097557068,-0.20561601221561432
1751013488031620900,1.412620849609375,-0.022038722410798073,0.1578037440776825,-0.23659442365169525
1751013488041564000,1.42256396484375,-0.00891093723475933,0.17121621966362,-0.24506168067455292
1751013488051508000,1.432508056640625,0.002561428351327777,0.16596606373786926,-0.22740599513053894
1751013488061451000,1.442450927734375,0.01673264056444168,0.14053207635879517,-0.18572619557380676
1751013488071394000,1.45239404296875,0.027937624603509903,0.11101360619068146,-0.12071496248245239
1751013488081337900,1.462337890625,0.03058001399040222,0.08635859191417694,-0.04729747399687767
1751013488091281000,1.472281005859375,0.03906537592411041,0.0677710548043251,0.02652961201965809
1751013488101224000,1.482223876953125,0.03814232721924782,0.04090855270624161,0.09074880927801132
1751013488111168000,1.49216796875,0.03507835790514946,0.010937335900962353,0.1345631331205368
1751013488121111000,1.502111083984375,0.024101074784994125,-0.020309532061219215,0.1524457335472107
1751013488131053800,1.5120537109375,0.008523979224264622,-0.037932466715574265,0.15527907013893127
1751013488140998000,1.521997802734375,-0.004596083424985409,-0.04447026178240776,0.14032141864299774
1751013488150941000,1.53194091796875,-0.011855061165988445,-0.04352244362235069,0.11087112128734589
1751013488160884000,1.541884033203125,-0.014613297767937183,-0.039872583001852036,0.073399119079113
1751013488170827800,1.551827880859375,-0.01471423078328371,-0.02219425141811371,0.02785639837384224
1751013488180770800,1.561770751953125,-0.01290461327880621,-0.005431517027318478,-0.0182876605540514
1751013488190715000,1.57171484375,-0.00836818479001522,0.015691611915826797,-0.06429935991764069
1751013488200658000,1.581657958984375,0.003820837242528796,0.03846802935004234,-0.0989588052034378
1751013488210601000,1.59160107421875,0.010639062151312828,0.05114734172821045,-0.11707735061645508
1751013488220544800,1.601544677734375,0.009858756326138973,0.038471758365631104,-0.12660294771194458
1751013488230487800,1.61148779296875,0.004977714270353317,0.013353622518479824,-0.12053227424621582
1751013488240430800,1.621430908203125,0.0035177695099264383,-0.00043782367720268667,-0.0964256078004837
1751013488250375000,1.631375,0.005479720421135426,-0.0002008023438975215,-0.06489431113004684
1751013488260317700,1.641317626953125,0.004394481889903545,0.005093828309327364,-0.034209903329610825
1751013488270260700,1.6512607421875,0.004723649006336927,0.012433233670890331,-0.010870224796235561
1751013488280205000,1.661205078125,-0.0000798948312876746,0.018067417666316032,0.005588643718510866
1751013488290148000,1.671148193359375,0.007405718322843313,0.018153438344597816,0.017183247953653336
1751013488300091000,1.6810908203125,0.012701679952442646,0.01697259210050106,0.01672545075416565
1751013488310035000,1.691034912109375,0.01577416993677616,0.017226656898856163,0.014986139722168446
1751013488319978000,1.70097802734375,0.020241621881723404,0.009483249858021736,0.006959106307476759
1751013488329921000,1.710921142578125,0.016447415575385094,-0.007679757662117481,-0.006149505265057087
1751013488339865000,1.720864990234375,0.012680907733738422,-0.017791513353586197,-0.022277342155575752
1751013488349807900,1.730807861328125,0.015182681381702423,-0.01912735588848591,-0.03624216094613075
1751013488359751000,1.7407509765625,0.015396798960864544,-0.015733422711491585,-0.050635479390621185
1751013488369695000,1.750695068359375,0.01768978126347065,-0.011861985549330711,-0.05378733202815056
1751013488379638000,1.760637939453125,0.010264089331030846,-0.008072040975093842,-0.05539907515048981
1751013488389581000,1.7705810546875,0.0011563445441424847,-0.006295179948210716,-0.04529930278658867
1751013488399525400,1.780525390625,-0.0024919197894632816,-0.003933222498744726,-0.028786107897758484
1751013488409468400,1.790468505859375,0.0008407599525526166,0.00509808911010623,-0.011352256871759892
1751013488419411500,1.800411376953125,0.0067844027653336525,0.020414460450410843,0.010011089034378529
1751013488429355300,1.810355224609375,0.01588655449450016,0.04313575103878975,0.02947693131864071
1751013488439298300,1.82029833984375,0.02539057843387127,0.05723852291703224,0.030246052891016006
1751013488449241300,1.830241455078125,0.03687252849340439,0.0650266706943512,0.02171488292515278
1751013488459185400,1.840185302734375,0.037578798830509186,0.056054748594760895,0.006503173150122166
1751013488469128400,1.85012841796875,0.02756664715707302,0.03516251593828201,-0.01179354265332222
1751013488479071500,1.860071533203125,0.011799667961895466,0.011234811507165432,-0.0270068496465683
1751013488489015300,1.870015380859375,0.0013459615875035524,-0.01883600652217865,-0.039984166622161865
1751013488498958300,1.879958251953125,-0.006955111399292946,-0.03628263995051384,-0.0436827652156353
1751013488508901400,1.8899013671875,-0.006973753683269024,-0.04550010710954666,-0.04602954164147377
1751013488518845400,1.899845458984375,-0.008712531067430973,-0.04929537698626518,-0.04023370519280434
1751013488528788500,1.90978857421875,-0.009637713432312012,-0.044376518577337265,-0.03305835276842117
1751013488538731300,1.919731201171875,-0.001680720946751535,-0.021813420578837395,-0.019653063267469406
1751013488548675600,1.929675537109375,0.008131429553031921,0.01020017359405756,-0.009128517471253872
1751013488558618600,1.93961865234375,0.014578676782548428,0.02949504181742668,-0.013769874349236488
1751013488568561700,1.949561767578125,0.01173202320933342,0.03279336541891098,-0.028873726725578308
1751013488578505500,1.95950537109375,0.005080778617411852,0.01534486748278141,-0.04634512960910797
1751013488588448500,1.969448486328125,-0.009103483520448208,0.005385976750403643,-0.061399977654218674
1751013488598391600,1.9793916015625,-0.010469685308635235,0.008021441288292408,-0.06737877428531647
1751013488608335600,1.989335693359375,-0.003955326974391937,0.007899468764662743,-0.06403304636478424
1751013488618278400,1.9992783203125,0.005063201766461134,-0.0028575719334185123,-0.05594422668218613
1751013488628221400,2.009221435546875,0.016325710341334343,-0.004918059334158897,-0.03549008443951607
1751013488638165500,2.01916552734375,0.01631638966500759,-0.0062187472358345985,-0.02100621536374092
1751013488648108500,2.029108642578125,0.01182150561362505,-0.010328005068004131,-0.015622369013726711
1751013488658051600,2.039051513671875,0.009609750472009182,-0.005678392015397549,-0.02371758036315441
1751013488667995400,2.048995361328125,0.009707754477858543,0.0019797938875854015,-0.04255757853388786
1751013488677938400,2.0589384765625,0.014943529851734638,0.007387608755379915,-0.05820578336715698
1751013488687881500,2.068881591796875,0.017428524792194366,0.0052296495996415615,-0.07590515166521072
1751013488697825500,2.078825439453125,0.01973322406411171,-0.00042024682625196874,-0.07680077105760574
1751013488707768300,2.088768310546875,0.025594308972358704,0.0030631679110229015,-0.06514997780323029
1751013488717711400,2.09871142578125,0.023876836523413658,0.013765879906713963,-0.04077858850359917
1751013488727655400,2.108655517578125,0.026390329003334045,0.028446821495890617,-0.02328801155090332
1751013488737598500,2.118598388671875,0.019483420997858047,0.03599927946925163,-0.009499495849013329
1751013488747541500,2.12854150390625,0.013626595959067345,0.030250314623117447,-0.0054791877046227455
1751013488757485300,2.1384853515625,0.014099573716521263,0.02532666176557541,-0.009765013121068478
1751013488767428400,2.148428466796875,0.011110708117485046,0.02010606788098812,-0.021254688501358032
1751013488777371400,2.158371337890625,0.013760287314653397,0.023569773882627487,-0.03705335780978203
1751013488787315500,2.1683154296875,0.016342220827937126,0.022363096475601196,-0.05121631547808647
1751013488797258500,2.178258544921875,0.01762639731168747,0.022831812500953674,-0.05270315706729889
1751013488807202300,2.188202392578125,0.013887053355574608,0.03518461808562279,-0.04677123203873634
1751013488817145300,2.198145263671875,0.009251821786165237,0.04036872833967209,-0.03677905350923538
1751013488827088400,2.20808837890625,0.004185423720628023,0.020719658583402634,-0.03639848902821541
1751013488837032400,2.218032470703125,0.00410499656572938,0.0013142699608579278,-0.04343562573194504
1751013488846975500,2.2279755859375,-0.0004069310089107603,-0.0011707255616784096,-0.054075486958026886
1751013488856918300,2.237918212890625,0.007276288699358702,0.005107676610350609,-0.060802098363637924
1751013488866862600,2.247862548828125,0.012716594152152538,0.021807027980685234,-0.057922955602407455
1751013488876805600,2.2578056640625,0.01444179005920887,0.04554777592420578,-0.05185946822166443
1751013488886748700,2.267748779296875,0.016572851687669754,0.06259334087371826,-0.04009202495217323
1751013488896692500,2.2776923828125,0.00848483107984066,0.07012662291526794,-0.02341557666659355
1751013488906635500,2.287635498046875,0.005972937680780888,0.07307714223861694,-0.006339654792100191
1751013488916578600,2.29757861328125,0.002956641372293234,0.07419326901435852,0.01056422758847475
1751013488926522400,2.3075224609375,-0.0005009406013414264,0.06878412514925003,0.02490268647670746
1751013488936465400,2.31746533203125,-0.004690092988312244,0.05338732525706291,0.02287255972623825
1751013488946408400,2.327408447265625,-0.005218730308115482,0.04151628538966179,0.01721201092004776
1751013488956352500,2.3373525390625,-0.0012199940392747521,0.03912556543946266,-0.0030282805673778057
1751013488966295600,2.347295654296875,0.0002466087171342224,0.04506175220012665,-0.02701537311077118
1751013488976238600,2.357238525390625,0.003948935307562351,0.054904527962207794,-0.047030892223119736
1751013488986182400,2.367182373046875,0.001654622028581798,0.06318775564432144,-0.05847156420350075
1751013488996125400,2.37712548828125,-0.0005701828049495816,0.07047123461961746,-0.05329837650060654
1751013489006068500,2.387068359375,-0.005577990785241127,0.06963127851486206,-0.0290585495531559
1751013489016012500,2.397012451171875,-0.011366104707121849,0.06856494396924973,0.005388906225562096
1751013489025955300,2.406955322265625,-0.011756524443626404,0.0788697823882103,0.04289553686976433
1751013489035898400,2.4168984375,-0.003995806910097599,0.08581291139125824,0.0664685070514679
1751013489045842400,2.426842529296875,0.010046509094536304,0.07705297321081161,0.073792465031147
1751013489055785500,2.436785400390625,0.018816297873854637,0.057376738637685776,0.06198267638683319
1751013489065728500,2.446728515625,0.021151890978217125,0.045270275324583054,0.04511048644781113
1751013489075672300,2.45667236328125,0.01859419047832489,0.044369593262672424,0.015163772739470005
1751013489085615400,2.466615478515625,0.019599800929427147,0.04653314873576164,-0.01913907378911972
1751013489095558400,2.476558349609375,0.016018914058804512,0.04364095255732536,-0.04939417913556099
1751013489105502500,2.48650244140625,0.01209847442805767,0.04291710630059242,-0.07255090028047562
1751013489115445200,2.4964453125,0.013639645650982857,0.041493915021419525,-0.07884608209133148
1751013489125388300,2.50638818359375,0.01696992851793766,0.04008457064628601,-0.0693252757191658
1751013489135332400,2.516332275390625,0.01347825862467289,0.04009415581822395,-0.05666700750589371
1751013489145275400,2.526275390625,0.015896141529083252,0.040638506412506104,-0.03368179872632027
1751013489155219500,2.536219482421875,0.018504975363612175,0.03580167144536972,-0.006393717136234045
1751013489165162500,2.54616259765625,0.02058676816523075,0.027472637593746185,0.016598151996731758
1751013489175105300,2.556105224609375,0.016871390864253044,0.0193175058811903,0.03809012845158577
1751013489185049600,2.566049560546875,0.010963435284793377,0.021868281066417694,0.04230085015296936
1751013489194992600,2.57599267578125,0.009444634430110455,0.022470422089099884,0.03050544485449791
1751013489204935400,2.585935302734375,0.008740228600800037,0.034026410430669785,0.009698700159788132
1751013489214879500,2.59587939453125,0.006191849708557129,0.05016409978270531,-0.009765544906258583
1751013489224822500,2.605822509765625,0.006534065585583448,0.060148026794195175,-0.021641645580530167
1751013489234765600,2.615765625,0.008144212886691093,0.0669204443693161,-0.021399298682808876
1751013489244709400,2.62570947265625,0.012539760209619999,0.0616641640663147,-0.007022755686193705
1751013489254652400,2.63565234375,0.017519071698188782,0.05368293449282646,0.010312026366591454
1751013489264595500,2.645595458984375,0.018860772252082825,0.03647784888744354,0.03027188591659069
1751013489274539500,2.65553955078125,0.015994945541024208,0.01823679357767105,0.0296737402677536
1751013489284482600,2.665482666015625,0.013291303999722004,0.005382781382650137,0.01702718622982502
1751013489294425600,2.675425537109375,0.0033843449782580137,-0.006027798634022474,-0.015629826113581657
1751013489304369400,2.685369384765625,0.004012051969766617,-0.005760950036346912,-0.04773876070976257
1751013489314312400,2.6953125,0.0012950951931998134,0.0006229133578017354,-0.07162385433912277
1751013489324255500,2.70525537109375,0.009033176116645336,0.0035151063930243254,-0.08565365523099899
1751013489334199600,2.715199462890625,0.008086688816547394,0.01643303595483303,-0.08555032312870026
1751013489344142300,2.725142333984375,0.003919107839465141,0.03977164626121521,-0.08083812147378922
1751013489354085400,2.73508544921875,-0.002103630919009447,0.06057679280638695,-0.06611670553684235
1751013489364029400,2.745029541015625,0.0018964370246976614,0.0679047480225563,-0.0460500493645668
1751013489373972500,2.754972412109375,0.006642722524702549,0.06175177916884422,-0.02303873933851719
1751013489383915500,2.76491552734375,0.008931709453463554,0.04626549780368805,-0.00350418733432889
1751013489393859000,2.774859130859375,0.012164521031081676,0.03762514144182205,0.016943296417593956
1751013489403802000,2.784802001953125,0.00631941482424736,0.04120469465851784,0.02526860497891903
1751013489413745200,2.7947451171875,0.001353684812784195,0.047023169696331024,0.02527073584496975
1751013489423689200,2.804689208984375,-0.0046445527113974094,0.047742489725351334,0.01569960080087185
1751013489433632300,2.81463232421875,-0.006761233322322369,0.04477306455373764,-0.0034290861804038286
1751013489443575000,2.824574951171875,-0.00481393001973629,0.04555150493979454,-0.022640863433480263
1751013489453519000,2.83451904296875,-0.005615541245788336,0.04765806719660759,-0.041918687522411346
1751013489463462100,2.844462158203125,-0.005278651602566242,0.04415813833475113,-0.053282663226127625
1751013489473405200,2.8544052734375,-0.0042144525796175,0.03400590270757675,-0.053645383566617966
1751013489483349000,2.864348876953125,-0.0070368703454732895,0.020193152129650116,-0.0400020107626915
1751013489493292000,2.8742919921875,-0.01013865415006876,0.0036858150269836187,-0.017077520489692688
1751013489503236000,2.884236083984375,-0.01377919502556324,-0.0005976133397780359,0.013555223122239113
1751013489513179100,2.89417919921875,-0.016271647065877914,0.003061836352571845,0.04108618199825287
1751013489523122200,2.9041220703125,-0.014336062595248222,0.010952782817184925,0.055867526680231094
1751013489533066000,2.91406591796875,-0.013104616664350033,0.011694739572703838,0.05311861261725426
1751013489543009000,2.924009033203125,-0.01194081548601389,0.01034504920244217,0.0396675169467926
1751013489552952000,2.9339521484375,-0.016289757564663887,0.01321140956133604,0.0121251055970788
1751013489562896100,2.943896240234375,-0.019818445667624474,0.013185842894017696,-0.019943613559007645
1751013489572839000,2.9538388671875,-0.016204802319407463,0.014508634805679321,-0.044297955930233
1751013489582782000,2.963781982421875,-0.017405088990926743,0.0215953066945076,-0.05961272865533829
1751013489592726000,2.97372607421875,-0.01569667086005211,0.0249658040702343,-0.05615860968828201
1751013489602669000,2.9836689453125,-0.011985023505985737,0.02454768680036068,-0.03922969475388527
1751013489612612000,2.993612060546875,-0.006223274860531092,0.020962007343769073,-0.014256699942052364
1751013489622556000,3.003555908203125,-0.00862970668822527,0.024645159021019936,0.01471582893282175
1751013489632499000,3.0134990234375,-0.007014233618974686,0.030250048264861107,0.04079030826687813
1751013489642442000,3.02344189453125,-0.007977765053510666,0.031558193266391754,0.04910123348236084
1751013489652386300,3.03338623046875,-0.009986854158341885,0.018245050683617592,0.047806937247514725
1751013489662328800,3.043328857421875,-0.012006063014268875,-0.0008234494016505778,0.03810184448957443
1751013489672272000,3.05327197265625,-0.014737401157617569,-0.006166016682982445,0.027213778346776962
1751013489682216200,3.06321630859375,-0.012960007414221764,-0.002002164488658309,0.022907180711627007
1751013489692159200,3.0731591796875,-0.009690177626907825,0.017189372330904007,0.01890258491039276
1751013489702102300,3.083102294921875,-0.008828645572066307,0.03224475681781769,0.013699833303689957
1751013489712046000,3.093046142578125,-0.008508000522851944,0.02774214930832386,0.013590643182396889
1751013489721989000,3.102989013671875,-0.00515827676281333,0.014791196212172508,0.010325341485440731
1751013489731932200,3.11293212890625,-0.009694439359009266,0.0010426276130601764,0.010073140263557434
1751013489741876200,3.122876220703125,-0.012649482116103172,-0.0068022459745407104,0.018449580296874046
1751013489751819000,3.132819091796875,-0.012262258678674698,-0.0048916940577328205,0.01992896758019924
1751013489761763000,3.14276318359375,-0.011168498545885086,0.005247758701443672,0.020184364169836044
1751013489771706000,3.1527060546875,-0.010498713701963425,0.02563931606709957,0.021074658259749413
1751013489781649200,3.162649169921875,-0.003912449814379215,0.044803425669670105,0.01954946666955948
1751013489791593000,3.172593017578125,0.00012303804396651685,0.05505020171403885,0.01465564128011465
1751013489801536000,3.182535888671875,-0.0013004215434193611,0.05783453583717346,0.009590309113264084
1751013489811479000,3.19247900390625,0.0017219999572262168,0.0496346652507782,0.008983108215034008
1751013489821423000,3.202423095703125,-0.00037976677413098514,0.04243720695376396,0.015452992171049118
1751013489831366100,3.2123662109375,-0.005343899130821228,0.029641514644026756,0.022551381960511208
1751013489841309200,3.22230908203125,-0.003984621725976467,0.015982961282134056,0.024144217371940613
1751013489851253000,3.2322529296875,0.0012455604737624526,0.0007534082396887243,0.023035278543829918
1751013489861196000,3.242196044921875,0.0003038666909560561,-0.00845553632825613,0.01883121207356453
1751013489871139000,3.25213916015625,-0.003584614722058177,-0.012059326283633709,0.004839496221393347
1751013489881083100,3.262083251953125,0.0024165522772818804,-0.008611598052084446,-0.008651545271277428
1751013489891026000,3.27202587890625,0.016212524846196175,0.001945439144037664,-0.013639379292726517
1751013489900969000,3.281968994140625,0.029752302914857864,0.007841943763196468,-0.023816915228962898
1751013489910913000,3.2919130859375,0.03220267593860626,0.012289688922464848,-0.0257548987865448
1751013489920856000,3.30185595703125,0.030536603182554245,0.004574245307594538,-0.03156937658786774
1751013489930799000,3.311799072265625,0.020734572783112526,-0.005742041394114494,-0.032644495368003845
1751013489940743000,3.321742919921875,0.011365572921931744,-0.009938384406268597,-0.02996855229139328
1751013489950686000,3.33168603515625,0.00947818998247385,-0.0008053398923948407,-0.018992599099874496
1751013489960629000,3.34162890625,0.011885421350598335,-0.0036450685001909733,-0.014574148692190647
1751013489970573300,3.3515732421875,0.013079049997031689,-0.0009954896522685885,-0.0026551715563982725
1751013489980515800,3.361515869140625,0.017161943018436432,0.005320196971297264,0.015321431681513786
1751013489990459000,3.371458984375,0.017856761813163757,0.016995761543512344,0.025358086451888084
1751013490000403200,3.3814033203125,0.014177071861922741,0.02520575374364853,0.02821352891623974
1751013490010346200,3.39134619140625,0.010291253216564655,0.02341584302484989,0.015304387547075748
1751013490020290000,3.4012900390625,0.0070366039872169495,0.023909859359264374,0.0031260184478014708
1751013490030233000,3.411233154296875,0.005234709475189447,0.024389496073126793,-0.014568822458386421
1751013490040176000,3.421176025390625,0.007253385614603758,0.022613434121012688,-0.024775654077529907
1751013490050120200,3.4311201171875,0.00944862887263298,0.02335246093571186,-0.028258536010980606
1751013490060063200,3.441063232421875,0.0158908162266016,0.022485600784420967,-0.019529759883880615
1751013490070006000,3.451006103515625,0.01792067661881447,0.020855214446783066,-0.00036432043998502195
1751013490079950000,3.4609501953125,0.018823489546775818,0.013817811384797096,0.019358783960342407
1751013490089893000,3.47089306640625,0.013726198114454746,-0.002718554809689522,0.030519826337695122
1751013490099836200,3.480836181640625,0.007793740835040808,-0.011149057187139988,0.029524868354201317
1751013490109780000,3.490780029296875,0.006451507564634085,-0.009939716197550297,0.013866547495126724
1751013490119723000,3.500722900390625,0.00836658664047718,0.00043595946044661105,-0.005293032620102167
1751013490129666000,3.510666015625,0.01145878341048956,0.010308830067515373,-0.03368765488266945
1751013490139610000,3.520610107421875,0.015116102062165737,0.014008759520947933,-0.06294887512922287
1751013490149553200,3.53055322265625,0.01696779765188694,0.01666872575879097,-0.08532741665840149
1751013490159496200,3.54049609375,0.019094599410891533,0.019714849069714546,-0.09153364598751068
1751013490169440000,3.55043994140625,0.025195367634296417,0.031205322593450546,-0.08469384908676147
1751013490179383000,3.560383056640625,0.03164128214120865,0.04198340326547623,-0.06024842709302902
1751013490189326000,3.570326171875,0.03971438854932785,0.051053065806627274,-0.03092276304960251
1751013490199270000,3.580269775390625,0.03826243430376053,0.044003676623106,0.0012261193478479981
1751013490209213000,3.590212890625,0.032812539488077164,0.03704856336116791,0.029443109408020973
1751013490219157000,3.600156982421875,0.02749713882803917,0.02401372417807579,0.05230261757969856
1751013490229100000,3.61010009765625,0.01745196059346199,0.0041223070584237576,0.056956760585308075
1751013490239043000,3.62004296875,0.015166702680289745,-0.0036967338528484106,0.05862469598650932
1751013490248987000,3.62998681640625,0.01258130557835102,-0.0099034970626235,0.05112709850072861
1751013490258930000,3.639929931640625,0.016895093023777008,-0.0084837656468153,0.03773565962910652
1751013490268873000,3.649873046875,0.021873872727155685,0.007869374938309193,0.02725772000849247
1751013490278817300,3.6598173828125,0.02695971168577671,0.029205288738012314,0.017959825694561005
1751013490288760000,3.669760009765625,0.029136845842003822,0.050328150391578674,0.00920361839234829
1751013490298702800,3.679702880859375,0.024729048833251,0.06358855962753296,0.0024767396971583366
1751013490308647200,3.689647216796875,0.0215364508330822,0.06495343148708344,0.006976416800171137
1751013490318590200,3.699590087890625,0.012826582416892052,0.05718446150422096,0.008892294950783253
1751013490328533200,3.709533203125,0.008889631368219852,0.0427304208278656,0.014311028644442558
1751013490338477000,3.71947705078125,0.003754790872335434,0.03567330911755562,0.018965966999530792
1751013490348420000,3.729420166015625,0.0017957695527002215,0.029566681012511253,0.025374332442879677
1751013490358363100,3.739363037109375,-0.0028658276423811913,0.028000475838780403,0.02876506932079792
1751013490368307200,3.74930712890625,-0.004595017991960049,0.02640550769865513,0.031379226595163345
1751013490378250200,3.759250244140625,-0.007513842545449734,0.01483274158090353,0.02761405147612095
1751013490388193000,3.769193115234375,-0.005360943265259266,0.02063310705125332,0.024453943595290184
1751013490398141400,3.779141357421875,0.007648598402738571,0.034458376467227936,0.020137492567300797
1751013490408084500,3.78908447265625,0.010545851662755013,0.04825807735323906,0.007258711848407984
1751013490418027500,3.799027587890625,0.01212936732918024,0.05452795699238777,-0.006849117577075958
1751013490427971300,3.808971435546875,0.008794024586677551,0.048461541533470154,-0.02395273745059967
1751013490437914400,3.818914306640625,0.005706355441361666,0.029954170808196068,-0.036864541471004486
1751013490447858400,3.8288583984375,0.0022714100778102875,0.01543781254440546,-0.04422764852643013
1751013490457801200,3.83880126953125,-0.007066697813570499,0.013954431749880314,-0.046069756150245667
1751013490467744300,3.848744140625,-0.00936127733439207,0.013064136728644371,-0.0398763082921505
1751013490477688300,3.858688232421875,-0.008220379240810871,0.023696541786193848,-0.02642681449651718
1751013490487631400,3.86863134765625,0.0013550163712352514,0.03326474502682686,-0.01690627820789814
1751013490497574400,3.878574462890625,0.004193147178739309,0.03822168707847595,-0.0037521275226026773
1751013490507518200,3.888518310546875,0.003352120751515031,0.03646266832947731,0.006322610657662153
1751013490517461200,3.898461181640625,-0.0002897519152611494,0.026380473747849464,0.011413509026169777
1751013490527404300,3.908404296875,-0.0005957491230219603,0.020258134230971336,0.013906494714319706
1751013490537348600,3.9183486328125,0.0018397116800770164,0.01781974360346794,0.011607919819653034
1751013490547291400,3.92829150390625,0.007136738859117031,0.021892515942454338,0.002900981344282627
1751013490557234200,3.938234130859375,0.015096660703420639,0.03147696703672409,-0.01110138650983572
1751013490567178500,3.948178466796875,0.018763568252325058,0.04103904590010643,-0.032401613891124725
1751013490577121500,3.95812158203125,0.013778130523860455,0.043893687427043915,-0.057623881846666336
1751013490587064600,3.968064697265625,0.008212922140955925,0.03259789198637009,-0.08207356184720993
1751013490597008400,3.97800830078125,0.0023331954143941402,0.014852182939648628,-0.09671216458082199
1751013490606951400,3.987951416015625,-0.004957474302500486,0.0004037352045997977,-0.09660670161247253
1751013490616894500,3.99789453125,-0.00518837058916688,-0.012132562696933746,-0.08008071780204773
1751013490626838500,4.007838623046875,-0.0032631712965667248,-0.01678377389907837,-0.05317240580916405
1751013490636781600,4.017781494140625,-0.00041571943438611925,-0.008155398070812225,-0.027575967833399773
1751013490646725400,4.027725341796875,0.0009414274245500565,-0.00021544973424170166,-0.00503870053216815
1751013490656668400,4.03766845703125,0.004489024169743061,0.014193849638104439,0.0038373488932847977
1751013490666611500,4.047611572265625,0.0003374225052539259,0.02123657986521721,-0.0002719087351579219
1751013490676555500,4.057555419921875,-0.0008189220097847283,0.016937172040343285,-0.014024206437170506
1751013490686498300,4.067498291015625,-0.00012889699428342283,0.022175077348947525,-0.02533598244190216
1751013490696441300,4.07744140625,0.009722668677568436,0.020674917846918106,-0.02551654540002346
1751013490706385400,4.087385498046875,0.010526143945753574,0.015284148044884205,-0.020234165713191032
1751013490716328400,4.097328369140625,0.010163155384361744,0.01088620349764824,-0.0035289546940475702
1751013490726271500,4.107271484375,0.009616142138838768,0.007051251363009214,0.015149923972785473
1751013490736215300,4.11721533203125,0.010542921721935272,0.005086637567728758,0.029736855998635292
1751013490746158300,4.127158447265625,0.012521384283900261,0.0041494714096188545,0.03989974409341812
1751013490756101400,4.137101318359375,0.012622051872313023,0.0078073227778077126,0.038785211741924286
1751013490766045400,4.14704541015625,0.016089754179120064,0.009827330708503723,0.02623426727950573
1751013490775988200,4.15698828125,0.022911973297595978,0.013114736415445805,0.01720881462097168
1751013490785931300,4.16693115234375,0.025899773463606834,0.014594655483961105,-0.000434361572843045
1751013490795875300,4.176875244140625,0.030843133106827736,0.013395700603723526,-0.015894543379545212
1751013490805818400,4.186818359375,0.02491546981036663,0.007306382525712252,-0.03415477275848389
1751013490815762400,4.196762451171875,0.021072793751955032,0.0007286408799700439,-0.04454962536692619
1751013490825705200,4.206705322265625,0.014052169397473335,-0.0049438923597335815,-0.05668937787413597
1751013490835648300,4.216648193359375,0.006913033314049244,-0.00315957423299551,-0.06553400307893753
1751013490845592600,4.226592529296875,0.004091148264706135,-0.001770203118212521,-0.06921236217021942
1751013490855535600,4.23653564453125,0.0010426276130601764,0.0002639192680362612,-0.061944860965013504
1751013490865478400,4.246478515625,-0.003412840887904167,-0.005170261021703482,-0.051120974123477936
1751013490875422500,4.25642236328125,-0.001740642124786973,-0.004197674337774515,-0.03025803714990616
1751013490885365500,4.266365478515625,0.001722798915579915,-0.0036301547661423683,-0.01581624709069729
1751013490895308500,4.27630859375,0.0005512743373401463,0.0005347627447918057,-0.011174890212714672
1751013490905252400,4.28625244140625,-0.00015819176041986793,0.005958556663244963,-0.018201639875769615
1751013490915195400,4.2961953125,0.00196381495334208,0.01404764223843813,-0.023542344570159912
1751013490925138400,4.306138427734375,0.006653109099715948,0.021998776122927666,-0.02919197455048561
1751013490935082500,4.31608251953125,0.00818149745464325,0.02533678151667118,-0.027755199000239372
1751013490945025500,4.326025634765625,0.01119060255587101,0.018087923526763916,-0.02418922632932663
1751013490954968600,4.335968505859375,0.014485731720924377,0.010965566150844097,-0.023308783769607544
1751013490964912400,4.345912353515625,0.02082991413772106,0.008532235398888588,-0.021750036627054214
1751013490974855400,4.35585546875,0.020680511370301247,0.008299741894006729,-0.023632625117897987
1751013490984799500,4.365799560546875,0.015663914382457733,0.0056994310580194,-0.03215101361274719
1751013490994742300,4.3757421875,0.0135656101629138,0.0036935380194336176,-0.03856310620903969
1751013491004685300,4.385685302734375,0.012660667300224304,-0.0010745854815468192,-0.04195250943303108
1751013491014629400,4.39562939453125,0.005066397599875927,-0.006025934591889381,-0.04423750191926956
1751013491024572400,4.405572509765625,0.0020458402577787638,-0.005313538946211338,-0.03711727634072304
1751013491034515500,4.415515380859375,-0.001279116258956492,-0.002320412313565612,-0.02754986844956875
1751013491044459300,4.425459228515625,-0.005604356061667204,-0.0003158508916385472,-0.015181083232164383
1751013491054402300,4.43540234375,-0.007358580362051725,-0.0008149272762238979,-0.006115949247032404
1751013491064345300,4.445345458984375,-0.006626477465033531,-0.012458800338208675,0.0022242721170186996
1751013491074289400,4.455289306640625,-0.0037622477393597364,-0.011290471069514751,0.004256530199199915
1751013491084232400,4.465232421875,-0.005849633365869522,-0.0018261295044794679,0.004349474795162678
1751013491094175200,4.47517529296875,-0.017303889617323875,0.00905501376837492,-0.0008008125587366521
1751013491104119300,4.485119384765625,-0.02148345485329628,0.021327393129467964,-0.0017158746486529708
1751013491114062300,4.495062255859375,-0.02124936133623123,0.026694461703300476,0.0036104475148022175
1751013491124005400,4.50500537109375,-0.021756960079073906,0.02514849603176117,0.015476960688829422
1751013491133949400,4.514949462890625,-0.021093035116791725,0.014784272760152817,0.023380689322948456
1751013491143892200,4.524892333984375,-0.024836374446749687,0.012868394143879414,0.026943733915686607
1751013491153836500,4.53483642578125,-0.029640715569257736,0.016083894297480583,0.02629418857395649
1751013491163779600,4.544779541015625,-0.03946991264820099,0.00424161646515131,0.006975085008889437
1751013491173722600,4.55472265625,-0.04489050805568695,-0.002225603675469756,-0.01392566878348589
1751013491183666400,4.56466650390625,-0.0425887405872345,-0.00041278995922766626,-0.025969548150897026
1751013491193609500,4.574609375,-0.03169507905840874,0.006006759591400623,-0.023154588416218758
1751013491203552500,4.584552490234375,-0.02329467050731182,0.009183644317090511,-0.014772022143006325
1751013491213496300,4.594496337890625,-0.023310115560889244,0.011152786202728748,-0.00024154871061909944
1751013491223439400,4.604439453125,-0.02106746844947338,0.007880293764173985,0.011365306563675404
1751013491233382400,4.61438232421875,-0.023430490866303444,-0.0011014834744855762,0.024297349154949188
1751013491243326500,4.624326416015625,-0.02352556586265564,-0.004942027851939201,0.03455771133303642
1751013491253269500,4.63426953125,-0.02076892741024494,-0.0037028591614216566,0.03923448920249939
1751013491263212500,4.644212646484375,-0.014433267526328564,-0.005366802215576172,0.03013633005321026
1751013491273156400,4.65415625,-0.0038631814531981945,0.005465338937938213,0.01889113336801529
1751013491283099400,4.664099365234375,0.00612340634688735,0.024900289252400398,0.01002227421849966
1751013491293042400,4.67404248046875,0.01744556985795498,0.03503361716866493,-0.0010468886466696858
1751013491302986500,4.683986572265625,0.015508119948208332,0.04809722304344177,-0.010378338396549225
1751013491312929300,4.69392919921875,0.01501090731471777,0.05005145072937012,-0.01739177294075489
1751013491322873300,4.703873291015625,0.014389858581125736,0.04939897358417511,-0.018609104678034782
1751013491332816400,4.71381640625,0.015483618713915348,0.04268195107579231,-0.019039204344153404
1751013491342759400,4.723759521484375,0.0103770075365901,0.04134957119822502,-0.02002670429646969
1751013491352703200,4.733703125,0.010637996718287468,0.042032670229673386,-0.015161375515162945
1751013491362646300,4.743646240234375,0.010261692106723785,0.04213839769363403,-0.012521117925643921
1751013491372589300,4.75358935546875,0.01932123303413391,0.05937277898192406,-0.004513259045779705
1751013491382533400,4.763533447265625,0.023449400439858437,0.06973860412836075,0.004566255956888199
1751013491392476400,4.773476318359375,0.026632143184542656,0.07378341257572174,0.018263692036271095
1751013491402419000,4.7834189453125,0.028908347710967064,0.05927770584821701,0.031678568571805954
1751013491412362800,4.79336279296875,0.035954270511865616,0.02690511755645275,0.04688601568341255
1751013491422305800,4.803305908203125,0.03766481950879097,0.02323181927204132,0.06173420324921608
1751013491432248800,4.813248779296875,0.028989840298891068,0.02153751626610756,0.06695559620857239
1751013491442193000,4.82319287109375,0.023395869880914688,0.01565619185566902,0.06916122883558273
1751013491452135700,4.8331357421875,0.021855231374502182,0.021455490961670876,0.05951179563999176
1751013491462080000,4.843080078125,0.01757499948143959,0.02406139485538006,0.04420500993728638
1751013491472023000,4.85302294921875,0.011833223514258862,0.026464097201824188,0.027572771534323692
1751013491481966000,4.862966064453125,0.0016948357224464417,0.02580762840807438,0.013249225914478302
1751013491491910000,4.872909912109375,0.005377454683184624,0.031626101583242416,0.0012511530658230186
1751013491501853000,4.88285302734375,0.005579056218266487,0.03611432760953903,-0.0014053500490263104
1751013491511796000,4.8927958984375,0.015660451725125313,0.03309989720582962,-0.005078115500509739
1751013491521740000,4.902739990234375,0.01889858953654766,0.023866983130574226,0.0010016148444265127
1751013491531683000,4.91268310546875,0.017847971990704536,0.017888719215989113,0.013621536083519459
1751013491541625900,4.9226259765625,0.01847994141280651,0.011068630032241344,0.020505808293819427
1751013491551570000,4.93256982421875,0.015005314722657204,0.001362473238259554,0.02544756978750229
1751013491561513000,4.942512939453125,0.013197294436395168,-0.01332912128418684,0.026568492874503136
1751013491571456000,4.9524560546875,0.0062464443035423756,-0.02359507419168949,0.023838752880692482
1751013491581399800,4.96239990234375,-0.0012120045721530914,-0.02533065713942051,0.017549965530633926
1751013491591342800,4.9723427734375,0.000015712650565546937,-0.025673139840364456,0.004825115203857422
1751013491601287000,4.982286865234375,0.004139351192861795,-0.012959741055965424,0.0036221654154360294
1751013491611230000,4.99222998046875,0.009329319931566715,-0.001859685406088829,0.002175003755837679
1751013491621173000,5.002173095703125,0.01594594307243824,0.006088785361498594,0.005048021674156189
1751013491631116800,5.01211669921875,0.016811205074191093,0.007217166479676962,0.005576659459620714
1751013491641059800,5.022059814453125,0.026021746918559074,0.0031353395897895098,0.0034357442054897547
1751013491651003000,5.0320029296875,0.023624369874596596,-0.008729043416678905,0.002788063371554017
1751013491660947000,5.041947021484375,0.015274560078978539,-0.016504408791661263,0.0065497783944010735
1751013491670889700,5.0518896484375,0.012105132453143597,-0.014567224308848381,0.013043363578617573
1751013491680832800,5.061832763671875,0.003870638320222497,-0.005066930316388607,0.019094865769147873
1751013491690776800,5.07177685546875,0.006360427476465702,-0.0029646309558302164,0.023873373866081238
1751013491700719900,5.081719970703125,0.012618856504559517,-0.00603472301736474,0.021640846505761147
1751013491710663000,5.091662841796875,0.019334016367793083,-0.008169779554009438,0.017195232212543488
1751013491720606700,5.101606689453125,0.021251492202281952,-0.017196031287312508,0.014424745924770832
1751013491730549800,5.1115498046875,0.0166785791516304,-0.015471101738512516,0.009953032247722149
1751013491740494000,5.121494140625,0.00863050576299429,-0.012223909609019756,-0.0005837649223394692
1751013491750437000,5.13143701171875,0.002915628720074892,-0.012381834909319878,-0.015856994315981865
1751013491760380000,5.1413798828125,-0.001401355373673141,-0.011294466443359852,-0.029349099844694138
1751013491770324000,5.151323974609375,0.007012103218585253,-0.0009784454014152288,-0.03490418940782547
1751013491780267000,5.16126708984375,0.006313023157417774,0.0030242856591939926,-0.036563336849212646
1751013491790210000,5.1712099609375,0.005358280148357153,0.005917810369282961,-0.035882368683815
1751013491800153900,5.18115380859375,-0.002823749789968133,0.0010673949727788568,-0.03062102571129799
1751013491810097000,5.191096923828125,-0.008961536921560764,-0.009197759442031384,-0.016745690256357193
1751013491820040000,5.2010400390625,-0.014278005808591843,-0.016715863719582558,-0.0005805690889246762
1751013491829984000,5.21098388671875,-0.013462545350193977,-0.01762267015874386,0.011907259002327919
1751013491839927000,5.220927001953125,-0.005372927524149418,-0.012570386752486229,0.012593822553753853
1751013491849870000,5.2308701171875,0.009490706957876682,-0.00833809096366167,-0.0015140071045607328
1751013491859814000,5.24081396484375,0.022941801697015762,-0.00023329291434492916,-0.020062124356627464
1751013491869757000,5.2507568359375,0.02996748685836792,0.0139554962515831,-0.04619572311639786
1751013491879701000,5.260700927734375,0.026498451828956604,0.026705380529165268,-0.06739821285009384
1751013491889644000,5.27064404296875,0.022647522389888763,0.029637521132826805,-0.08129565417766571
1751013491899586800,5.2805869140625,0.020916201174259186,0.03464879095554352,-0.07176792621612549
1751013491909531000,5.29053076171875,0.021207816898822784,0.04024595767259598,-0.04356452077627182
1751013491919474000,5.300473876953125,0.016055399551987648,0.037754833698272705,-0.009600961580872536
1751013491929417000,5.3104169921875,0.006444583646953106,0.04520236700773239,0.024357803165912628
1751013491939360800,5.32036083984375,0.0006269080913625658,0.0364869050681591,0.05399559065699577
1751013491949303800,5.3303037109375,-0.004809136036783457,0.02088717184960842,0.06749968230724335
1751013491959246800,5.340246826171875,-0.0017025588313117623,0.013585050590336323,0.06366073340177536
1751013491969191000,5.35019091796875,0.005630454979836941,0.014958176761865616,0.04248993471264839
1751013491979134000,5.360134033203125,0.008872320875525475,0.02455807290971279,0.00785286258906126
1751013491989076700,5.37007666015625,0.003793140407651663,0.029255889356136322,-0.02677994966506958
1751013491999020800,5.380020751953125,-0.00025486451340839267,0.027530428022146225,-0.05558869242668152
1751013492008963800,5.3899638671875,-0.00911280419677496,0.028119519352912903,-0.06155896931886673
1751013492018908000,5.399907958984375,-0.009923471137881279,0.03497156500816345,-0.0587964728474617
1751013492028850700,5.4098505859375,-0.00806085579097271,0.037220072001218796,-0.04340206831693649
1751013492038793700,5.419793701171875,-0.005221127066761255,0.02893524430692196,-0.02430001273751259
1751013492048738000,5.429738037109375,-0.00566880451515317,0.013876134529709816,-0.007369232829660177
1751013492058681000,5.43968115234375,-0.010823353193700314,-0.0006117281154729426,0.00791384931653738
1751013492068624100,5.4496240234375,-0.010577010922133923,-0.013517939485609531,0.022115688771009445
1751013492078568000,5.45956787109375,-0.007608384825289249,-0.011139736510813236,0.024111993610858917
1751013492088511000,5.469510986328125,-0.0005573995877057314,-0.0030242856591939926,0.02203020080924034
1751013492098454000,5.4794541015625,0.004729241598397493,0.008112520910799503,0.005283977836370468
1751013492108398000,5.489398193359375,0.004118045791983604,0.012313391081988811,-0.01721041277050972
1751013492118340900,5.4993408203125,0.007652060594409704,0.008253668434917927,-0.0360429547727108
1751013492128284000,5.509283935546875,0.005631786771118641,0.0076363482512533665,-0.04306944087147713
1751013492138228000,5.51922802734375,0.005627525504678488,0.004687163513153791,-0.04267182946205139
1751013492148171000,5.5291708984375,0.0029981867410242558,0.01309023518115282,-0.030059898272156715
1751013492158114800,5.53911474609375,0.000005858954409632133,0.026459837332367897,-0.01404790859669447
1751013492168057900,5.549057861328125,-0.001469532260671258,0.026309633627533913,-0.002004561247304082
1751013492178001000,5.5590009765625,-0.00794447585940361,0.022482406347990036,0.0019462381023913622
1751013492187945000,5.568945068359375,-0.00965688843280077,0.017480723559856415,0.00004873584839515388
1751013492197888000,5.578887939453125,-0.010891796089708805,0.011630024760961533,-0.008586031384766102
1751013492207830800,5.588830810546875,-0.005745503585785627,0.012012721039354801,-0.013606889173388481
1751013492217774800,5.59877490234375,0.003373958868905902,0.017310280352830887,-0.01315148826688528
1751013492227718000,5.6087177734375,0.007791876792907715,0.025422802194952965,-0.006892526987940073
1751013492237661000,5.618660888671875,0.004030694253742695,0.028382638469338417,-0.0030780816450715065
1751013492247604700,5.628604736328125,0.0018018947448581457,0.02618393301963806,-0.0035143073182553053
1751013492257547800,5.6385478515625,-0.0063063655979931355,0.009050486609339714,-0.002770752878859639
1751013492267491800,5.648491943359375,-0.009192433208227158,-0.0067721521481871605,-0.005005411338061094
1751013492277435000,5.658434814453125,-0.01255121175199747,-0.008070975542068481,-0.009677927009761333
1751013492287378000,5.6683779296875,-0.013469203375279903,0.00649598240852356,-0.012650281190872192
1751013492297321700,5.67832177734375,-0.008162588812410831,0.017666611820459366,-0.017582722008228302
1751013492307264800,5.6882646484375,-0.00279099284671247,0.02780766226351261,-0.020744692534208298
1751013492317207800,5.698207763671875,-0.0003278351214248687,0.029882797971367836,-0.03424132615327835
1751013492327152000,5.708152099609375,0.0062246061861515045,0.02177560329437256,-0.04560210555791855
1751013492337095000,5.718094970703125,0.004290352575480938,0.010398046113550663,-0.06306418776512146
1751013492347037700,5.72803759765625,0.003608849598094821,0.007224090863019228,-0.06487832963466644
1751013492356982000,5.73798193359375,0.0035297537688165903,0.010762100107967854,-0.056774333119392395
1751013492366925000,5.747925048828125,-0.0008266451768577099,0.016866331920027733,-0.038424089550971985
1751013492376868000,5.7578681640625,-0.0029872676823288202,0.0211846474558115,-0.015894277021288872
1751013492386812000,5.76781201171875,-0.008590292185544968,0.026101108640432358,0.005268265027552843
1751013492396751600,5.777751708984375,-0.008008657954633236,0.020248811691999435,0.018199244514107704
1751013492406695700,5.78769580078125,-0.008794024586677551,0.018397916108369827,0.02568751946091652
1751013492416638700,5.797638671875,-0.007897337898612022,0.018758241087198257,0.018336396664381027
1751013492426581500,5.80758154296875,-0.004256263840943575,0.022596655413508415,-0.0014421016676351428
1751013492436525600,5.817525634765625,-0.0013683321885764599,0.025078987702727318,-0.027833228930830956
1751013492446468600,5.827468505859375,0.005341236013919115,0.02804681472480297,-0.05156918615102768
1751013492456411600,5.83741162109375,0.005102084018290043,0.024944497272372246,-0.06453265249729156
1751013492466355500,5.84735546875,0.0037286917213350534,0.03092622384428978,-0.06543280184268951
1751013492476298500,5.857298583984375,0.0033878071699291468,0.03136245161294937,-0.054717838764190674
1751013492486241500,5.867241455078125,0.004886367823928595,0.02124190516769886,-0.036498088389635086
1751013492496185600,5.877185546875,0.0030807447619736195,0.017422134056687355,-0.016163790598511696
1751013492506128600,5.887128662109375,0.0007198524544946849,0.012172776274383068,0.003912183456122875
1751013492516072400,5.897072509765625,-0.00004500742215896025,0.005668005906045437,0.016213057562708855
1751013492526015500,5.907015380859375,0.0021086910273879766,-0.0009544769418425858,0.015064436942338943
1751013492535958500,5.91695849609375,0.0049255164340138435,0.0024282701779156923,0.0029462550301104784
1751013492545902600,5.926902587890625,0.004962534178048372,0.008318116888403893,-0.013630324974656105
1751013492555845400,5.936845458984375,0.006608101539313793,0.02161261811852455,-0.03297632560133934
1751013492565788400,5.946788330078125,0.0037950044497847557,0.022826751694083214,-0.050689008086919785
1751013492575732500,5.956732421875,0.0005898901727050543,0.021749503910541534,-0.05711149051785469
1751013492585675500,5.966675537109375,-0.004287423100322485,0.023672839626669884,-0.055878445506095886
1751013492595618600,5.97661865234375,-0.007269897032529116,0.024275245144963264,-0.040720000863075256
1751013492605562400,5.986562255859375,-0.006198773626238108,0.020257335156202316,-0.024820927530527115
1751013492615505400,5.99650537109375,-0.003733219113200903,0.027520308271050453,0.0007427555974572897
1751013492625448400,6.006448486328125,-0.0035079156514257193,0.03428047522902489,0.014239389449357986
1751013492635392500,6.016392578125,-0.0004932174342684448,0.03177470713853836,0.01582503505051136
1751013492645335600,6.02633544921875,-0.0008665926288813353,0.02948731742799282,0.00700730923563242
1751013492655279600,6.036279541015625,0.0012088088551536202,0.02261822670698166,-0.011444401927292347
1751013492665222700,6.04622265625,-0.0015725966077297926,0.013293701224029064,-0.02738448604941368
1751013492675165400,6.05616552734375,0.001787779969163239,0.007426224648952484,-0.03755030408501625
1751013492685109500,6.066109619140625,0.0002412823960185051,0.010268083773553371,-0.03948961943387985
1751013492695052500,6.076052490234375,0.004324174486100674,0.01575339585542679,-0.025116538628935814
1751013492704995600,6.08599560546875,0.00785605888813734,0.017111875116825104,-0.011889416724443436
1751013492714939600,6.095939697265625,0.009105081669986248,0.02225976623594761,0.002246909076347947
1751013492724882700,6.105882568359375,0.008948220871388912,0.019342271611094475,0.002654106356203556
1751013492734825700,6.11582568359375,0.004255997482687235,0.011324560269713402,0.0021521004382520914
1751013492744769500,6.12576953125,-0.0012868394842371345,0.004600610584020615,-0.008859803900122643
1751013492754712600,6.135712646484375,-0.005660282447934151,-0.0026581010315567255,-0.027030551806092262
1751013492764656600,6.14565673828125,-0.004316717851907015,-0.0025212145410478115,-0.039622511714696884
1751013492774599700,6.155599609375,-0.002436259761452675,0.003596865339204669,-0.047923315316438675
1751013492784542500,6.16554248046875,0.002897519152611494,0.012379171326756477,-0.042458511888980865
1751013492794486500,6.175486572265625,0.007075219880789518,0.023964721709489822,-0.03478487953543663
1751013492804429600,6.1854296875,0.004216050263494253,0.02684120088815689,-0.024110395461320877
1751013492814372600,6.19537255859375,0.004543352872133255,0.025295237079262733,-0.011121094226837158
1751013492824316400,6.20531640625,0.00166633992921561,0.019123893231153488,0.0008141283178701997
1751013492834259500,6.215259521484375,0.004165716469287872,0.014288125559687614,0.00968804769217968
1751013492844202500,6.225202392578125,0.0034967304673045874,0.0021459751296788454,0.016347015276551247
1751013492854146600,6.235146484375,0.0019257317762821913,0.0004394215648062527,0.015912121161818504
1751013492864089600,6.245089599609375,0.002160090021789074,0.005046956706792116,0.008526909165084362
1751013492874033400,6.255033447265625,-0.0043308325111866,0.01768365502357483,0.008330900222063065
1751013492883976400,6.2649765625,-0.004059456288814545,0.03099599853157997,-0.0046940878964960575
1751013492893919500,6.27491943359375,-0.0007384945638477802,0.03229668736457825,-0.018383001908659935
1751013492903863600,6.284863525390625,0.004334827419370413,0.025008946657180786,-0.03500458970665932
1751013492913806300,6.294806396484375,0.0075671058148145676,0.023187611252069473,-0.04547800123691559
1751013492923749400,6.304749267578125,0.0013451626291498542,0.017475396394729614,-0.0514000728726387
1751013492933693700,6.314693603515625,-0.001814677962101996,0.017780594527721405,-0.047809068113565445
1751013492943636500,6.324636474609375,-0.010147974826395512,0.015247396193444729,-0.038966309279203415
1751013492953579500,6.33457958984375,-0.008086955174803734,0.01836329512298107,-0.025559954345226288
1751013492963523600,6.344523681640625,-0.0070704263634979725,0.03380723297595978,-0.006205165293067694
1751013492973466600,6.354466552734375,-0.0008378304773941636,0.04754488170146942,0.008760734461247921
1751013492983410700,6.36441064453125,0.00908697210252285,0.048891108483076096,0.02231515944004059
1751013492993353700,6.374353759765625,0.012633237056434155,0.03575799614191055,0.019055450335144997
1751013493003296500,6.384296630859375,0.012088354676961899,0.023608922958374023,0.0054453653283417225
1751013493013240600,6.394240478515625,0.010207363404333591,0.008325840346515179,-0.005218197591602802
1751013493023183600,6.40418359375,0.01073679979890585,0.00013369068619795144,-0.030430609360337257
1751013493033126700,6.414126708984375,0.007762049324810505,0.011740013025701046,-0.04633420705795288
1751013493043070500,6.424070556640625,0.006475209724158049,0.028175977990031242,-0.059292349964380264
1751013493053013500,6.434013427734375,0.005358812864869833,0.03851649910211563,-0.06210944429039955
1751013493062956500,6.44395654296875,0.001722798915579915,0.042994070798158646,-0.05507497116923332
1751013493072900600,6.453900634765625,0.005906891077756882,0.04346119239926338,-0.037285320460796356
1751013493082843600,6.46384375,0.0111634386703372,0.047511059790849686,-0.018755577504634857
1751013493092787500,6.473787353515625,0.015234612859785557,0.04326917603611946,0.005465871654450893
1751013493102730500,6.48373046875,0.013879862613976002,0.036980122327804565,0.021156683564186096
1751013493112673500,6.493673583984375,0.0117914117872715,0.024175910279154778,0.028497155755758286
1751013493122617600,6.50361767578125,0.006846987176686525,0.01552090235054493,0.027873709797859192
1751013493132560400,6.513560302734375,0.006180131807923317,0.014013287611305714,0.02327735908329487
1751013493142503400,6.52350341796875,0.005646434146910906,0.009383381344377995,0.012602610513567924
1751013493152447500,6.533447509765625,0.0004138552176300436,0.00552339619025588,0.001600826159119606
1751013493162390500,6.543390625,0.00007936220208648592,0.0003486077766865492,-0.01070857048034668
1751013493172333600,6.55333349609375,0.003463707398623228,0.002680205274373293,-0.01636406034231186
1751013493182277400,6.56327734375,0.011655856855213642,0.012575979344546795,-0.01110431645065546
1751013493192220400,6.573220458984375,0.01715315505862236,0.029461219906806946,-0.002082858234643936
1751013493202164700,6.583164794921875,0.02490055561065674,0.052085038274526596,0.0054397727362811565
1751013493212107500,6.593107421875,0.02714480273425579,0.05121924355626106,0.012411129660904408
1751013493222050300,6.60305029296875,0.02430826984345913,0.03518674895167351,0.012454538606107235
1751013493231994600,6.61299462890625,0.01726234331727028,0.01278610248118639,0.009848369285464287
1751013493241937700,6.622937744140625,0.006354035809636116,-0.0027571707032620907,-0.0031499869655817747
1751013493251880700,6.632880615234375,-0.003867176128551364,-0.006502906791865826,-0.000023968450477696024
1751013493261824500,6.642824462890625,-0.007207845337688923,0.00009108010999625549,0.004027498420327902
1751013493271767600,6.652767578125,-0.007025951519608498,0.008742891252040863,0.018605109304189682
1751013493281710600,6.662710693359375,0.0003222425002604723,0.02528192102909088,0.029630595818161964
1751013493291654700,6.672654541015625,0.006142847239971161,0.0379503108561039,0.03850185126066208
1751013493301597700,6.68259765625,0.012003133073449135,0.04535709694027901,0.038181208074092865
1751013493311540500,6.69254052734375,0.015298528596758842,0.044552288949489594,0.036555346101522446
1751013493321484500,6.702484619140625,0.008085357025265694,0.0362943597137928,0.0206938274204731
1751013493331427600,6.712427490234375,0.00003009372085216455,0.017245300114154816,0.0019518306944519281
1751013493341371600,6.72237158203125,-0.00894103106111288,-0.0006351639167405665,-0.016534501686692238
1751013493351314400,6.732314453125,-0.009779127314686775,-0.006343916058540344,-0.024034762755036354
1751013493361257500,6.742257568359375,-0.0064981128089129925,0.005681055132299662,-0.02424009144306183
1751013493371201500,6.752201416015625,-0.004870389122515917,0.01483220886439085,-0.017602961510419846
1751013493381144600,6.76214453125,0.005254949443042278,0.023201992735266685,-0.010068080388009548
1751013493391087600,6.772087646484375,0.014342720620334148,0.027570107951760292,-0.00509835546836257
1751013493401031400,6.782031494140625,0.020616061985492706,0.018159030005335808,-0.0018642127979546785
1751013493410974500,6.791974365234375,0.021133514121174812,0.0017515610670670867,0.0011054781498387456
1751013493420917500,6.80191748046875,0.018860239535570145,-0.008713596500456333,-0.0005281048361212015
1751013493430861600,6.811861572265625,0.014094247482717037,-0.014910772442817688,0.0013944311067461967
1751013493440804600,6.8218046875,0.004857073072344065,-0.006446714047342539,-0.0034557178150862455
1751013493450748400,6.83174853515625,-0.0016080166678875685,0.013758689165115356,-0.01853932999074459
1751013493460691500,6.84169140625,0.004195543937385082,0.03441762924194336,-0.03469592705368996
1751013493470634500,6.851634521484375,0.005970807280391455,0.048407211899757385,-0.05432156100869179
1751013493480578300,6.861578369140625,0.004043477587401867,0.05814852565526962,-0.06646637618541718
1751013493490521300,6.871521240234375,0.002365419641137123,0.0574161559343338,-0.07313226908445358
1751013493500464400,6.88146435546875,-0.0028839372098445892,0.0444771870970726,-0.0636247843503952
1751013493510408400,6.891408447265625,0.001074052881449461,0.028957614675164223,-0.0457371287047863
1751013493520351500,6.9013515625,0.0007555388147011399,0.019085809588432312,-0.0121277691796422
1751013493530294500,6.91129443359375,0.00523683987557888,0.014105432666838169,0.019710320979356766
1751013493540238300,6.92123828125,0.008168980479240417,0.017916949465870857,0.04313548654317856
1751013493550181400,6.931181396484375,0.00714552728459239,0.01836436055600643,0.0495651550590992
1751013493560125400,6.94112548828125,0.00549356872215867,0.01731986738741398,0.043959468603134155
1751013493570068500,6.951068359375,0.001546763931401074,0.018010959029197693,0.02877012826502323
1751013493580011300,6.96101123046875,-0.0028423918411135674,0.020482106134295464,0.004319913685321808
1751013493589955300,6.970955322265625,-0.00509968725964427,0.02075241692364216,-0.026268621906638145
1751013493599898400,6.9808984375,0.0014439659425988793,0.023204654455184937,-0.04656164348125458
1751013493609841400,6.99084130859375,0.008272577077150345,0.019724436104297638,-0.057966362684965134
1751013493619785200,7.00078515625,0.016647685319185257,0.013026053085923195,-0.04828257858753204
1751013493629728300,7.010728271484375,0.023007314652204514,0.008274441584944725,-0.021107681095600128
1751013493639671300,7.02067138671875,0.024519724771380424,0.010894726030528545,0.018624285236001015
1751013493649615400,7.030615478515625,0.02027331292629242,0.012880911119282246,0.05861750617623329
1751013493659558400,7.040558349609375,0.01468493603169918,0.01341727189719677,0.07708599418401718
1751013493669502500,7.05050244140625,0.006905310321599245,0.015985891222953796,0.07541219890117645
1751013493679445500,7.060445556640625,0.004159324802458286,0.015556056052446365,0.04469316825270653
1751013493689388500,7.070388427734375,0.0025334651581943035,0.016386963427066803,0.005000883713364601
1751013493699332400,7.080332275390625,0.0028754149097949266,0.019306320697069168,-0.03507782518863678
1751013493709275400,7.090275390625,0.0035747610963881016,0.018789399415254593,-0.06351932138204575
1751013493719218400,7.100218505859375,-0.0004689826746471226,0.018679412081837654,-0.0755528137087822
1751013493729162500,7.11016259765625,0.0028780782595276833,0.015903066843748093,-0.0641627386212349
1751013493739105500,7.12010546875,0.0015403723809868097,0.018804047256708145,-0.03958362713456154
1751013493749048600,7.130048583984375,0.0003246393462177366,0.021260812878608704,-0.011749600060284138
1751013493758992400,7.139992431640625,-0.003594202222302556,0.01076929084956646,0.009816411882638931
1751013493768935400,7.149935302734375,-0.00177952426020056,0.005853361915796995,0.027213778346776962
1751013493778879500,7.15987939453125,-0.0004170510219410062,0.004791825544089079,0.0321962870657444
1751013493788822500,7.169822509765625,0.0019105518003925681,0.0020117517560720444,0.02785293571650982
1751013493798765300,7.179765380859375,0.004163586068898439,0.007439540233463049,0.025186046957969666
1751013493808709400,7.18970947265625,0.0054696002043783665,0.02190423384308815,0.017061540856957436
1751013493818652400,7.19965234375,0.0006570018595084548,0.028804482892155647,0.007836084812879562
1751013493828595500,7.209595458984375,-0.0018066884949803352,0.02430667169392109,-0.01564021222293377
1751013493838539300,7.219539306640625,-0.004919923841953278,0.01798166334629059,-0.02923698164522648
1751013493848482300,7.229482421875,-0.00401657959446311,0.016051137819886208,-0.04038843512535095
1751013493858425300,7.23942529296875,-0.004427238833159208,0.011390073224902153,-0.047319844365119934
1751013493868369400,7.249369384765625,-0.005606486462056637,0.005724464543163776,-0.0480242520570755
1751013493878312400,7.2593125,-0.00392683083191514,0.0054637412540614605,-0.0301459189504385
1751013493888256300,7.26925634765625,0.005606486462056637,0.025318672880530357,-0.008930111303925514
1751013493898199300,7.27919921875,0.01176158431917429,0.025046497583389282,0.010028932243585587
1751013493908142300,7.289142333984375,0.015138472430408001,0.009118929505348206,0.022710105404257774
1751013493918086400,7.29908642578125,0.016567524522542953,-0.002089249901473522,0.037686657160520554
1751013493928029200,7.309029296875,0.008623315952718258,-0.003555319970473647,0.038551121950149536
1751013493937972200,7.31897216796875,0.0003755057114176452,-0.002544117858633399,0.02045946940779686
1751013493947916500,7.32891650390625,-0.007400658447295427,-0.013497965410351753,0.001916144392453134
1751013493957859600,7.338859619140625,-0.00469541922211647,-0.01690521463751793,-0.015913452953100204
1751013493967802600,7.348802734375,-0.0041159153915941715,-0.0013576794881373644,-0.020736703649163246
1751013493977746400,7.358746337890625,0.0013158678775653243,0.025605760514736176,-0.01878194324672222
1751013493987689500,7.368689453125,0.011624432168900967,0.03730769082903862,-0.022592393681406975
1751013493997633500,7.378633544921875,0.01269875094294548,0.03923662006855011,-0.01444312185049057
1751013494007576600,7.38857666015625,0.00845873262733221,0.02731790766119957,-0.009983391501009464
1751013494017519400,7.398519287109375,-0.001615207176655531,0.014159228652715683,-0.010834804736077785
1751013494027463400,7.40846337890625,-0.00865926779806614,0.0010002832859754562,-0.0107107013463974
1751013494037406500,7.418406494140625,-0.010015616193413734,-0.007735151331871748,-0.0092936335131526
1751013494047349500,7.428349609375,-0.009721603244543076,-0.012969328090548515,-0.005545500200241804
1751013494057293300,7.438293212890625,-0.008238222450017929,-0.008266451768577099,0.0017592841759324074
1751013494067236400,7.448236328125,-0.007518103811889887,-0.0026762105990201235,0.011607120744884014
1751013494077179400,7.458179443359375,-0.008433698676526546,0.0004961469094268978,0.019871709868311882
1751013494087123500,7.46812353515625,-0.005529787857085466,0.0008958873804658651,0.019756926223635674
1751013494097066500,7.47806640625,0.00023462448734790087,0.004620584659278393,0.019085543230175972
1751013494107010300,7.48801025390625,-0.0015342470724135637,0.007791610434651375,0.0046852994710206985
1751013494116953300,7.497953369140625,-0.0036783581599593163,0.005380384158343077,-0.009908823296427727
1751013494126896400,7.507896484375,-0.0024522386956959963,0.00003914846820407547,-0.03063167817890644
1751013494136840400,7.51784033203125,-0.0051984903402626514,-0.0008439557277597487,-0.0457477793097496
1751013494146783200,7.527783203125,-0.00045060686534270644,-0.00418462511152029,-0.05252392962574959
1751013494156726300,7.537726318359375,0.004447478801012039,0.0017134778900071979,-0.04356638714671135
1751013494166670300,7.54767041015625,0.009488044306635857,0.017402425408363342,-0.02455088309943676
1751013494176613400,7.55761328125,0.007486145943403244,0.027695277705788612,0.001318264752626419
1751013494186557200,7.56755712890625,0.007469101343303919,0.023788420483469963,0.02803243324160576
1751013494196500200,7.577500244140625,0.007433681283146143,0.020501546561717987,0.043769583106040955
1751013494206443300,7.587443359375,0.007900533266365528,0.010566890239715576,0.052134040743112564
1751013494216387600,7.5973876953125,0.005438441410660744,-0.0028687571175396442,0.044982653111219406
1751013494226330600,7.60733056640625,-0.0009659285424277186,-0.006164951715618372,0.026403378695249557
1751013494236273400,7.6172734375,0.0012301141396164894,-0.00001944107498275116,0.0075878784991800785
1751013494246217500,7.627217529296875,0.0025925873778760433,0.00737242866307497,-0.013128318823873997
1751013494256160500,7.637160400390625,0.00583764910697937,0.01666446402668953,-0.025959428399801254
1751013494266103600,7.647103515625,0.010536530055105686,0.015631157904863358,-0.027538949623703957
1751013494276047400,7.65704736328125,0.0054397727362811565,0.014125672169029713,-0.023664316162467003
1751013494285990400,7.666990478515625,0.00267807487398386,-0.00018242653459310532,-0.019335348159074783
1751013494295934500,7.6769345703125,-0.007269897032529116,-0.005900765769183636,-0.015401327051222324
1751013494305877500,7.68687744140625,-0.008553806692361832,-0.012001801282167435,-0.0075631109066307545
1751013494315820500,7.696820556640625,-0.015402126125991344,-0.007416104432195425,0.003309244057163596
1751013494325764400,7.706764404296875,-0.021570805460214615,0.0015315839555114508,0.006194246467202902
1751013494335707400,7.716707275390625,-0.015838084742426872,0.018570488318800926,0.010524812154471874
1751013494345650400,7.726650390625,-0.005760150961577892,0.029864687472581863,0.012385562993586063
1751013494355594500,7.736594482421875,0.0016972325975075364,0.035229891538619995,0.00920361839234829
1751013494365537300,7.746537353515625,0.004108458757400513,0.030057234689593315,0.005076517816632986
1751013494375480300,7.756480224609375,0.006470948923379183,0.024225445464253426,0.003352120751515031
1751013494385424400,7.76642431640625,0.0028570392169058323,0.02123098634183407,0.004029096569865942
1751013494395367400,7.776367431640625,0.00487251952290535,0.019999008625745773,0.005358812864869833
1751013494405311200,7.786311279296875,0.011087005957961082,0.02070661075413227,0.015513978898525238
1751013494415254300,7.796254150390625,0.01525804866105318,0.017906561493873596,0.021682126447558403
1751013494425197300,7.806197265625,0.015018897131085396,0.016518255695700645,0.028067320585250854
1751013494435141400,7.816141357421875,0.011927233077585697,0.0059721386060118675,0.023859793320298195
1751013494445084400,7.82608447265625,0.0010993528412654996,0.001618403010070324,0.01629561558365822
1751013494455027500,7.83602734375,-0.002778209513053298,-0.0006258428329601884,0.004291151650249958
1751013494464971300,7.84597119140625,-0.004037618637084961,0.0034163030795753,-0.00339153571985662
1751013494474914300,7.855914306640625,-0.0049492185935378075,0.012074772268533707,-0.011503257788717747
1751013494484857300,7.865857421875,0.006710366811603308,0.024835309013724327,-0.013137373141944408
1751013494494801400,7.875801513671875,0.011523764580488205,0.03888268396258354,-0.013265738263726234
1751013494504744200,7.885744140625,0.01133787538856268,0.04657122865319252,-0.011603392660617828
1751013494514688500,7.8956884765625,0.004291683901101351,0.041432660073041916,-0.008859537541866302
1751013494524631600,7.905631591796875,0.0008633967954665422,0.025359950959682465,-0.009289638139307499
1751013494534574600,7.91557470703125,0.0006769755273126066,0.007131412625312805,-0.008535963483154774
1751013494544518400,7.925518310546875,0.005480785388499498,0.0022506373934447765,-0.01353658176958561
1751013494554461400,7.93546142578125,0.007123423274606466,0.0023635553661733866,-0.013261476531624794
1751013494564404500,7.945404541015625,0.008445682935416698,0.016752082854509354,-0.01176078524440527
1751013494574348500,7.9553486328125,0.01181910838931799,0.029346702620387077,-0.010135192424058914
1751013494584291600,7.96529150390625,0.011152519844472408,0.03683285042643547,-0.010394318029284477
1751013494594234400,7.975234375,0.010272610932588577,0.040108535438776016,-0.013102485798299313
1751013494604178400,7.985178466796875,0.011507518589496613,0.03259549289941788,-0.01522875390946865
1751013494614121500,7.99512158203125,0.01695980876684189,0.0218520350754261,-0.020809141919016838
1751013494624065300,8.005065185546876,0.014712100848555565,0.0172671377658844,-0.01757925935089588
1751013494634008300,8.01500830078125,0.013688914477825165,0.008356200531125069,-0.0131522873416543
1751013494643951400,8.024951416015625,0.006128998938947916,0.002555569401010871,-0.005916744936257601
1751013494653895400,8.0348955078125,0.0041092573665082455,-0.004990763962268829,0.0009861685102805495
1751013494663838500,8.04483837890625,0.001543568097986281,-0.007489075418561697,0.0065559037029743195
1751013494673781500,8.054781494140625,0.004926049150526524,-0.006174805108457804,0.012538694776594639
1751013494683725300,8.064725341796875,0.006481867749243975,-0.0034674357157200575,0.0073103769682347775
1751013494693668400,8.07466845703125,0.008052866905927658,0.0024058998096734285,0.0055151404812932014
1751013494703612400,8.0846123046875,0.008696286007761955,0.008020642213523388,-0.00651595601812005
1751013494713555500,8.094555419921875,0.009918943047523499,0.018085259944200516,-0.013227388262748718
1751013494723498200,8.104498291015625,0.009936253540217876,0.016391489654779434,-0.030478812754154205
1751013494733442300,8.1144423828125,0.00250470289029181,0.012165320105850697,-0.03809838369488716
1751013494743385300,8.12438525390625,0.0003067961661145091,0.007964183576405048,-0.03779345005750656
1751013494753328400,8.134328369140626,0.00155288923997432,0.0013512879377231002,-0.034819766879081726
1751013494763272400,8.1442724609375,0.005859486758708954,-0.0017835189355537295,-0.023428892716765404
1751013494773215200,8.15421533203125,0.009721869602799416,0.004569718148559332,-0.002314287004992366
1751013494783158300,8.164158203125,0.011687548831105232,0.013081180863082409,0.013202887028455734
1751013494793102600,8.1741025390625,0.013849236071109772,0.01997024565935135,0.01558401994407177
1751013494803045600,8.184045654296876,0.017103353515267372,0.018367022275924683,0.016399746760725975
1751013494812989400,8.193989501953125,0.017105218023061752,0.016446085646748543,0.008643821813166142
1751013494822932500,8.203932373046875,0.011758655309677124,0.00939217023551464,-0.00697907991707325
1751013494832875500,8.21387548828125,0.005140167195349932,0.003864246653392911,-0.015028750523924828
1751013494842819300,8.2238193359375,0.006984672509133816,0.002159024588763714,-0.01697685196995735
1751013494852762400,8.233762451171875,0.006659234408289194,0.0054331147111952305,-0.008259261026978493
1751013494862705400,8.243705322265624,0.0025531724095344543,0.015675365924835205,0.0008934905636124313
1751013494872649500,8.2536494140625,0.0021377194207161665,0.022952454164624214,0.007661648094654083
1751013494882592500,8.263592529296876,-0.0015970977256074548,0.017476461827754974,0.004877046681940556
1751013494892535600,8.27353564453125,-0.006942328065633774,0.01125158928334713,-0.002439455594867468
1751013494902479400,8.283479248046875,-0.01296373549848795,0.00814980547875166,-0.01399011816829443
1751013494912422400,8.29342236328125,-0.019350795075297356,0.006903446279466152,-0.026443324983119965
1751013494922366500,8.303366455078125,-0.02317562699317932,0.005619003437459469,-0.038117557764053345
1751013494932309500,8.3133095703125,-0.0188975241035223,0.00282082031480968,-0.03832075744867325
1751013494942252300,8.323252197265624,-0.015689214691519737,0.0015667376574128866,-0.02617541141808033
1751013494952196400,8.3331962890625,-0.005400890484452248,0.0121866250410676,-0.014348579570651054
1751013494962139400,8.343139404296876,0.002686064224690199,0.028475049883127213,-0.00006498113361885771
1751013494972082400,8.35308251953125,0.004860002547502518,0.03479526564478874,0.016229303553700447
1751013494982026200,8.363026123046875,0.0059598879888653755,0.040523722767829895,0.021567609161138535
1751013494991969300,8.37296923828125,0.004236023873090744,0.030532343313097954,0.01882934756577015
1751013495001913300,8.382913330078125,0.007291202433407307,0.01278796698898077,0.013272395357489586
1751013495011856400,8.3928564453125,0.003320961957797408,0.004077299498021603,0.0004652542411349714
1751013495021799400,8.40279931640625,0.00196354859508574,0.003613909473642707,-0.012778911739587784
1751013495031743200,8.4127431640625,-0.0007161240209825337,0.003055444685742259,-0.030826888978481293
1751013495041686300,8.422686279296874,-0.005365204066038132,0.0020836573094129562,-0.0436934195458889
1751013495051629300,8.43262939453125,-0.004537760280072689,0.0006064017652533948,-0.056179117411375046
1751013495061573600,8.44257373046875,-0.004522580187767744,-0.0009989517275243998,-0.06282396614551544
1751013495071516400,8.452516357421874,-0.0024474449455738068,-0.005405418109148741,-0.06327271461486816
1751013495081460500,8.46246044921875,0.004012051969766617,-0.004223507363349199,-0.05151112750172615
1751013495091403500,8.472403564453124,0.005461877211928368,0.005811283830553293,-0.0373830571770668
1751013495101346600,8.4823466796875,0.006400375161319971,0.01543648075312376,-0.02190210297703743
1751013495111290400,8.492290283203126,0.003078614128753543,0.01318184845149517,-0.007033142261207104
1751013495121233400,8.5022333984375,0.0002844255941454321,0.0035926043055951595,0.00045806370326317847
1751013495131176400,8.512176513671875,-0.0021880532149225473,-0.007224090863019228,0.00914502888917923
1751013495141120500,8.52212060546875,-0.005067463032901287,-0.012486763298511505,0.009502424858510494
1751013495151063600,8.5320634765625,-0.0083660539239645,-0.018132397904992104,0.006759635638445616
1751013495161006300,8.54200634765625,-0.010784204117953777,-0.01565059833228588,0.0039087217301130295
1751013495170950400,8.551950439453124,-0.013777065090835094,0.008356999605894089,-0.0023289343807846308
1751013495180893400,8.5618935546875,-0.009298959746956825,0.02966255508363247,-0.012180766090750694
1751013495190837500,8.57183740234375,-0.0021116205025464296,0.036854952573776245,-0.03462349250912666
1751013495200780300,8.5817802734375,0.0054397727362811565,0.03400510549545288,-0.05360117554664612
1751013495210723300,8.591723388671875,0.007847269997000694,0.023612385615706444,-0.06518273055553436
1751013495220667400,8.60166748046875,0.007849134504795074,0.01197836548089981,-0.06184898689389229
1751013495230610400,8.6116103515625,0.0032975259236991405,0.0010748518398031592,-0.04561808332800865
1751013495240553500,8.621553466796875,0.0027827369049191475,-0.010973821394145489,-0.023002255707979202
1751013495250497300,8.631497314453124,0.0046967510133981705,-0.019246399402618408,0.004019775427877903
1751013495260440300,8.6414404296875,0.006686398293823004,-0.015085475519299507,0.029522737488150597
1751013495270384400,8.65138427734375,0.00962786003947258,-0.00842517614364624,0.041555698961019516
1751013495280327400,8.661327392578125,0.012824718840420246,0.003204581793397665,0.04434695839881897
1751013495290270200,8.671270263671875,0.015127553604543209,0.011156514286994934,0.026383936405181885
1751013495300214300,8.68121435546875,0.01829085685312748,0.014964568428695202,-0.005810484755784273
1751013495310157300,8.6911572265625,0.015016233548521996,0.007075219880789518,-0.04294560104608536
1751013495320100400,8.701100341796876,0.01155545562505722,0.0011574097443372011,-0.07489927113056183
1751013495330044400,8.71104443359375,0.007890679873526096,-0.003397394670173526,-0.08760335296392441
1751013495339987500,8.720987548828125,0.005262406077235937,0.0015017564874142408,-0.07915367186069489
1751013495349931500,8.730931640625,0.00666322885081172,0.006705040577799082,-0.05402355268597603
1751013495359874600,8.74087451171875,0.010101902298629284,0.02261875942349434,-0.018206967040896416
1751013495369817600,8.750817626953125,0.009315471164882183,0.03183968737721443,0.013485182076692581
1751013495379761400,8.760761474609374,0.010435863398015499,0.0328008234500885,0.04222814738750458
1751013495389704400,8.770704345703125,0.00851465854793787,0.027368508279323578,0.05338812246918678
1751013495399651600,8.780651611328125,0.005863481666892767,0.019466375932097435,0.046940878033638
1751013495409595400,8.790595458984376,0.005544168874621391,0.009589243680238724,0.03329723700881004
1751013495419538400,8.800538330078124,0.008170312270522118,-0.00048416267964057624,0.011887285858392715
1751013495429482500,8.810482421875,0.0068302094005048275,0.0004886900424025953,-0.013281716965138912
1751013495439425500,8.820425537109376,0.005074386950582266,0.010676080361008644,-0.027872644364833832
1751013495449368600,8.83036865234375,0.0018160095205530524,0.02105894684791565,-0.04193732887506485
1751013495459312600,8.840312744140626,-0.00013369068619795144,0.025673139840364456,-0.052502889186143875
1751013495469255700,8.850255615234374,-0.0028064390644431114,0.02407071553170681,-0.05245175585150719
1751013495479198500,8.860198486328125,-0.003765709698200226,0.018244251608848572,-0.046171754598617554
1751013495489142800,8.870142822265626,0.0024311996530741453,0.006455502472817898,-0.040398821234703064
1751013495499085600,8.88008544921875,0.005140966270118952,0.004770254250615835,-0.023628896102309227
1751013495509029600,8.890029541015625,0.011365306563675404,0.013043896295130253,-0.00737216230481863
1751013495518972700,8.89997265625,0.014187457971274853,0.016378972679376602,0.002403236459940672
1751013495528915700,8.909915771484375,0.01209634356200695,0.02269439399242401,0.007617173250764608
1751013495538859500,8.919859619140626,0.008747152984142303,0.02057558298110962,0.009186574257910252
1751013495548802600,8.929802490234374,0.0034021881874650717,0.016978716477751732,0.008355667814612389
1751013495558745600,8.93974560546875,-0.00048389637959189713,0.016690297052264214,0.0035747610963881016
1751013495568689700,8.949689697265624,-0.0014229270163923502,0.01185186579823494,-0.0005251753609627485
1751013495578632700,8.9596328125,-0.0003837615076918155,0.008041148073971272,-0.005811550188809633
1751013495588576500,8.969576416015625,-0.0046304380521178246,0.00965475756675005,-0.003468500915914774
1751013495598519600,8.97951953125,-0.0035947347059845924,0.008517853915691376,-0.000871652620844543
1751013495608462600,8.989462646484375,-0.0054640076123178005,0.014159228652715683,-0.00005512743518920615
1751013495618406700,8.99940673828125,0.000150202278746292,0.023639015853405,0.00043010051012970507
1751013495628349400,9.009349365234375,0.007922904565930367,0.03374224901199341,-0.00586747657507658
1751013495638292500,9.01929248046875,0.010771687142550945,0.03225221112370491,-0.009667008183896542
1751013495648236500,9.029236572265624,0.010600446723401546,0.02333994396030903,-0.016740897670388222
1751013495658179600,9.0391796875,0.00920228660106659,0.020020846277475357,-0.02058463729918003
1751013495668122600,9.04912255859375,0.00785499345511198,0.014934474602341652,-0.02196442149579525
1751013495678066400,9.05906640625,0.009180715307593346,0.006834203843027353,-0.025549834594130516
1751013495688009500,9.069009521484375,0.013789315707981586,0.005829127039760351,-0.01997290924191475
1751013495697953500,9.07895361328125,0.008214253932237625,0.007197192870080471,-0.0140758715569973
1751013495707896600,9.088896484375,0.0016674051294103265,0.010861968621611595,-0.005979595705866814
1751013495717839400,9.09883935546875,0.00019121496006846428,0.0067748152650892735,0.003177417442202568
1751013495727783700,9.10878369140625,-0.0013542174128815532,0.0033214944414794445,0.005422728601843119
1751013495737726700,9.118726806640625,-0.002585130510851741,0.0030514500103890896,0.0031443943735212088
1751013495747669500,9.12866943359375,-0.002001898130401969,0.008517853915691376,-0.0031071100383996964
1751013495757613600,9.138613525390625,-0.0011941614793613553,0.013002883642911911,-0.00999244675040245
1751013495767556600,9.148556640625,0.0017955031944438815,0.02762230671942234,-0.015743808820843697
1751013495777500700,9.158500732421874,0.003261040663346648,0.03521045297384262,-0.02094416320323944
1751013495787443700,9.168443603515625,0.004047472029924393,0.032582975924015045,-0.02725638821721077
1751013495797386800,9.17838671875,0.0046509443782269955,0.022706378251314163,-0.0396113246679306
1751013495807330600,9.18833056640625,0.006502906791865826,0.012802081182599068,-0.04890389367938042
1751013495817273600,9.198273681640625,0.006653641816228628,0.007982292212545872,-0.04688761383295059
1751013495827216600,9.208216552734376,0.008652077987790108,0.0024407871533185244,-0.04164677858352661
1751013495837160700,9.21816064453125,0.004668787587434053,-0.0015464976895600557,-0.02532639540731907
1751013495847103500,9.228103515625,0.0028370653744786978,0.0017395768081769347,-0.004596349783241749
1751013495857047600,9.238047607421874,0.0010460896883159876,0.002406698651611805,0.009188970550894737
1751013495866990600,9.247990478515625,-0.001645300886593759,-0.0032863407395780087,0.01474831998348236
1751013495876933600,9.25793359375,-0.0034613104071468115,-0.004277569241821766,0.012179967015981674
1751013495886877400,9.26787744140625,-0.0021054951939731836,-0.006102367304265499,0.000639424950350076
1751013495896820500,9.277820556640625,-0.0005965480813756585,-0.007404120173305273,-0.011137872003018856
1751013495906763500,9.287763427734374,0.002974218223243952,0.00034887410583905876,-0.026682477444410324
1751013495916707600,9.29770751953125,0.0054339137859642506,0.011375959031283855,-0.04264359921216965
1751013495926650600,9.307650634765626,0.007744738832116127,0.025051822885870934,-0.04097965732216835
1751013495936594400,9.317594482421875,0.0021225393284112215,0.028488898649811745,-0.03585973009467125
1751013495946537500,9.327537353515625,0.003683151677250862,0.018921492621302605,-0.0318404883146286
1751013495956480500,9.33748046875,0.00455879932269454,0.001315068919211626,-0.017043964937329292
1751013495966424600,9.347424560546875,0.0019523634109646082,-0.010452374815940857,0.0002181128947995603
1751013495976367400,9.357367431640625,0.00589543953537941,-0.006685333326458931,0.017855962738394737
1751013495986310400,9.367310302734374,0.0065343319438397884,-0.002453836612403393,0.026274479925632477
1751013495996254700,9.377254638671875,0.010359164327383041,0.003658917034044862,0.02046000212430954
1751013496006197800,9.38719775390625,0.011479821987450123,0.011419900692999363,0.007923702709376812
1751013496016141600,9.3971416015625,0.010941064916551113,0.016454607248306274,-0.01269901730120182
1751013496026084600,9.407084716796875,0.00427144393324852,0.01570253074169159,-0.03274836018681526
1751013496036027600,9.417027587890624,0.0002719087351579219,0.010156231001019478,-0.04327902942895889
1751013496045971700,9.4269716796875,0.0030085730832070112,0.012431901879608631,-0.040589772164821625
1751013496055914800,9.436914794921876,0.0007776430575177073,0.008391620591282845,-0.02941967360675335
1751013496065857500,9.446857421875,-0.0034019220620393753,0.005020857788622379,-0.01654408872127533
1751013496075801600,9.456801513671875,-0.00546294217929244,0.007180680986493826,-0.0055063520558178425
1751013496085744600,9.46674462890625,-0.008160457946360111,0.0034357442054897547,0.00827710423618555
1751013496095688700,9.476688720703125,-0.0073449984192848206,0.003940413240343332,0.00404454255476594
1751013496105631500,9.486631591796876,-0.004990497604012489,0.008133560419082642,-0.002572613535448909
1751013496115574500,9.496574462890624,0.001487109111621976,0.01025370229035616,-0.01594141498208046
1751013496125518600,9.5065185546875,0.00842730700969696,0.013397297821938992,-0.02720365859568119
1751013496135461600,9.516461669921876,0.013131247833371162,0.01155891828238964,-0.03068840317428112
1751013496145404700,9.52640478515625,0.014871091581881046,0.009295497089624405,-0.02359134517610073
1751013496155348500,9.536348388671875,0.011271297000348568,0.008984706364572048,-0.013980530202388763
1751013496165291500,9.54629150390625,0.0052197957411408424,0.011910455301404,0.0010455570882186294
1751013496175235600,9.556235595703125,-0.0012626046082004905,0.014104367233812809,0.01366228237748146
1751013496185178600,9.5661787109375,0.0006498112925328314,0.021709023043513298,0.028925124555826187
1751013496195121400,9.576121337890624,-0.0005241101025603712,0.027818581089377403,0.035948947072029114
1751013496205065500,9.5860654296875,0.002290851203724742,0.028689701110124588,0.0417727455496788
1751013496215008500,9.596008544921874,0.0011653993278741837,0.017826400697231293,0.03749677538871765
1751013496224952600,9.60595263671875,0.0012202603975310922,0.008392153307795525,0.0237031988799572
1751013496234895400,9.615895263671876,0.0041494714096188545,-0.0054914383217692375,0.0027473168447613716
1751013496244838400,9.62583837890625,0.0028703550342470407,-0.0037912761326879263,-0.01810283772647381
1751013496254782700,9.63578271484375,0.008613195270299911,0.0027316042687743902,-0.039451003074645996
1751013496264725800,9.645725830078124,0.010576478205621243,0.007377754896879196,-0.05107010900974274
1751013496274668500,9.65566845703125,0.01624901033937931,0.01871829479932785,-0.058333348482847214
1751013496284612600,9.665612548828125,0.020388895645737648,0.023898674175143242,-0.05011483281850815
1751013496294555600,9.6755556640625,0.021147362887859344,0.022187061607837677,-0.042930956929922104
1751013496304499700,9.685499755859375,0.007711449172347784,0.011386877857148647,-0.029258552938699722
1751013496314442800,9.69544287109375,-0.00407623453065753,-0.007267766632139683,-0.01543648075312376
1751013496324385500,9.705385498046875,-0.014879879541695118,-0.019457587972283363,-0.0036658411845564842
1751013496334329600,9.71532958984375,-0.017883392050862312,-0.01642983965575695,0.006506635341793299
1751013496344272600,9.725272705078124,-0.016268718987703323,-0.0035569178871810436,0.011863050982356071
1751013496354215700,9.735215576171875,-0.013047891668975353,0.0041097900830209255,0.01715768128633499
1751013496364159500,9.745159423828126,-0.01299489475786686,0.018998192623257637,0.022219551727175713
1751013496374102500,9.7551025390625,-0.012794092297554016,0.026883546262979507,0.017046095803380013
1751013496384046600,9.765046630859375,-0.009380452334880829,0.03329723700881004,0.0029798108153045177
1751013496393989600,9.77498974609375,-0.009373794309794903,0.031003989279270172,-0.019101522862911224
1751013496403927800,9.784927734375,-0.00490208063274622,0.02587687037885189,-0.046970169991254807
1751013496413871900,9.794871826171875,0.002669286448508501,0.026222815737128258,-0.06174938380718231
1751013496423814700,9.804814697265625,0.00624165078625083,0.02214232087135315,-0.055863797664642334
1751013496433757700,9.8147578125,0.00506799528375268,0.010567156597971916,-0.033789921551942825
1751013496443701800,9.82470166015625,0.0020503676496446133,0.006956443190574646,0.004477838985621929
1751013496453644800,9.834644775390625,-0.0026165556628257036,-0.0013422331539914012,0.041187915951013565
1751013496463588600,9.844588623046874,-0.008055795915424824,-0.005062669049948454,0.06307350844144821
1751013496473531600,9.85453173828125,-0.006399842444807291,-0.0016524913953617215,0.06862033903598785
1751013496483474700,9.864474609375,-0.0014913701452314854,0.00743288267403841,0.05234363302588463
1751013496493418800,9.874418701171875,0.006443251855671406,0.018849587067961693,0.01684529334306717
1751013496503361800,9.88436181640625,0.00942066591233015,0.021875204518437386,-0.023676300421357155
1751013496513304800,9.894304931640624,0.00815113727003336,0.011634019203484058,-0.054949801415205
1751013496523248600,9.90424853515625,0.0003938815207220614,0.002246642718091607,-0.07080599665641785
1751013496533191700,9.914191650390626,-0.0023555660154670477,0.009446232579648495,-0.0581384040415287
1751013496543136000,9.924135986328125,-0.00649651512503624,0.015912387520074844,-0.03802328184247017
1751013496553078800,9.934078857421875,-0.006767891347408295,0.022884011268615723,-0.008276039734482765
1751013496563021800,9.944021728515626,-0.005203284323215485,0.031202394515275955,0.011355718597769737
1751013496572966000,9.9539658203125,-0.0001328917423961684,0.03492283076047897,0.025129588320851326
1751013496582909000,9.963908935546876,0.0026458504144102335,0.02911394275724888,0.024415327236056328
1751013496592852700,9.973852783203125,-0.00002210423735959921,0.01744876429438591,0.015602129511535168
1751013496602795800,9.983795654296875,0.002406698651611805,0.009105614386498928,0.0010016148444265127
1751013496612738800,9.99373876953125,0.005428054835647345,0.002171008847653866,-0.01575339585542679
1751013496622683000,10.003682861328125,0.007798800710588694,-0.007440072949975729,-0.03458300977945328
1751013496632626000,10.0136259765625,0.00606508320197463,-0.009131979197263718,-0.04169604927301407
1751013496642568700,10.023568603515624,0.009739979170262814,-0.009022790007293224,-0.036860015243291855
1751013496652512800,10.0335126953125,0.013189838267862797,-0.011905928142368793,-0.024998560547828674
1751013496662455800,10.043455810546876,0.009016398340463638,-0.005572131834924221,-0.011974903754889965
1751013496672400000,10.05339990234375,0.009719206020236015,0.0032988577149808407,-0.0071766865439713
1751013496682342700,10.0633427734375,0.013464676216244698,0.006302637048065662,-0.008329834789037704
1751013496692285700,10.07328564453125,0.022007031366229057,0.00663446681573987,-0.020597686991095543
1751013496702229800,10.083229736328125,0.020108463242650032,0.015468970872461796,-0.03379711136221886
1751013496712172800,10.0931728515625,0.021434985101222992,0.02725345827639103,-0.044921934604644775
1751013496722115800,10.10311572265625,0.017596837133169174,0.04358609393239021,-0.048418931663036346
1751013496732059600,10.1130595703125,0.017124658450484276,0.059292882680892944,-0.03689969331026077
1751013496742002700,10.123002685546876,0.021389445289969444,0.09273233264684677,-0.036609675735235214
1751013496751946800,10.13294677734375,0.020687434822320938,0.0754188597202301,-0.03304237127304077
1751013496761889800,10.142889892578125,0.01998942159116268,0.06647622585296631,-0.026088058948516846
1751013496771832800,10.152832763671874,0.012806609272956848,0.062977634370327,-0.02263047732412815
1751013496781776600,10.162776611328125,0.015482553280889988,0.04903598502278328,-0.019028551876544952
1751013496791719700,10.1727197265625,0.014167483896017075,0.02799168787896633,-0.019410982728004456
1751013496801662700,10.182662841796875,0.018149709329009056,0.005775597412139177,-0.017315873876214027
1751013496811606800,10.192606689453125,0.00809041690081358,-0.0014644722687080503,-0.007818774320185184
1751013496821549800,10.2025498046875,0.006563893053680658,0.007846205495297909,0.007210774812847376
1751013496831494000,10.212493896484375,0.004748416133224964,0.018820026889443398,0.01776008866727352
1751013496841437000,10.22243701171875,0.010725614614784718,0.02617887407541275,0.02503344789147377
1751013496851380000,10.2323798828125,0.01136983372271061,0.022458171471953392,0.019821375608444214
1751013496861323800,10.24232373046875,0.010211358778178692,0.014525413513183594,0.011023090220987797
1751013496871266800,10.252266845703126,0.0035720979794859886,0.005915147252380848,-0.008951417170464993
1751013496881211000,10.2622109375,0.0009677927591837943,0.002374740783125162,-0.026189260184764862
1751013496891154000,10.27215380859375,-0.00401498144492507,0.009128251112997532,-0.04785141348838806
1751013496901096700,10.2820966796875,-0.003810983384028077,0.0112824821844697,-0.06093365699052811
1751013496911040800,10.292040771484375,-0.002344646956771612,0.005796370096504688,-0.0663294866681099
1751013496920983800,10.30198388671875,-0.0030085730832070112,0.01438160240650177,-0.06490549445152283
1751013496930926800,10.3119267578125,0.006332198157906532,0.016771523281931877,-0.05024426057934761
1751013496940870700,10.32187060546875,0.008420915342867374,0.013283315114676952,-0.029224997386336327
1751013496950813700,10.331813720703124,0.008757272735238075,0.00865980051457882,-0.0018775284988805652
1751013496960757800,10.3417578125,0.004073305055499077,0.00141041015740484,0.02305471897125244
1751013496970700800,10.35170068359375,-0.006216616835445166,-0.0005893575726076961,0.043053727596998215
1751013496980643800,10.361643798828124,-0.009840380400419235,0.0004063983797095716,0.0385306142270565
1751013496990587600,10.371587646484375,-0.00971707608550787,0.0014194648247212172,0.020723653957247734
1751013497000530700,10.38153076171875,-0.009417470544576645,0.0032442628871649504,-0.009436378255486488
1751013497010473700,10.3914736328125,-0.00036511936923488975,0.013882526196539402,-0.034439198672771454
1751013497020417800,10.401417724609376,0.004323375876992941,0.020801950246095657,-0.0509454719722271
1751013497030360600,10.411360595703124,0.006234726402908564,0.029377862811088562,-0.05119021609425545
1751013497040305000,10.421304931640625,0.004881041590124369,0.029679598286747932,-0.04097965732216835
1751013497050247700,10.43124755859375,0.0031212246976792812,0.022936740890145302,-0.02250956930220127
1751013497060190700,10.441190673828125,0.003431216813623905,0.018679412081837654,-0.011956527829170227
1751013497070134800,10.451134765625,-0.0049095372669398785,0.0052352421917021275,-0.00315984059125185
1751013497080077800,10.461077880859374,-0.008461927995085716,-0.004544684197753668,-0.000016777914424892515
1751013497090020900,10.471020751953125,-0.004800880327820778,-0.0033342777751386166,-0.0012663330417126417
1751013497099965000,10.48096484375,-0.0007448861724697053,-0.00042530681821517646,0.001437308033928275
1751013497109908000,10.490907958984375,0.004328435752540827,0.0004958806093782187,0.0068083712831139565
1751013497119851800,10.500851806640625,0.004504204262048006,-0.003980893176048994,0.00977619830518961
1751013497129794800,10.510794921875,0.004977181553840637,-0.0036828855518251657,0.007221161387860775
1751013497139737900,10.52073779296875,0.004367318004369736,0.0062403189949691296,0.0011060107499361038
1751013497149682000,10.530681884765626,0.0027241474017500877,0.01617896929383278,-0.002294047037139535
1751013497159624700,10.540624755859374,0.001669269404374063,0.041190847754478455,-0.0037238982040435076
1751013497169568800,10.55056884765625,-0.003939880523830652,0.08372392505407333,0.0038280277512967587
1751013497179511800,10.56051171875,-0.00977273564785719,0.09389346837997437,0.017343569546937943
1751013497189454800,10.570454833984375,-0.014087323099374771,0.07261881232261658,0.03434092923998833
1751013497199398700,10.580398681640625,-0.01684076525270939,0.05746515840291977,0.05233803763985634
1751013497209341700,10.590341796875,-0.017979266121983528,0.051004063338041306,0.05860472470521927
1751013497219284700,10.60028466796875,-0.02370266616344452,0.10605506598949432,0.12941311299800873
1751013497229228800,10.610228759765626,-0.04153759032487869,0.060856692492961884,0.16311408579349518
1751013497239171800,10.620171875,-0.0548161119222641,-0.014539527706801891,0.1723070591688156
1751013497249115600,10.63011572265625,-0.0424683652818203,-0.06281758099794388,0.16296787559986115
1751013497259058700,10.64005859375,-0.024414263665676117,-0.07471924275159836,0.12722879648208618
1751013497269001700,10.650001708984375,-0.010687798261642456,-0.04817711561918259,0.07580634951591492
1751013497278945800,10.65994580078125,0.0015843145083636045,-0.011096859350800514,0.01654808409512043
1751013497288888600,10.669888671875,0.014519554562866688,0.00626002624630928,-0.051723115146160126
1751013497298831600,10.67983154296875,0.027997545897960663,0.020596088841557503,-0.12082788348197937
1751013497308775700,10.689775634765626,0.028555745258927345,0.03086204268038273,-0.1885688453912735
1751013497318718700,10.69971875,0.01350702065974474,0.052013665437698364,-0.2302129566669464
1751013497328662800,10.709662841796876,-0.006631537340581417,0.06018264591693878,-0.23552995920181274
