time,seconds_elapsed,z,y,x
1751013928089276000,0.11227587890625,-1.0218658447265625,-0.070220947265625,0.0006866455078125
1751013928099219000,0.122218994140625,-1.0192413330078125,-0.070892333984375,0.000030517578125
1751013928109162800,0.132162841796875,-1.0175018310546875,-0.0750885009765625,-0.0050201416015625
1751013928119106800,0.14210693359375,-1.0123291015625,-0.0744781494140625,-0.0105743408203125
1751013928129049900,0.1520498046875,-1.0069732666015625,-0.0690765380859375,-0.0099334716796875
1751013928138993700,0.16199365234375,-1.00439453125,-0.0628509521484375,-0.0027618408203125
1751013928148936700,0.171936767578125,-1.004302978515625,-0.0612945556640625,-0.0069732666015625
1751013928158880800,0.181880859375,-1.0008087158203125,-0.0612945556640625,-0.0139617919921875
1751013928168824800,0.191824951171875,-1.0078582763671875,-0.0593109130859375,-0.0167236328125
1751013928178768000,0.201767822265625,-1.0142974853515625,-0.0559539794921875,-0.0054779052734375
1751013928188712000,0.2117119140625,-1.0166778564453125,-0.0633087158203125,0.0009613037109375
1751013928198655000,0.221655029296875,-1.0184173583984375,-0.0705718994140625,-0.0050811767578125
1751013928208598800,0.231598876953125,-1.014617919921875,-0.070068359375,-0.0098419189453125
1751013928218541800,0.241541748046875,-1.008575439453125,-0.0637054443359375,-0.01361083984375
1751013928228486000,0.25148583984375,-1.0087890625,-0.0562591552734375,-0.01202392578125
1751013928238429700,0.2614296875,-1.0102691650390625,-0.0490264892578125,-0.009002685546875
1751013928248372700,0.271372802734375,-1.0100860595703125,-0.0494842529296875,-0.00946044921875
1751013928258316800,0.28131689453125,-1.01153564453125,-0.0574951171875,-0.0111083984375
1751013928268259800,0.291259765625,-1.02001953125,-0.0643157958984375,-0.0155792236328125
1751013928278203600,0.30120361328125,-1.0286407470703125,-0.0631866455078125,-0.013824462890625
1751013928288146700,0.311146728515625,-1.0309906005859375,-0.0623016357421875,-0.019500732421875
1751013928298091000,0.321091064453125,-1.0278778076171875,-0.0653228759765625,-0.0235137939453125
1751013928308034800,0.331034912109375,-1.0249786376953125,-0.06524658203125,-0.024627685546875
1751013928317977900,0.340977783203125,-1.0255279541015625,-0.063629150390625,-0.0237884521484375
1751013928327922000,0.350921875,-1.025054931640625,-0.06646728515625,-0.0235137939453125
1751013928337865000,0.360864990234375,-1.024932861328125,-0.0716094970703125,-0.0244293212890625
1751013928347808800,0.370808837890625,-1.0202789306640625,-0.0774993896484375,-0.0235443115234375
1751013928357752800,0.3807529296875,-1.0153961181640625,-0.08447265625,-0.02294921875
1751013928367696000,0.39069580078125,-1.0169219970703125,-0.090545654296875,-0.0210418701171875
1751013928377639700,0.4006396484375,-1.0190277099609375,-0.095947265625,-0.020233154296875
1751013928387582700,0.410582763671875,-1.01812744140625,-0.0999298095703125,-0.023284912109375
1751013928397526800,0.42052685546875,-1.0180511474609375,-0.098602294921875,-0.02191162109375
1751013928407469800,0.4304697265625,-1.0167694091796875,-0.0946044921875,-0.0235595703125
1751013928417413600,0.44041357421875,-1.011566162109375,-0.08905029296875,-0.02166748046875
1751013928427358000,0.45035791015625,-1.0012969970703125,-0.08404541015625,-0.01629638671875
1751013928437301000,0.460301025390625,-0.994049072265625,-0.0743865966796875,-0.0134735107421875
1751013928447244800,0.470244873046875,-0.995025634765625,-0.0655975341796875,-0.0095672607421875
1751013928457187800,0.480187744140625,-0.9979400634765625,-0.0635223388671875,-0.009918212890625
1751013928467132000,0.4901318359375,-0.9961395263671875,-0.06805419921875,-0.007904052734375
1751013928477075000,0.500074951171875,-0.999969482421875,-0.0713043212890625,-0.0032501220703125
1751013928487018800,0.510018798828125,-1.003265380859375,-0.07098388671875,-0.004791259765625
1751013928496962800,0.519962890625,-1.0045318603515625,-0.07080078125,-0.0037841796875
1751013928506905900,0.52990576171875,-1.002410888671875,-0.06787109375,-0.0048065185546875
1751013928516849700,0.539849609375,-1.007232666015625,-0.06396484375,-0.0084686279296875
1751013928526792700,0.549792724609375,-1.0103912353515625,-0.060394287109375,-0.0126190185546875
1751013928536736800,0.55973681640625,-1.00994873046875,-0.05902099609375,-0.0146331787109375
1751013928546680800,0.569680908203125,-1.016510009765625,-0.06414794921875,-0.0126190185546875
1751013928556624000,0.579623779296875,-1.0214080810546875,-0.07073974609375,-0.013214111328125
1751013928566568000,0.58956787109375,-1.0186004638671875,-0.07440185546875,-0.0107879638671875
1751013928576511000,0.599510986328125,-1.0154876708984375,-0.0757598876953125,-0.0101470947265625
1751013928586454800,0.609454833984375,-1.0130462646484375,-0.076812744140625,-0.0080413818359375
1751013928596397800,0.619397705078125,-1.0078887939453125,-0.077056884765625,-0.004150390625
1751013928606342000,0.629341796875,-1.00555419921875,-0.080322265625,-0.001983642578125
1751013928616285700,0.63928564453125,-1.0062713623046875,-0.085601806640625,-0.0031585693359375
1751013928626228700,0.649228759765625,-1.010345458984375,-0.0888824462890625,-0.0068511962890625
1751013928636172800,0.6591728515625,-1.0145263671875,-0.089080810546875,-0.0125274658203125
1751013928646115800,0.66911572265625,-1.014923095703125,-0.091064453125,-0.022918701171875
1751013928656059600,0.6790595703125,-1.0165252685546875,-0.0911407470703125,-0.025604248046875
1751013928666002700,0.689002685546875,-1.0127105712890625,-0.0952606201171875,-0.0157928466796875
1751013928675946800,0.69894677734375,-1.0041351318359375,-0.1013031005859375,-0.000335693359375
1751013928685890800,0.708890869140625,-0.998199462890625,-0.10699462890625,0.0107574462890625
1751013928695833900,0.718833740234375,-0.9989166259765625,-0.1094207763671875,0.01324462890625
1751013928705778000,0.72877783203125,-1.0045166015625,-0.1096954345703125,0.0078277587890625
1751013928715721000,0.738720947265625,-1.008270263671875,-0.10504150390625,0.003875732421875
1751013928725664800,0.748664794921875,-1.0169525146484375,-0.10107421875,-0.00201416015625
1751013928735608800,0.75860888671875,-1.0215301513671875,-0.0982666015625,-0.008270263671875
1751013928745552000,0.7685517578125,-1.024200439453125,-0.092071533203125,-0.008941650390625
1751013928755495700,0.77849560546875,-1.024810791015625,-0.0850677490234375,-0.008758544921875
1751013928765438700,0.788438720703125,-1.0232086181640625,-0.080535888671875,-0.0103759765625
1751013928775382800,0.7983828125,-1.024169921875,-0.0781402587890625,-0.0060272216796875
1751013928785325800,0.808325927734375,-1.0235748291015625,-0.0772247314453125,-0.00445556640625
1751013928795269600,0.81826953125,-1.0213623046875,-0.079803466796875,-0.0034942626953125
1751013928805214000,0.8282138671875,-1.02252197265625,-0.0824737548828125,-0.000823974609375
1751013928815157000,0.838156982421875,-1.0232086181640625,-0.085113525390625,0.0030670166015625
1751013928825101600,0.8481015625,-1.017852783203125,-0.089111328125,0.0041351318359375
1751013928835044600,0.858044677734375,-1.0133819580078125,-0.092376708984375,-0.003448486328125
1751013928844988700,0.86798876953125,-1.015594482421875,-0.09259033203125,-0.0075836181640625
1751013928854931700,0.877931640625,-1.0216827392578125,-0.0947265625,-0.008636474609375
1751013928864875500,0.88787548828125,-1.0108489990234375,-0.096954345703125,-0.0095672607421875
1751013928874819600,0.897819580078125,-0.994598388671875,-0.0952606201171875,-0.00823974609375
1751013928884762600,0.9077626953125,-0.991851806640625,-0.0980377197265625,-0.011260986328125
1751013928894706700,0.917706787109375,-1.001373291015625,-0.0989532470703125,-0.0152435302734375
1751013928904649500,0.9276494140625,-1.0062713623046875,-0.098907470703125,-0.0139617919921875
1751013928914593800,0.93759375,-1.0035552978515625,-0.0950775146484375,-0.006134033203125
1751013928924537600,0.94753759765625,-0.99755859375,-0.0908203125,-0.0045928955078125
1751013928934480600,0.957480712890625,-0.9951019287109375,-0.0865478515625,-0.0112152099609375
1751013928944424700,0.9674248046875,-0.996978759765625,-0.0834808349609375,-0.0135498046875
1751013928954367700,0.97736767578125,-0.99993896484375,-0.084716796875,-0.0144805908203125
1751013928964311600,0.9873115234375,-1.006256103515625,-0.091094970703125,-0.0189056396484375
1751013928974254600,0.997254638671875,-1.01080322265625,-0.0971221923828125,-0.0237579345703125
1751013928984198700,1.00719873046875,-1.011474609375,-0.0973968505859375,-0.0235443115234375
1751013928994142500,1.017142578125,-1.0063323974609375,-0.0978851318359375,-0.0197601318359375
1751013929004085500,1.02708544921875,-0.99896240234375,-0.0982666015625,-0.0156402587890625
1751013929014029600,1.037029541015625,-0.995147705078125,-0.0960845947265625,-0.01104736328125
1751013929023972600,1.04697265625,-0.9960784912109375,-0.0935211181640625,-0.0107269287109375
1751013929033916700,1.056916748046875,-0.9930267333984375,-0.0932464599609375,-0.013916015625
1751013929043860700,1.06686083984375,-0.991485595703125,-0.094512939453125,-0.01605224609375
1751013929053803800,1.0768037109375,-0.987548828125,-0.098480224609375,-0.0187835693359375
1751013929063747600,1.08674755859375,-0.9853973388671875,-0.104156494140625,-0.023468017578125
1751013929073690600,1.096690673828125,-0.989532470703125,-0.1078643798828125,-0.024810791015625
1751013929083634700,1.106634765625,-0.99578857421875,-0.1107177734375,-0.024200439453125
1751013929093577700,1.11657763671875,-0.9984130859375,-0.111114501953125,-0.0225830078125
1751013929103521500,1.126521484375,-1.0016021728515625,-0.110870361328125,-0.020172119140625
1751013929113465600,1.136465576171875,-1.0074310302734375,-0.10858154296875,-0.019073486328125
1751013929123408600,1.14640869140625,-1.0130157470703125,-0.1045379638671875,-0.01727294921875
1751013929133352400,1.1563525390625,-1.015960693359375,-0.1052093505859375,-0.018157958984375
1751013929143295500,1.16629541015625,-1.0178375244140625,-0.1070556640625,-0.01873779296875
1751013929153239800,1.17623974609375,-1.0221099853515625,-0.105682373046875,-0.0210113525390625
1751013929163182600,1.1861826171875,-1.02459716796875,-0.0998992919921875,-0.0193328857421875
1751013929173126700,1.196126708984375,-1.0288543701171875,-0.09295654296875,-0.016143798828125
1751013929183070700,1.20607080078125,-1.0251312255859375,-0.09283447265625,-0.0187225341796875
1751013929193013800,1.216013671875,-1.0226287841796875,-0.09295654296875,-0.020965576171875
1751013929202957600,1.22595751953125,-1.025360107421875,-0.0894317626953125,-0.0194854736328125
1751013929212900600,1.235900634765625,-1.0227813720703125,-0.0888214111328125,-0.0195159912109375
1751013929222844700,1.2458447265625,-1.015380859375,-0.0948486328125,-0.0179901123046875
1751013929232788500,1.25578857421875,-1.0202789306640625,-0.100799560546875,-0.0182647705078125
1751013929242731500,1.2657314453125,-1.0223236083984375,-0.1079864501953125,-0.0175933837890625
1751013929252675600,1.275675537109375,-1.0170745849609375,-0.11590576171875,-0.0171661376953125
1751013929262618600,1.28561865234375,-1.0129241943359375,-0.117828369140625,-0.0163421630859375
1751013929272562400,1.2955625,-1.0079193115234375,-0.1139984130859375,-0.01324462890625
1751013929282506800,1.3055068359375,-1.0037689208984375,-0.110992431640625,-0.0129852294921875
1751013929292449800,1.31544970703125,-1.00341796875,-0.1101837158203125,-0.0181121826171875
1751013929302393600,1.3253935546875,-1.0030364990234375,-0.107513427734375,-0.0184478759765625
1751013929312336600,1.335336669921875,-1.0009307861328125,-0.1020355224609375,-0.019287109375
1751013929322280700,1.34528076171875,-1.0041656494140625,-0.1000518798828125,-0.02093505859375
1751013929332223700,1.3552236328125,-1.010040283203125,-0.103485107421875,-0.020660400390625
1751013929342167600,1.36516748046875,-1.0132904052734375,-0.1063079833984375,-0.023101806640625
1751013929352111600,1.375111572265625,-1.0142669677734375,-0.1111907958984375,-0.0244140625
1751013929362054700,1.3850546875,-1.01019287109375,-0.1147003173828125,-0.0225982666015625
1751013929371998500,1.39499853515625,-1.0118560791015625,-0.114959716796875,-0.02239990234375
1751013929381941500,1.40494140625,-1.0160369873046875,-0.1132965087890625,-0.0246734619140625
1751013929391885600,1.414885498046875,-1.011871337890625,-0.1133880615234375,-0.0259246826171875
1751013929401829600,1.42482958984375,-1.0033721923828125,-0.1112518310546875,-0.023345947265625
1751013929411772700,1.434772705078125,-1.0026702880859375,-0.1081695556640625,-0.0197906494140625
1751013929421716700,1.444716796875,-1.00592041015625,-0.1057281494140625,-0.0203094482421875
1751013929431659800,1.45465966796875,-1.0040435791015625,-0.1039276123046875,-0.0218353271484375
1751013929441603600,1.464603515625,-1.0020751953125,-0.103515625,-0.0186309814453125
1751013929451546600,1.474546630859375,-1.001556396484375,-0.10479736328125,-0.0179901123046875
1751013929461490700,1.48449072265625,-1.0040283203125,-0.1058197021484375,-0.0166168212890625
1751013929471434500,1.4944345703125,-1.0072174072265625,-0.10552978515625,-0.014923095703125
1751013929481377500,1.50437744140625,-1.0113525390625,-0.10589599609375,-0.017669677734375
1751013929491321600,1.514321533203125,-1.005126953125,-0.10870361328125,-0.0213623046875
1751013929501264600,1.5242646484375,-1.0027313232421875,-0.111785888671875,-0.02044677734375
1751013929511208400,1.53420849609375,-1.0068359375,-0.112335205078125,-0.020172119140625
1751013929521152500,1.544152587890625,-1.00640869140625,-0.111083984375,-0.0175018310546875
1751013929531095600,1.554095458984375,-1.00048828125,-0.1103973388671875,-0.013641357421875
1751013929541039600,1.56403955078125,-1.0011749267578125,-0.1074066162109375,-0.0096282958984375
1751013929550982700,1.573982666015625,-1.0078125,-0.1018524169921875,-0.0072479248046875
1751013929560926700,1.5839267578125,-1.01470947265625,-0.097808837890625,-0.004638671875
1751013929570869800,1.593869873046875,-1.01312255859375,-0.0968475341796875,-0.0071868896484375
1751013929580813600,1.6038134765625,-1.010284423828125,-0.0926513671875,-0.0140533447265625
1751013929590757600,1.613757568359375,-1.0133056640625,-0.0904693603515625,-0.0222320556640625
1751013929600700700,1.62370068359375,-1.0168914794921875,-0.093109130859375,-0.0233306884765625
1751013929610644500,1.63364453125,-1.014312744140625,-0.097015380859375,-0.0198516845703125
1751013929620587500,1.64358740234375,-1.011749267578125,-0.1001739501953125,-0.0133514404296875
1751013929630531600,1.653531494140625,-1.0117645263671875,-0.1019287109375,-0.00531005859375
1751013929640475400,1.663475341796875,-1.0081939697265625,-0.1037445068359375,-0.00335693359375
1751013929650418400,1.67341845703125,-1.0037841796875,-0.1046600341796875,-0.002838134765625
1751013929660362800,1.68336279296875,-1.00091552734375,-0.10272216796875,-0.0041046142578125
1751013929670305800,1.693305908203125,-0.999267578125,-0.0972900390625,-0.0019989013671875
1751013929680249600,1.70324951171875,-1.00042724609375,-0.0954132080078125,-0.0072479248046875
1751013929690192600,1.713192626953125,-1.0034637451171875,-0.09674072265625,-0.011474609375
1751013929700136700,1.72313671875,-1.007354736328125,-0.0947418212890625,-0.0095367431640625
1751013929710080500,1.73308056640625,-1.010955810546875,-0.0960540771484375,-0.0045623779296875
1751013929720023600,1.7430234375,-1.01434326171875,-0.1006317138671875,-0.0068511962890625
1751013929729967600,1.752967529296875,-1.01470947265625,-0.103759765625,-0.0122222900390625
1751013929739910700,1.76291064453125,-1.0124969482421875,-0.1005859375,-0.01141357421875
1751013929749854500,1.7728544921875,-1.0078125,-0.0993194580078125,-0.0067291259765625
1751013929759798500,1.782798583984375,-1.0021820068359375,-0.0993499755859375,-0.0047607421875
1751013929769741600,1.792741455078125,-0.9980926513671875,-0.1008758544921875,-0.00518798828125
1751013929779685400,1.802685302734375,-0.998931884765625,-0.1002349853515625,-0.0066986083984375
1751013929789628400,1.81262841796875,-1.002166748046875,-0.0998992919921875,-0.00665283203125
1751013929799572700,1.82257275390625,-1.00738525390625,-0.1006927490234375,-0.0027008056640625
1751013929809515800,1.832515869140625,-1.0098724365234375,-0.1002044677734375,-0.0019683837890625
1751013929819459000,1.842458984375,-1.0117950439453125,-0.0988311767578125,-0.0065155029296875
1751013929829403400,1.8524033203125,-1.013031005859375,-0.096710205078125,-0.00848388671875
1751013929839346400,1.862346435546875,-1.0138092041015625,-0.0928192138671875,-0.0090179443359375
1751013929849290500,1.87229052734375,-1.0130615234375,-0.0923919677734375,-0.0130615234375
1751013929859233300,1.8822333984375,-1.0145111083984375,-0.0903167724609375,-0.014984130859375
1751013929869177300,1.89217724609375,-1.0167083740234375,-0.0894317626953125,-0.0135040283203125
1751013929879121400,1.902121337890625,-1.0140838623046875,-0.095123291015625,-0.0164947509765625
1751013929889064200,1.912064208984375,-1.0119476318359375,-0.09881591796875,-0.0194549560546875
1751013929899008300,1.92200830078125,-1.0114898681640625,-0.0984649658203125,-0.0174560546875
1751013929908951300,1.931951416015625,-1.0153045654296875,-0.0977935791015625,-0.017486572265625
1751013929918895400,1.941895263671875,-1.016021728515625,-0.097381591796875,-0.016387939453125
1751013929928839200,1.951839111328125,-1.0107879638671875,-0.0951690673828125,-0.01513671875
1751013929938782200,1.9617822265625,-1.006683349609375,-0.0892333984375,-0.0167388916015625
1751013929948726500,1.9717265625,-1.008544921875,-0.083648681640625,-0.015838623046875
1751013929958669300,1.98166943359375,-1.017120361328125,-0.078460693359375,-0.015869140625
1751013929968613400,1.99161328125,-1.0213775634765625,-0.0813140869140625,-0.020172119140625
1751013929978556400,2.001556396484375,-1.022705078125,-0.0847015380859375,-0.025909423828125
1751013929988500500,2.01150048828125,-1.0279998779296875,-0.08721923828125,-0.026641845703125
1751013929998444300,2.0214443359375,-1.02911376953125,-0.08978271484375,-0.0219268798828125
1751013930008387300,2.03138720703125,-1.02203369140625,-0.0928802490234375,-0.0191802978515625
1751013930018331400,2.041331298828125,-1.010955810546875,-0.0981292724609375,-0.016876220703125
1751013930028274200,2.051274169921875,-1.0062255859375,-0.099609375,-0.0151519775390625
1751013930038218200,2.06121826171875,-1.00360107421875,-0.1010284423828125,-0.01171875
1751013930048162300,2.071162353515625,-1.0008544921875,-0.10333251953125,-0.0078125
1751013930058105300,2.081105224609375,-1.00421142578125,-0.1072235107421875,-0.0065155029296875
1751013930068049400,2.09104931640625,-1.007171630859375,-0.1078338623046875,-0.0077362060546875
1751013930077992200,2.1009921875,-1.0034637451171875,-0.1037445068359375,-0.0084991455078125
1751013930087936500,2.1109365234375,-0.9999542236328125,-0.0981292724609375,-0.0092010498046875
1751013930097880300,2.12088037109375,-0.998626708984375,-0.0933074951171875,-0.0095062255859375
1751013930107823400,2.1308232421875,-0.998809814453125,-0.0881500244140625,-0.0103912353515625
1751013930117767400,2.140767333984375,-0.996917724609375,-0.087188720703125,-0.009796142578125
1751013930127710500,2.15071044921875,-0.9988861083984375,-0.0899810791015625,-0.012359619140625
1751013930137654300,2.160654296875,-1.002166748046875,-0.09423828125,-0.0135650634765625
1751013930147597300,2.170597412109375,-1.0018463134765625,-0.097930908203125,-0.0119476318359375
1751013930157541400,2.180541259765625,-1.0059356689453125,-0.1005096435546875,-0.009490966796875
1751013930167485200,2.190485107421875,-1.0093231201171875,-0.1049652099609375,-0.0075225830078125
1751013930177428200,2.20042822265625,-1.008209228515625,-0.1066741943359375,-0.0065460205078125
1751013930187372300,2.210372314453125,-1.0062255859375,-0.1056060791015625,-0.0107879638671875
1751013930197315300,2.2203154296875,-1.0105743408203125,-0.100555419921875,-0.0114593505859375
1751013930207259400,2.23025927734375,-1.016998291015625,-0.0955963134765625,-0.004547119140625
1751013930217203500,2.240203369140625,-1.0169525146484375,-0.0948486328125,-0.0066375732421875
1751013930227146500,2.250146484375,-1.020843505859375,-0.09088134765625,-0.0157928466796875
1751013930237090300,2.26009033203125,-1.0265655517578125,-0.084808349609375,-0.0213775634765625
1751013930247033300,2.270033447265625,-1.02825927734375,-0.0786285400390625,-0.021484375
1751013930256977400,2.279977294921875,-1.022857666015625,-0.0755462646484375,-0.0174713134765625
1751013930266921200,2.289921142578125,-1.0204925537109375,-0.0762481689453125,-0.0167388916015625
1751013930276864300,2.2998642578125,-1.0186614990234375,-0.0794677734375,-0.0134429931640625
1751013930286808300,2.309808349609375,-1.016021728515625,-0.0853271484375,-0.008575439453125
1751013930296751400,2.31975146484375,-1.0146942138671875,-0.0891571044921875,-0.0066680908203125
1751013930306695200,2.329695068359375,-1.016021728515625,-0.0926361083984375,-0.0020294189453125
1751013930316638200,2.33963818359375,-1.0138397216796875,-0.096099853515625,-0.000823974609375
1751013930326582500,2.34958251953125,-1.0098876953125,-0.09429931640625,-0.00421142578125
1751013930336526300,2.3595263671875,-1.006927490234375,-0.08990478515625,-0.002899169921875
1751013930346469400,2.369469482421875,-1.0050811767578125,-0.0851287841796875,-0.002410888671875
1751013930356413400,2.379413330078125,-1.003082275390625,-0.08184814453125,-0.002471923828125
1751013930366356500,2.3893564453125,-1.000274658203125,-0.082672119140625,-0.00128173828125
1751013930376300300,2.39930029296875,-1.000457763671875,-0.0833892822265625,0.0011444091796875
1751013930386244400,2.409244384765625,-1.0043487548828125,-0.0862579345703125,-0.0024566650390625
1751013930396187400,2.4191875,-1.005950927734375,-0.089996337890625,-0.004302978515625
1751013930406131200,2.429131103515625,-1.0088653564453125,-0.0912322998046875,-0.0048828125
1751013930416074200,2.43907421875,-1.01068115234375,-0.09295654296875,-0.006439208984375
1751013930426018300,2.449018310546875,-1.0110015869140625,-0.09368896484375,-0.00469970703125
1751013930435962000,2.458962158203125,-1.0090179443359375,-0.0909271240234375,-0.00250244140625
1751013930445905200,2.4689052734375,-1.009368896484375,-0.0873260498046875,-0.0038299560546875
1751013930455849500,2.478849365234375,-1.01507568359375,-0.0844879150390625,-0.0047454833984375
1751013930465792500,2.48879248046875,-1.017059326171875,-0.084442138671875,-0.007659912109375
1751013930475736300,2.498736328125,-1.0151519775390625,-0.0811920166015625,-0.007415771484375
1751013930485679400,2.508679443359375,-1.0131378173828125,-0.07720947265625,-0.0055694580078125
1751013930495623400,2.51862353515625,-1.0123748779296875,-0.076416015625,-0.005950927734375
1751013930505567200,2.528567138671875,-1.0103759765625,-0.0781402587890625,-0.0071563720703125
1751013930515510300,2.53851025390625,-1.0133056640625,-0.079010009765625,-0.004608154296875
1751013930525454300,2.548454345703125,-1.0176239013671875,-0.0819854736328125,-0.0048065185546875
1751013930535397400,2.5583974609375,-1.01666259765625,-0.085662841796875,-0.0073394775390625
1751013930545341200,2.568341064453125,-1.014312744140625,-0.0870513916015625,-0.00726318359375
1751013930555285200,2.57828515625,-1.0120086669921875,-0.0858306884765625,-0.006439208984375
1751013930565228300,2.588228271484375,-1.0075531005859375,-0.08648681640625,-0.0073394775390625
1751013930575172400,2.59817236328125,-1.0061187744140625,-0.08514404296875,-0.0069580078125
1751013930585115400,2.608115478515625,-1.005126953125,-0.08489990234375,-0.0037994384765625
1751013930595059500,2.6180595703125,-1.00390625,-0.089263916015625,-0.00604248046875
1751013930605003300,2.628003173828125,-1.002685546875,-0.0924072265625,-0.0066986083984375
1751013930614946300,2.6379462890625,-1.0026397705078125,-0.091094970703125,-0.00482177734375
1751013930624890400,2.647890380859375,-1.0041046142578125,-0.0908966064453125,-0.00604248046875
1751013930634833400,2.65783349609375,-1.00811767578125,-0.0908966064453125,-0.0057220458984375
1751013930644777200,2.667777099609375,-1.010833740234375,-0.087738037109375,-0.0038909912109375
1751013930654721300,2.67772119140625,-1.0089111328125,-0.0840606689453125,-0.0052490234375
1751013930664664300,2.687664306640625,-1.0029754638671875,-0.082550048828125,-0.005828857421875
1751013930674608000,2.697608154296875,-1.0043182373046875,-0.082733154296875,-0.0059967041015625
1751013930684551200,2.70755126953125,-1.0112762451171875,-0.084228515625,-0.003814697265625
1751013930694495200,2.7174951171875,-1.0123138427734375,-0.0890045166015625,-0.001708984375
1751013930704439300,2.727439208984375,-1.0092010498046875,-0.094512939453125,-0.003997802734375
1751013930714382300,2.73738232421875,-1.009429931640625,-0.0953826904296875,-0.0038604736328125
1751013930724326400,2.747326416015625,-1.0142364501953125,-0.090606689453125,0.0009765625
1751013930734269400,2.75726953125,-1.0143280029296875,-0.087921142578125,-0.000152587890625
1751013930744213200,2.767213134765625,-1.010711669921875,-0.08905029296875,-0.0052032470703125
1751013930754156300,2.77715625,-1.01300048828125,-0.085540771484375,-0.008453369140625
1751013930764100400,2.787100341796875,-1.0168914794921875,-0.082305908203125,-0.007781982421875
1751013930774044200,2.797044189453125,-1.0204925537109375,-0.0833892822265625,-0.0095062255859375
1751013930783987200,2.8069873046875,-1.02203369140625,-0.0912017822265625,-0.0160064697265625
1751013930793931300,2.81693115234375,-1.0182342529296875,-0.0919036865234375,-0.016204833984375
1751013930803874300,2.826874267578125,-1.0168914794921875,-0.08905029296875,-0.010345458984375
1751013930813818000,2.836818115234375,-1.012786865234375,-0.09124755859375,-0.005615234375
1751013930823762200,2.84676220703125,-1.01025390625,-0.093505859375,-0.00848388671875
1751013930833705200,2.856705322265625,-1.0087890625,-0.091339111328125,-0.010345458984375
1751013930843649000,2.86664892578125,-1.0122833251953125,-0.08984375,-0.008331298828125
1751013930853592000,2.876592041015625,-1.0130157470703125,-0.0921630859375,-0.00970458984375
1751013930863536000,2.8865361328125,-1.0137481689453125,-0.0928955078125,-0.01226806640625
1751013930873480200,2.896480224609375,-1.0140380859375,-0.092132568359375,-0.012939453125
1751013930883423000,2.906423095703125,-1.0144195556640625,-0.0904083251953125,-0.0143890380859375
1751013930893367300,2.9163671875,-1.015838623046875,-0.0885162353515625,-0.0176544189453125
1751013930903310300,2.926310302734375,-1.0203857421875,-0.0870819091796875,-0.0183868408203125
1751013930913254100,2.936254150390625,-1.023406982421875,-0.0865325927734375,-0.019866943359375
1751013930923198200,2.9461982421875,-1.02301025390625,-0.0849609375,-0.0208740234375
1751013930933141200,2.956141357421875,-1.01763916015625,-0.0847625732421875,-0.0187835693359375
1751013930943085300,2.966085205078125,-1.013397216796875,-0.0854034423828125,-0.0149688720703125
1751013930953028000,2.976028076171875,-1.0117950439453125,-0.0877685546875,-0.0113525390625
1751013930962972200,2.98597216796875,-1.009246826171875,-0.0908203125,-0.010833740234375
1751013930972915200,2.995915283203125,-1.00653076171875,-0.0953521728515625,-0.0096282958984375
1751013930982859000,3.00585888671875,-1.0057373046875,-0.096649169921875,-0.0074615478515625
1751013930992803000,3.015802978515625,-1.005706787109375,-0.0958709716796875,-0.004119873046875
1751013931002746000,3.02574609375,-1.0048370361328125,-0.0938568115234375,-0.0033111572265625
1751013931012690400,3.0356904296875,-1.0046234130859375,-0.0908203125,-0.005859375
1751013931022633000,3.045633056640625,-1.006988525390625,-0.0875396728515625,-0.0072021484375
1751013931032577300,3.055577392578125,-1.0107269287109375,-0.08782958984375,-0.0086669921875
1751013931042521300,3.065521240234375,-1.0122833251953125,-0.08648681640625,-0.0094757080078125
1751013931052464000,3.075464111328125,-1.0105133056640625,-0.0848846435546875,-0.010162353515625
1751013931062408200,3.085408203125,-1.007080078125,-0.08599853515625,-0.0121612548828125
1751013931072351200,3.095351318359375,-1.0050506591796875,-0.084747314453125,-0.0095367431640625
1751013931082295300,3.10529541015625,-1.00677490234375,-0.083709716796875,-0.0053253173828125
1751013931092239000,3.115239013671875,-1.005462646484375,-0.0864715576171875,-0.007598876953125
1751013931102182100,3.12518212890625,-0.996246337890625,-0.0889434814453125,-0.008453369140625
1751013931112126200,3.135126220703125,-0.9902801513671875,-0.0889892578125,-0.00469970703125
1751013931122069200,3.1450693359375,-0.9891357421875,-0.091552734375,-0.000335693359375
1751013931132013000,3.155012939453125,-0.98406982421875,-0.09271240234375,0.0043182373046875
1751013931141957400,3.164957275390625,-0.9806060791015625,-0.094573974609375,0.003997802734375
1751013931151900400,3.174900390625,-0.984527587890625,-0.093994140625,0.0095367431640625
1751013931161844200,3.18484423828125,-0.9844512939453125,-0.0928497314453125,0.018402099609375
1751013931171787300,3.194787353515625,-0.9824981689453125,-0.0916748046875,0.0212554931640625
1751013931181731300,3.2047314453125,-0.984893798828125,-0.0900421142578125,0.016021728515625
1751013931191674000,3.214674072265625,-0.9937286376953125,-0.0903778076171875,0.00579833984375
1751013931201618200,3.2246181640625,-0.9977874755859375,-0.0904998779296875,-0.004608154296875
1751013931211562200,3.234562255859375,-0.986419677734375,-0.090789794921875,-0.0131378173828125
1751013931221505300,3.24450537109375,-0.9901123046875,-0.0926666259765625,-0.0102081298828125
1751013931231449000,3.254448974609375,-1.0004730224609375,-0.098724365234375,-0.011932373046875
1751013931241392000,3.26439208984375,-1.0082244873046875,-0.101226806640625,-0.010498046875
1751013931251336200,3.274336181640625,-1.010772705078125,-0.101287841796875,-0.0090484619140625
1751013931261280300,3.2842802734375,-1.0084228515625,-0.1023101806640625,-0.01019287109375
1751013931271223300,3.294223388671875,-1.011199951171875,-0.096832275390625,-0.005645751953125
1751013931281167400,3.30416748046875,-1.015472412109375,-0.0896148681640625,-0.0014190673828125
1751013931291110400,3.3141103515625,-1.012481689453125,-0.0888519287109375,-0.0054779052734375
1751013931301054200,3.32405419921875,-1.0156097412109375,-0.0868072509765625,-0.0090179443359375
1751013931310998300,3.333998291015625,-1.026947021484375,-0.0812530517578125,-0.0117340087890625
1751013931320941300,3.34394140625,-1.0345611572265625,-0.0741424560546875,-0.016693115234375
1751013931330885000,3.353885009765625,-1.03765869140625,-0.0691680908203125,-0.0189666748046875
1751013931340828200,3.363828125,-1.035186767578125,-0.0666351318359375,-0.0244293212890625
1751013931350772200,3.373772216796875,-1.030914306640625,-0.0656890869140625,-0.029327392578125
1751013931360716000,3.383716064453125,-1.03021240234375,-0.06597900390625,-0.0279998779296875
1751013931370659000,3.3936591796875,-1.027984619140625,-0.070892333984375,-0.027008056640625
1751013931380603100,3.40360302734375,-1.0212860107421875,-0.0797119140625,-0.025390625
1751013931390546200,3.413546142578125,-1.0227813720703125,-0.0878753662109375,-0.0217437744140625
1751013931400490200,3.423490234375,-1.0235595703125,-0.0925140380859375,-0.013336181640625
1751013931410434300,3.433434326171875,-1.024078369140625,-0.0910491943359375,-0.0083160400390625
1751013931420377300,3.44337744140625,-1.028076171875,-0.0861358642578125,-0.0086517333984375
1751013931430321200,3.453321044921875,-1.0279083251953125,-0.0828704833984375,-0.0085601806640625
1751013931440264200,3.46326416015625,-1.025299072265625,-0.0764007568359375,-0.0052642822265625
1751013931450208300,3.473208251953125,-1.0227203369140625,-0.0656890869140625,-0.0019989013671875
1751013931460151300,3.4831513671875,-1.0218353271484375,-0.0561065673828125,0.0037689208984375
1751013931470095000,3.49309521484375,-1.021209716796875,-0.0531158447265625,0.008087158203125
1751013931480039200,3.5030390625,-1.0194091796875,-0.0553131103515625,0.0131072998046875
1751013931489982200,3.512982177734375,-1.0216064453125,-0.059112548828125,0.0166778564453125
1751013931499926000,3.522926025390625,-1.0228118896484375,-0.0653839111328125,0.01788330078125
1751013931509869000,3.532869140625,-1.02459716796875,-0.0720367431640625,0.0200958251953125
1751013931519813400,3.5428134765625,-1.0294189453125,-0.080474853515625,0.0184326171875
1751013931529757200,3.552757080078125,-1.028778076171875,-0.08349609375,0.0149383544921875
1751013931539700200,3.5627001953125,-1.0272064208984375,-0.0804290771484375,0.0145263671875
1751013931549644300,3.572644287109375,-1.0322265625,-0.07452392578125,0.0122833251953125
1751013931559587300,3.58258740234375,-1.0367279052734375,-0.0687713623046875,0.00689697265625
1751013931569531100,3.59253125,-1.0400848388671875,-0.0630340576171875,0.0001678466796875
1751013931579475200,3.60247509765625,-1.0478668212890625,-0.055633544921875,-0.0016021728515625
1751013931589418200,3.612418212890625,-1.0483856201171875,-0.05426025390625,-0.00689697265625
1751013931599362000,3.622362060546875,-1.0424652099609375,-0.05523681640625,-0.013763427734375
1751013931609305000,3.63230517578125,-1.035430908203125,-0.0532073974609375,-0.010345458984375
1751013931619249200,3.642249267578125,-1.031005859375,-0.05682373046875,-0.0023956298828125
1751013931629193200,3.652193115234375,-1.023681640625,-0.0653228759765625,0.0068511962890625
1751013931639136000,3.662135986328125,-1.016021728515625,-0.0740966796875,0.0114898681640625
1751013931649080300,3.672080322265625,-1.0075531005859375,-0.0811004638671875,0.0139923095703125
1751013931659023400,3.6820234375,-1.004730224609375,-0.08599853515625,0.01483154296875
1751013931668967200,3.69196728515625,-1.004425048828125,-0.0914764404296875,0.016143798828125
1751013931678910200,3.70191015625,-0.999053955078125,-0.09490966796875,0.019866943359375
1751013931688854300,3.711854248046875,-0.999725341796875,-0.0899810791015625,0.02386474609375
1751013931698798000,3.721798095703125,-0.9980316162109375,-0.0865936279296875,0.024566650390625
1751013931708741000,3.7317412109375,-0.996002197265625,-0.085845947265625,0.0216064453125
1751013931718685200,3.741685302734375,-1.0005645751953125,-0.0828399658203125,0.02362060546875
1751013931728628200,3.751628173828125,-1.0035552978515625,-0.0839080810546875,0.014373779296875
1751013931738572000,3.761572021484375,-1.0096435546875,-0.0812530517578125,0.013275146484375
1751013931748516000,3.77151611328125,-1.014129638671875,-0.0839691162109375,0.0100250244140625
1751013931758459100,3.781459228515625,-1.015289306640625,-0.089019775390625,0.006866455078125
1751013931768403200,3.7914033203125,-1.0084075927734375,-0.0890655517578125,0.0054779052734375
1751013931778346200,3.80134619140625,-1.001190185546875,-0.08697509765625,0.009521484375
1751013931788290300,3.811290283203125,-0.995758056640625,-0.087890625,0.0103607177734375
1751013931798234000,3.821234130859375,-0.9955902099609375,-0.0898284912109375,0.016845703125
1751013931808177200,3.83117724609375,-0.9943695068359375,-0.0908355712890625,0.0194854736328125
1751013931818121200,3.841121337890625,-0.990509033203125,-0.0927581787109375,0.020782470703125
1751013931828063200,3.851063232421875,-0.9895782470703125,-0.095703125,0.0216217041015625
1751013931838007300,3.86100732421875,-0.993682861328125,-0.09686279296875,0.023101806640625
1751013931847951400,3.870951416015625,-0.999267578125,-0.0960845947265625,0.023406982421875
1751013931857894400,3.880894287109375,-0.993560791015625,-0.0970458984375,0.018096923828125
1751013931867838500,3.89083837890625,-0.985626220703125,-0.095184326171875,0.016082763671875
1751013931877781500,3.900781494140625,-0.985321044921875,-0.0922393798828125,0.0155487060546875
1751013931887725300,3.910725341796875,-0.9874725341796875,-0.0900115966796875,0.0194854736328125
1751013931897668400,3.92066845703125,-0.9897613525390625,-0.0908660888671875,0.019500732421875
1751013931907612400,3.9306123046875,-0.993560791015625,-0.092315673828125,0.0203399658203125
1751013931917556200,3.94055615234375,-0.99609375,-0.0940704345703125,0.0178070068359375
1751013931927499300,3.950499267578125,-1.00030517578125,-0.0931549072265625,0.0168609619140625
1751013931937443300,3.960443359375,-1.0034027099609375,-0.0889739990234375,0.0160369873046875
1751013931947386400,3.970386474609375,-1.0030975341796875,-0.087921142578125,0.018341064453125
1751013931957330200,3.980330078125,-1.004364013671875,-0.085540771484375,0.0177459716796875
1751013931967274500,3.9902744140625,-1.0066680908203125,-0.0836639404296875,0.0162200927734375
1751013931977217500,4.000217529296875,-1.00634765625,-0.0814361572265625,0.0149688720703125
1751013931987161300,4.010161376953125,-1.009613037109375,-0.082122802734375,0.01629638671875
1751013931997104400,4.0201044921875,-1.0120391845703125,-0.0843505859375,0.016998291015625
1751013932007048400,4.03004833984375,-1.0081024169921875,-0.083740234375,0.0155029296875
1751013932016992300,4.0399921875,-1.0020599365234375,-0.08343505859375,0.0184783935546875
1751013932026935300,4.049935302734375,-1.000030517578125,-0.08428955078125,0.0215606689453125
1751013932036879400,4.05987939453125,-0.9966583251953125,-0.08984375,0.0209808349609375
1751013932046822400,4.069822509765625,-0.9937896728515625,-0.0932769775390625,0.0249786376953125
1751013932056766200,4.07976611328125,-0.9976348876953125,-0.09600830078125,0.0285797119140625
1751013932066710300,4.089710205078125,-1.0009307861328125,-0.096893310546875,0.030242919921875
1751013932076653300,4.0996533203125,-0.9999237060546875,-0.098052978515625,0.0271453857421875
1751013932086597000,4.10959716796875,-1.004974365234375,-0.0946502685546875,0.0248260498046875
1751013932096540200,4.1195400390625,-1.0150299072265625,-0.088897705078125,0.0216827392578125
1751013932106484500,4.129484375,-1.0249481201171875,-0.0830841064453125,0.0183563232421875
1751013932116428300,4.13942822265625,-1.026153564453125,-0.0786590576171875,0.0122833251953125
1751013932126371300,4.149371337890625,-1.027099609375,-0.0762939453125,0.0086669921875
1751013932136315400,4.1593154296875,-1.027252197265625,-0.0722503662109375,0.0083770751953125
1751013932146258400,4.169258544921875,-1.023529052734375,-0.0711822509765625,0.0113983154296875
1751013932156202200,4.1792021484375,-1.0211181640625,-0.073760986328125,0.0142822265625
1751013932166145300,4.189145263671875,-1.0196990966796875,-0.077301025390625,0.017669677734375
1751013932176089300,4.19908935546875,-1.014404296875,-0.0784454345703125,0.0184173583984375
1751013932186033200,4.209033203125,-1.0080413818359375,-0.0822296142578125,0.019805908203125
1751013932195976200,4.21897607421875,-1.0075531005859375,-0.0898590087890625,0.0209503173828125
1751013932205920300,4.228920166015625,-1.0086822509765625,-0.0958099365234375,0.0235595703125
1751013932215863300,4.23886328125,-1.013275146484375,-0.09954833984375,0.0209808349609375
1751013932225807400,4.248807373046875,-1.01483154296875,-0.099609375,0.0167694091796875
1751013932235751400,4.25875146484375,-1.0115966796875,-0.097564697265625,0.016143798828125
1751013932245694500,4.268694580078125,-1.0082244873046875,-0.089813232421875,0.016693115234375
1751013932255638300,4.27863818359375,-1.00897216796875,-0.0807037353515625,0.0147247314453125
1751013932265581300,4.288581298828125,-1.01171875,-0.075439453125,0.0126953125
1751013932275525400,4.298525390625,-1.0160980224609375,-0.0733489990234375,0.0097503662109375
1751013932285469200,4.30846923828125,-1.0192108154296875,-0.07257080078125,0.0081024169921875
1751013932295412200,4.318412109375,-1.0149993896484375,-0.07568359375,0.00775146484375
1751013932305356300,4.328356201171875,-1.01458740234375,-0.081817626953125,0.0099029541015625
1751013932315299300,4.33829931640625,-1.0160369873046875,-0.0876007080078125,0.012786865234375
1751013932325243100,4.3482431640625,-1.0144805908203125,-0.08966064453125,0.0140838623046875
1751013932335187500,4.3581875,-1.0094451904296875,-0.088348388671875,0.015533447265625
1751013932345130200,4.368130126953125,-1.0071563720703125,-0.0850372314453125,0.018646240234375
1751013932355074300,4.37807421875,-1.00494384765625,-0.08013916015625,0.02264404296875
1751013932365017300,4.388017333984375,-1.0046234130859375,-0.077667236328125,0.022186279296875
1751013932374961400,4.39796142578125,-1.0038604736328125,-0.078460693359375,0.024169921875
1751013932384904400,4.407904541015625,-1.0025787353515625,-0.0804901123046875,0.02667236328125
1751013932394848300,4.41784814453125,-0.99859619140625,-0.0804901123046875,0.0308837890625
1751013932404792300,4.427792236328125,-0.9956207275390625,-0.0831298828125,0.0322265625
1751013932414735400,4.4377353515625,-1.0000762939453125,-0.0895538330078125,0.0332794189453125
1751013932424679200,4.44767919921875,-1.0029144287109375,-0.0994110107421875,0.030487060546875
1751013932434622200,4.457622314453125,-1.003021240234375,-0.0919036865234375,0.0267486572265625
1751013932444566300,4.467566162109375,-1.003662109375,-0.0893707275390625,0.0261993408203125
1751013932454510300,4.47751025390625,-1.004486083984375,-0.098724365234375,0.0196990966796875
1751013932464453000,4.487453125,-1.0089874267578125,-0.10174560546875,0.0145721435546875
1751013932474397400,4.4973974609375,-1.0121307373046875,-0.10235595703125,0.0058135986328125
1751013932484340500,4.507340576171875,-1.0138397216796875,-0.0990142822265625,0.0003204345703125
1751013932494284300,4.5172841796875,-1.017303466796875,-0.0940704345703125,-0.00140380859375
1751013932504228400,4.527228271484375,-1.01690673828125,-0.0919647216796875,-0.005035400390625
1751013932514171400,4.53717138671875,-1.013458251953125,-0.0932159423828125,-0.0060272216796875
1751013932524115200,4.547115234375,-1.0089263916015625,-0.0923919677734375,-0.00811767578125
1751013932534058200,4.557058349609375,-1.0054473876953125,-0.08721923828125,-0.0101165771484375
1751013932544002300,4.567002197265625,-0.9984283447265625,-0.082427978515625,-0.0066070556640625
1751013932553946400,4.5769462890625,-0.9910888671875,-0.085540771484375,-0.007598876953125
1751013932563889200,4.58688916015625,-0.9876861572265625,-0.090911865234375,-0.0073699951171875
1751013932573833200,4.596833251953125,-0.9843597412109375,-0.093353271484375,-0.0055084228515625
1751013932583776300,4.6067763671875,-0.98114013671875,-0.086395263671875,-0.004119873046875
1751013932593720300,4.61672021484375,-0.9809722900390625,-0.0825042724609375,-0.001129150390625
1751013932603664400,4.626664306640625,-0.9824981689453125,-0.083984375,-0.0012054443359375
1751013932613607400,4.636607421875,-0.9873809814453125,-0.0832977294921875,-0.0014495849609375
1751013932623551500,4.646551513671875,-0.995513916015625,-0.0771636962890625,-0.000030517578125
1751013932633494300,4.656494384765625,-0.9999542236328125,-0.06939697265625,0.0001068115234375
1751013932643438300,4.666438232421875,-1.0067138671875,-0.0606231689453125,0.0060882568359375
1751013932653381400,4.67638134765625,-1.0269775390625,-0.06439208984375,0.0015411376953125
1751013932663325200,4.6863251953125,-1.0369720458984375,-0.076171875,-0.00970458984375
1751013932673269200,4.696269287109375,-1.0302276611328125,-0.0785980224609375,-0.0139923095703125
1751013932683212300,4.70621240234375,-1.0252227783203125,-0.0783233642578125,-0.019378662109375
1751013932693156400,4.71615625,-1.0240936279296875,-0.0759735107421875,-0.01568603515625
1751013932703099100,4.72609912109375,-1.013946533203125,-0.076171875,-0.00830078125
1751013932713043200,4.736043212890625,-1.0072021484375,-0.0818939208984375,-0.002044677734375
1751013932722987500,4.745987548828125,-1.0080718994140625,-0.08465576171875,0.0033721923828125
1751013932732930300,4.755930419921875,-1.00738525390625,-0.0867919921875,0.006805419921875
1751013932742874400,4.765874267578125,-1.0036163330078125,-0.0855560302734375,0.008056640625
1751013932752817400,4.7758173828125,-1.0023345947265625,-0.0826568603515625,0.013153076171875
1751013932762761500,4.785761474609375,-1.004486083984375,-0.0808563232421875,0.0118408203125
1751013932772705300,4.795705322265625,-1.004638671875,-0.08233642578125,0.009185791015625
1751013932782648300,4.8056484375,-1.004119873046875,-0.0832672119140625,0.00421142578125
1751013932792592400,4.81559228515625,-1.0107879638671875,-0.0823974609375,0.0012969970703125
1751013932802535200,4.82553515625,-1.020599365234375,-0.0811767578125,-0.002288818359375
1751013932812479200,4.835479248046875,-1.0259857177734375,-0.0808563232421875,-0.0078277587890625
1751013932822427400,4.845427490234375,-1.032073974609375,-0.08013916015625,-0.011444091796875
1751013932832370200,4.8553701171875,-1.0371246337890625,-0.0773773193359375,-0.008544921875
1751013932842314200,4.865314208984375,-1.0351409912109375,-0.080078125,-0.0084075927734375
1751013932852257300,4.87525732421875,-1.03436279296875,-0.083892822265625,-0.00604248046875
1751013932862201000,4.885201171875,-1.042022705078125,-0.081939697265625,0.000640869140625
1751013932872145400,4.8951455078125,-1.0413970947265625,-0.0766448974609375,-0.0009765625
1751013932882088400,4.90508837890625,-1.0348663330078125,-0.0749664306640625,-0.0004119873046875
1751013932892032500,4.915032470703125,-1.03594970703125,-0.079681396484375,0.000274658203125
1751013932901975300,4.924975341796875,-1.040679931640625,-0.07916259765625,-0.0019073486328125
1751013932911919400,4.93491943359375,-1.0391693115234375,-0.075927734375,-0.0013885498046875
1751013932921862400,4.9448623046875,-1.037078857421875,-0.076751708984375,-0.000701904296875
1751013932931806200,4.95480615234375,-1.0322113037109375,-0.079132080078125,0.0014190673828125
1751013932941750300,4.964750244140625,-1.024200439453125,-0.0811614990234375,0.005767822265625
1751013932951693300,4.974693359375,-1.0170135498046875,-0.080780029296875,0.0113067626953125
1751013932961637400,4.984637451171875,-1.015472412109375,-0.0789794921875,0.0141754150390625
1751013932971580200,4.994580078125,-1.0139312744140625,-0.0769195556640625,0.014129638671875
1751013932981524200,5.004524169921875,-1.0047760009765625,-0.0733795166015625,0.0091400146484375
1751013932991468500,5.014468505859375,-0.99627685546875,-0.078369140625,0.0111236572265625
1751013933001411000,5.0244111328125,-1.00213623046875,-0.0936279296875,0.0224151611328125
1751013933011355400,5.03435546875,-1.0046234130859375,-0.108489990234375,0.0313262939453125
1751013933021298400,5.04429833984375,-0.9965667724609375,-0.105255126953125,0.03656005859375
1751013933031242500,5.054242431640625,-0.994140625,-0.085296630859375,0.037017822265625
1751013933041186300,5.064186279296875,-0.998291015625,-0.0754241943359375,0.037353515625
1751013933051129300,5.07412939453125,-1.0052337646484375,-0.081024169921875,0.0340576171875
1751013933061073400,5.084073486328125,-1.0102691650390625,-0.08233642578125,0.0309906005859375
1751013933071016200,5.09401611328125,-1.01165771484375,-0.076873779296875,0.02545166015625
1751013933080960300,5.103960205078125,-1.015716552734375,-0.0689239501953125,0.01910400390625
1751013933090904300,5.113904296875,-1.0234527587890625,-0.0649566650390625,0.0194091796875
1751013933100847400,5.123847412109375,-1.027496337890625,-0.0644989013671875,0.0158843994140625
1751013933110791200,5.133791259765625,-1.031768798828125,-0.06341552734375,0.0150604248046875
1751013933120734200,5.143734130859375,-1.0350341796875,-0.064849853515625,0.01171875
1751013933130678500,5.153678466796875,-1.035797119140625,-0.0652618408203125,0.009002685546875
1751013933140622300,5.163622314453125,-1.03582763671875,-0.0635986328125,0.0041351318359375
1751013933150565400,5.1735654296875,-1.0338897705078125,-0.0631103515625,0.001220703125
1751013933160509400,5.183509521484375,-1.029632568359375,-0.0653228759765625,-0.0021514892578125
1751013933170452500,5.193452392578125,-1.02239990234375,-0.071197509765625,-0.004547119140625
1751013933180396300,5.203396240234375,-1.0165252685546875,-0.076995849609375,-0.00579833984375
1751013933190340400,5.21334033203125,-1.013702392578125,-0.08184814453125,-0.00439453125
1751013933200283400,5.223283447265625,-1.0084228515625,-0.0862579345703125,-0.0034637451171875
1751013933210227200,5.233227294921875,-1.002593994140625,-0.09228515625,-0.00347900390625
1751013933220170200,5.243170166015625,-1.002685546875,-0.0945587158203125,-0.0009307861328125
1751013933230114300,5.2531142578125,-1.0044708251953125,-0.09259033203125,-0.000946044921875
1751013933240057300,5.263057373046875,-1.0060882568359375,-0.0947113037109375,-0.0051422119140625
1751013933250001400,5.27300146484375,-1.0006256103515625,-0.0957183837890625,-0.0110626220703125
1751013933259945500,5.282945556640625,-0.9971771240234375,-0.0932464599609375,-0.01068115234375
1751013933269888500,5.292888427734375,-0.9982147216796875,-0.0929107666015625,-0.0069427490234375
1751013933279832300,5.302832275390625,-1.0020751953125,-0.0920867919921875,-0.0038604736328125
1751013933289775400,5.312775390625,-1.005523681640625,-0.090972900390625,-0.003021240234375
1751013933299719400,5.322719482421875,-1.0118255615234375,-0.086578369140625,-0.00335693359375
1751013933309663200,5.332663330078125,-1.016815185546875,-0.0772705078125,-0.0017547607421875
1751013933319606300,5.342606201171875,-1.0157012939453125,-0.0778961181640625,-0.0002288818359375
1751013933329550300,5.35255029296875,-1.01654052734375,-0.0825042724609375,-0.000762939453125
1751013933339493400,5.362493408203125,-1.0149688720703125,-0.079254150390625,0.004974365234375
1751013933349437200,5.372437255859375,-1.0116119384765625,-0.0735626220703125,0.0084686279296875
1751013933359381200,5.38238134765625,-1.012115478515625,-0.0705413818359375,0.0117034912109375
1751013933369324300,5.39232421875,-1.01806640625,-0.076446533203125,0.0139007568359375
1751013933379268400,5.402268310546875,-1.02288818359375,-0.082366943359375,0.0136566162109375
1751013933389211400,5.41221142578125,-1.032196044921875,-0.0862579345703125,0.0200347900390625
1751013933399155500,5.422155517578125,-1.036590576171875,-0.0815277099609375,0.0218353271484375
1751013933409099300,5.432099365234375,-1.04388427734375,-0.0801544189453125,0.0119171142578125
1751013933419042300,5.442042236328125,-1.0537567138671875,-0.0803070068359375,0.0124359130859375
1751013933428986400,5.451986328125,-1.0542449951171875,-0.0803680419921875,0.0152130126953125
1751013933438929400,5.461929443359375,-1.0516204833984375,-0.0735931396484375,0.0212249755859375
1751013933448873200,5.471873291015625,-1.044097900390625,-0.0664520263671875,0.0277862548828125
1751013933458817300,5.4818173828125,-1.0356903076171875,-0.071746826171875,0.029388427734375
1751013933468760300,5.49176025390625,-1.03070068359375,-0.0787353515625,0.02471923828125
1751013933478704000,5.5017041015625,-1.0254669189453125,-0.0768890380859375,0.0249786376953125
1751013933488647200,5.511647216796875,-1.0139923095703125,-0.0742950439453125,0.0173492431640625
1751013933498591500,5.521591552734375,-0.9957733154296875,-0.0722503662109375,0.0088653564453125
1751013933508535300,5.531535400390625,-0.98211669921875,-0.07562255859375,0.007720947265625
1751013933518478300,5.541478271484375,-0.9742584228515625,-0.0848846435546875,0.006011962890625
1751013933528422400,5.55142236328125,-0.9715423583984375,-0.0896759033203125,0.0099334716796875
1751013933538365400,5.561365478515625,-0.9734344482421875,-0.0955657958984375,0.018157958984375
1751013933548309200,5.571309326171875,-0.9741363525390625,-0.10369873046875,0.01629638671875
1751013933558253300,5.58125341796875,-0.9836883544921875,-0.09796142578125,0.01251220703125
1751013933568196400,5.5911962890625,-0.998321533203125,-0.0908660888671875,0.01458740234375
1751013933578140200,5.60114013671875,-0.9865875244140625,-0.1200408935546875,0.0210418701171875
1751013933588083200,5.611083251953125,-0.9857940673828125,-0.1359710693359375,0.01812744140625
1751013933598027300,5.62102734375,-0.989471435546875,-0.1204986572265625,0.0160980224609375
1751013933607970300,5.63097021484375,-0.9930267333984375,-0.0991058349609375,0.01025390625
1751013933617914000,5.6409140625,-0.9954376220703125,-0.0906982421875,0.0094451904296875
1751013933627858400,5.6508583984375,-0.9935302734375,-0.094390869140625,0.0110015869140625
1751013933637801500,5.660801513671875,-0.997039794921875,-0.102203369140625,0.0155487060546875
1751013933647745300,5.670745361328125,-1.00640869140625,-0.10382080078125,0.0197601318359375
1751013933657689300,5.680689453125,-1.0083160400390625,-0.0980682373046875,0.0227203369140625
1751013933667632400,5.69063232421875,-1.0145111083984375,-0.0908355712890625,0.02557373046875
1751013933677576200,5.700576171875,-1.032135009765625,-0.078338623046875,0.02154541015625
1751013933687519200,5.710519287109375,-1.0345458984375,-0.05889892578125,0.0122833251953125
1751013933697463300,5.72046337890625,-1.02728271484375,-0.0474090576171875,0.009796142578125
1751013933707406300,5.73040625,-1.0263824462890625,-0.0435638427734375,0.0072479248046875
1751013933717350100,5.74035009765625,-1.017120361328125,-0.05560302734375,0.01214599609375
1751013933727294200,5.750294189453125,-1.006195068359375,-0.0766754150390625,0.0160369873046875
1751013933737237200,5.7602373046875,-1.007049560546875,-0.082275390625,0.011566162109375
1751013933747181300,5.770181396484375,-1.001068115234375,-0.083953857421875,0.009857177734375
1751013933757124400,5.780124267578125,-0.99432373046875,-0.09930419921875,0.0067291259765625
1751013933767068400,5.790068359375,-0.99200439453125,-0.11358642578125,0.00360107421875
1751013933777012200,5.80001220703125,-0.9983978271484375,-0.1153564453125,0.003997802734375
1751013933786955300,5.809955322265625,-1.0076904296875,-0.108001708984375,0.011444091796875
1751013933796899300,5.8198994140625,-1.016326904296875,-0.1029815673828125,0.0146026611328125
1751013933806842400,5.82984228515625,-1.020172119140625,-0.0948333740234375,0.0167388916015625
1751013933816786200,5.8397861328125,-1.0100250244140625,-0.0831298828125,0.0191497802734375
1751013933826726700,5.8497265625,-1.0009765625,-0.071533203125,0.01898193359375
1751013933836669700,5.859669677734375,-0.9969940185546875,-0.0606842041015625,0.0197601318359375
1751013933846613800,5.86961376953125,-0.99249267578125,-0.05035400390625,0.023712158203125
1751013933856556500,5.879556640625,-0.995147705078125,-0.0444793701171875,0.021942138671875
1751013933866500600,5.88950048828125,-1.000518798828125,-0.0416259765625,0.015533447265625
1751013933876444700,5.899444580078125,-1.0015869140625,-0.0429229736328125,0.0113067626953125
1751013933886387700,5.9093876953125,-1.0064239501953125,-0.04962158203125,0.0074920654296875
1751013933896331800,5.919331787109375,-1.01397705078125,-0.0594329833984375,0.0055389404296875
1751013933906274800,5.92927490234375,-1.0149383544921875,-0.0641632080078125,0.0041351318359375
1751013933916219000,5.939218994140625,-1.0115966796875,-0.0621490478515625,-0.0018768310546875
1751013933926162700,5.94916259765625,-1.0097503662109375,-0.06396484375,0.0016021728515625
1751013933936105700,5.959105712890625,-1.0143280029296875,-0.070343017578125,0.0077362060546875
1751013933946049800,5.9690498046875,-1.0168609619140625,-0.0666961669921875,0.0093994140625
1751013933955992600,5.97899267578125,-1.01019287109375,-0.052093505859375,0.008880615234375
1751013933965936600,5.9889365234375,-1.0106048583984375,-0.04583740234375,0.0013427734375
1751013933975880700,5.998880615234375,-1.016082763671875,-0.049591064453125,-0.00872802734375
1751013933985823700,6.00882373046875,-1.015655517578125,-0.0539398193359375,-0.0184478759765625
1751013933995767600,6.018767578125,-1.0125274658203125,-0.05926513671875,-0.0193634033203125
1751013934005710600,6.028710693359375,-1.0099945068359375,-0.067962646484375,-0.0159759521484375
1751013934015655000,6.038655029296875,-1.0147247314453125,-0.0732879638671875,-0.0146636962890625
1751013934025598700,6.0485986328125,-1.0184478759765625,-0.0734710693359375,-0.012359619140625
1751013934035541800,6.058541748046875,-1.0156402587890625,-0.0795745849609375,-0.00628662109375
1751013934045485800,6.06848583984375,-1.0137939453125,-0.0858001708984375,-0.00714111328125
1751013934055428900,6.078428955078125,-1.0165557861328125,-0.0859375,-0.006256103515625
1751013934065372700,6.08837255859375,-1.0191802978515625,-0.083221435546875,-0.0087738037109375
1751013934075316700,6.098316650390625,-1.021942138671875,-0.0829315185546875,-0.0163726806640625
1751013934085259800,6.108259765625,-1.036102294921875,-0.0835113525390625,-0.0194854736328125
1751013934095203600,6.11820361328125,-1.0540618896484375,-0.0862274169921875,-0.0174102783203125
1751013934105146600,6.128146728515625,-1.0597381591796875,-0.0924072265625,-0.0142822265625
1751013934115090700,6.138090576171875,-1.04461669921875,-0.091583251953125,-0.01641845703125
1751013934125034800,6.14803466796875,-1.03887939453125,-0.0814971923828125,-0.0161590576171875
1751013934134977500,6.1579775390625,-1.037322998046875,-0.0766754150390625,-0.0124359130859375
1751013934144921900,6.167921875,-1.031036376953125,-0.076873779296875,-0.00396728515625
1751013934154865000,6.177864990234375,-1.0141754150390625,-0.0757598876953125,-0.00311279296875
1751013934164808700,6.18780859375,-0.995574951171875,-0.0721893310546875,0.0004119873046875
1751013934174752800,6.197752685546875,-0.98858642578125,-0.0689239501953125,0.0031890869140625
1751013934184695800,6.20769580078125,-0.9884033203125,-0.0686187744140625,0.00677490234375
1751013934194639600,6.2176396484375,-0.990570068359375,-0.0634765625,0.0160369873046875
1751013934204582700,6.227582763671875,-0.99169921875,-0.0684814453125,0.012420654296875
1751013934214526700,6.237526611328125,-0.9847869873046875,-0.077301025390625,0.0074310302734375
1751013934224470500,6.247470458984375,-0.9769744873046875,-0.0804595947265625,0.0097808837890625
1751013934234413600,6.25741357421875,-0.9820556640625,-0.08209228515625,0.018463134765625
1751013934244357600,6.267357666015625,-0.990631103515625,-0.087188720703125,0.021209716796875
1751013934254300700,6.27730078125,-0.990142822265625,-0.0927886962890625,0.0177459716796875
1751013934264244700,6.28724462890625,-0.9874114990234375,-0.0934295654296875,0.0155487060546875
1751013934274188800,6.297188720703125,-0.9877166748046875,-0.088348388671875,0.0213165283203125
1751013934284131800,6.3071318359375,-0.990203857421875,-0.0805206298828125,0.0228424072265625
1751013934294075600,6.31707568359375,-0.989013671875,-0.0761871337890625,0.0173797607421875
1751013934304018700,6.327018798828125,-0.9897003173828125,-0.074066162109375,0.01373291015625
1751013934313962800,6.336962646484375,-0.9960784912109375,-0.0740203857421875,0.0117950439453125
1751013934323906600,6.346906494140625,-1.002288818359375,-0.0742645263671875,0.007598876953125
1751013934333849600,6.356849609375,-1.0059356689453125,-0.073211669921875,0.001190185546875
1751013934343793700,6.366793701171875,-1.011749267578125,-0.069732666015625,0.001373291015625
1751013934353737500,6.376737548828125,-1.0153961181640625,-0.07080078125,-0.0001983642578125
1751013934363680500,6.386680419921875,-1.01507568359375,-0.0731048583984375,-0.0037078857421875
1751013934373624800,6.396624755859375,-1.0201263427734375,-0.0748748779296875,-0.0079345703125
1751013934383568000,6.40656787109375,-1.02447509765625,-0.0784454345703125,-0.01177978515625
1751013934393511700,6.41651171875,-1.0232391357421875,-0.0814056396484375,-0.0152740478515625
1751013934403455700,6.426455810546875,-1.0165557861328125,-0.0820770263671875,-0.018829345703125
1751013934413398800,6.436398681640625,-1.0118408203125,-0.0831298828125,-0.0206298828125
1751013934423342600,6.446342529296875,-1.0101776123046875,-0.08294677734375,-0.0219268798828125
1751013934433285600,6.45628564453125,-1.008636474609375,-0.0828399658203125,-0.01873779296875
1751013934443229700,6.466229736328125,-1.00421142578125,-0.080078125,-0.017364501953125
1751013934453173800,6.476173828125,-0.9998626708984375,-0.0784454345703125,-0.013458251953125
1751013934463116500,6.486116455078125,-1.0001068115234375,-0.0780792236328125,-0.0093536376953125
1751013934473060600,6.496060546875,-1.0070953369140625,-0.080047607421875,-0.0080718994140625
1751013934483003600,6.506003662109375,-1.006683349609375,-0.0800933837890625,-0.010528564453125
1751013934492947500,6.515947509765625,-1.0057830810546875,-0.078582763671875,-0.014617919921875
1751013934502891800,6.525891845703125,-1.0063629150390625,-0.080963134765625,-0.0196990966796875
1751013934512834800,6.535834716796875,-1.002960205078125,-0.0857391357421875,-0.0234527587890625
1751013934522778600,6.545778564453125,-1.0050811767578125,-0.0888519287109375,-0.0269775390625
1751013934532721700,6.5557216796875,-1.0150909423828125,-0.0879669189453125,-0.031158447265625
1751013934542665700,6.565665771484375,-1.02520751953125,-0.0860748291015625,-0.03790283203125
1751013934552609800,6.57560986328125,-1.026702880859375,-0.085906982421875,-0.037841796875
1751013934562552600,6.585552490234375,-1.0183258056640625,-0.0893096923828125,-0.038116455078125
1751013934572496600,6.59549658203125,-1.006561279296875,-0.0861968994140625,-0.0296478271484375
1751013934582439700,6.605439697265625,-0.9984283447265625,-0.083160400390625,-0.0135650634765625
1751013934592383700,6.6153837890625,-0.989105224609375,-0.0824127197265625,0.002105712890625
1751013934602327600,6.62532763671875,-0.9804229736328125,-0.0857696533203125,0.0165252685546875
1751013934612270600,6.6352705078125,-0.9759368896484375,-0.0843505859375,0.037017822265625
1751013934622215000,6.64521484375,-0.970947265625,-0.0748443603515625,0.06097412109375
1751013934632157700,6.65515771484375,-0.972198486328125,-0.0681304931640625,0.075927734375
1751013934642101800,6.665101806640625,-0.977142333984375,-0.0644683837890625,0.08306884765625
1751013934652045800,6.6750458984375,-0.9833831787109375,-0.0633087158203125,0.064697265625
1751013934661988600,6.684988525390625,-0.982879638671875,-0.060882568359375,0.0399322509765625
1751013934671932700,6.6949326171875,-0.9798736572265625,-0.06109619140625,0.0269775390625
1751013934681876700,6.704876708984375,-0.983673095703125,-0.0659942626953125,0.0197601318359375
1751013934691819800,6.71481982421875,-0.99169921875,-0.0735626220703125,0.015594482421875
1751013934701763600,6.724763671875,-0.9990386962890625,-0.0856475830078125,0.0041656494140625
1751013934711706600,6.73470654296875,-1.00677490234375,-0.0906982421875,-0.007049560546875
1751013934721650700,6.744650634765625,-1.0184783935546875,-0.0917816162109375,-0.020233154296875
1751013934731594800,6.7545947265625,-1.0253448486328125,-0.0909881591796875,-0.029266357421875
1751013934741537800,6.764537841796875,-1.032440185546875,-0.0874786376953125,-0.0317535400390625
1751013934751481900,6.77448193359375,-1.0414886474609375,-0.081024169921875,-0.029571533203125
1751013934761425000,6.7844248046875,-1.04180908203125,-0.075927734375,-0.0262298583984375
1751013934771368700,6.79436865234375,-1.034027099609375,-0.07257080078125,-0.014892578125
1751013934781312800,6.804312744140625,-1.0260009765625,-0.0663604736328125,-0.0030975341796875
1751013934791255800,6.814255859375,-1.0212860107421875,-0.064453125,-0.0025634765625
1751013934801199600,6.82419970703125,-1.020050048828125,-0.07012939453125,-0.005096435546875
1751013934811142700,6.834142578125,-1.0246734619140625,-0.073577880859375,-0.0059051513671875
1751013934821086700,6.844086669921875,-1.0305633544921875,-0.0782928466796875,-0.009185791015625
1751013934831034400,6.854034423828125,-1.0353546142578125,-0.083770751953125,-0.0121307373046875
1751013934840977400,6.863977294921875,-1.0390472412109375,-0.088348388671875,-0.0159759521484375
1751013934850921500,6.87392138671875,-1.0421600341796875,-0.0923309326171875,-0.0201873779296875
1751013934860864500,6.883864501953125,-1.050506591796875,-0.094818115234375,-0.0190582275390625
1751013934870808300,6.893808349609375,-1.0510711669921875,-0.0965728759765625,-0.0162506103515625
1751013934880752400,6.90375244140625,-1.045928955078125,-0.0946807861328125,-0.014617919921875
1751013934890695400,6.9136953125,-1.0434722900390625,-0.089141845703125,-0.0034332275390625
1751013934900639200,6.92363916015625,-1.033294677734375,-0.0887603759765625,-0.0078125
1751013934910583300,6.933583251953125,-1.0223846435546875,-0.082611083984375,-0.0139007568359375
1751013934920526300,6.9435263671875,-1.016448974609375,-0.0694122314453125,-0.0131378173828125
1751013934930470100,6.95347021484375,-1.011260986328125,-0.065826416015625,-0.021636962890625
1751013934940413200,6.9634130859375,-1.008819580078125,-0.0651397705078125,-0.0223846435546875
1751013934950357500,6.973357421875,-1.013397216796875,-0.0695953369140625,-0.0250244140625
1751013934960301300,6.98330126953125,-1.0193634033203125,-0.0697784423828125,-0.021697998046875
1751013934970244400,6.993244384765625,-1.0213775634765625,-0.064361572265625,-0.0160064697265625
1751013934980188400,7.0031884765625,-1.0155487060546875,-0.059051513671875,-0.0130462646484375
1751013934990131500,7.01313134765625,-1.0116729736328125,-0.0499114990234375,-0.009765625
1751013935000075300,7.0230751953125,-1.0076446533203125,-0.0372161865234375,-0.004364013671875
1751013935010019300,7.033019287109375,-1.0071563720703125,-0.0312957763671875,-0.0012664794921875
1751013935019962400,7.04296240234375,-1.0074462890625,-0.02752685546875,-0.0000762939453125
1751013935029906200,7.05290625,-1.0059051513671875,-0.0299530029296875,-0.0000762939453125
1751013935039849200,7.06284912109375,-1.008392333984375,-0.034332275390625,-0.002655029296875
1751013935049793300,7.072793212890625,-1.0114288330078125,-0.0387115478515625,0.0011444091796875
1751013935059737000,7.082737060546875,-1.0118560791015625,-0.0451202392578125,0.0040435791015625
1751013935069680000,7.09268017578125,-1.0146026611328125,-0.0528564453125,0.004486083984375
1751013935079624400,7.10262451171875,-1.02215576171875,-0.0577545166015625,0.00189208984375
1751013935089567500,7.1125673828125,-1.02490234375,-0.0624847412109375,-0.000762939453125
1751013935099511300,7.12251123046875,-1.0212554931640625,-0.06353759765625,0.0018768310546875
1751013935109455400,7.132455322265625,-1.0205535888671875,-0.0620880126953125,0.006195068359375
1751013935119398400,7.1423984375,-1.0192108154296875,-0.0640411376953125,0.0062103271484375
1751013935129342200,7.15234228515625,-1.0178375244140625,-0.0651397705078125,0.0059814453125
1751013935139286300,7.162286376953125,-1.014862060546875,-0.0634918212890625,0.0079193115234375
1751013935149229300,7.172229248046875,-1.0125732421875,-0.0604705810546875,0.008544921875
1751013935159173400,7.18217333984375,-1.012359619140625,-0.057464599609375,0.0119476318359375
1751013935169116200,7.1921162109375,-1.0072479248046875,-0.055450439453125,0.0108184814453125
1751013935179060200,7.202060302734375,-1.00421142578125,-0.05523681640625,0.0072021484375
1751013935189004500,7.212004638671875,-1.0049896240234375,-0.056365966796875,0.00567626953125
1751013935198947300,7.221947265625,-1.0089569091796875,-0.05731201171875,0.0058135986328125
1751013935208891400,7.231891357421875,-1.010040283203125,-0.06414794921875,0.00323486328125
1751013935218834400,7.24183447265625,-1.01312255859375,-0.070068359375,0.0000152587890625
1751013935228778200,7.2517783203125,-1.0189666748046875,-0.0739593505859375,-0.0021820068359375
1751013935238722300,7.261722412109375,-1.022552490234375,-0.0778045654296875,-0.0048980712890625
1751013935248665300,7.271665283203125,-1.0148773193359375,-0.0784759521484375,-0.003021240234375
1751013935258609400,7.281609375,-1.010040283203125,-0.076080322265625,-0.000885009765625
1751013935268553200,7.29155322265625,-1.01214599609375,-0.0708160400390625,0.0036163330078125
1751013935278496300,7.301496337890625,-1.01361083984375,-0.071929931640625,0.0009918212890625
1751013935288440300,7.3114404296875,-1.0108184814453125,-0.07440185546875,-0.0023040771484375
1751013935298383400,7.32138330078125,-1.0126190185546875,-0.06988525390625,0.001922607421875
1751013935308327400,7.331327392578125,-1.0173797607421875,-0.06634521484375,0.001617431640625
1751013935318271500,7.341271484375,-1.01495361328125,-0.069793701171875,0.001190185546875
1751013935328214500,7.351214599609375,-1.01312255859375,-0.0732269287109375,0.0075225830078125
1751013935338158300,7.361158447265625,-1.01312255859375,-0.0723876953125,0.01055908203125
1751013935348101400,7.371101318359375,-1.0139617919921875,-0.0729827880859375,0.0096435546875
1751013935358045400,7.38104541015625,-1.0139007568359375,-0.0729217529296875,0.009002685546875
1751013935367989200,7.3909892578125,-1.018035888671875,-0.0710601806640625,0.009429931640625
1751013935377932300,7.400932373046875,-1.0204315185546875,-0.067138671875,0.0127410888671875
1751013935387876400,7.41087646484375,-1.014862060546875,-0.06640625,0.015777587890625
1751013935397819400,7.4208193359375,-1.0088043212890625,-0.0689239501953125,0.0117340087890625
1751013935407763200,7.43076318359375,-1.0032196044921875,-0.0696563720703125,0.0106048583984375
1751013935417707300,7.440707275390625,-1.0031890869140625,-0.0689697265625,0.0145721435546875
1751013935427650300,7.450650390625,-1.002227783203125,-0.0696258544921875,0.021087646484375
1751013935437594400,7.460594482421875,-0.9990997314453125,-0.0736083984375,0.0263519287109375
1751013935447538400,7.470538330078125,-1.00286865234375,-0.078521728515625,0.020477294921875
1751013935457481500,7.4804814453125,-1.006683349609375,-0.0794525146484375,0.01824951171875
1751013935467425300,7.49042529296875,-1.0062255859375,-0.0786285400390625,0.02130126953125
1751013935477368300,7.500368408203125,-1.0075225830078125,-0.07781982421875,0.022613525390625
1751013935487312400,7.5103125,-1.0142822265625,-0.076690673828125,0.0185699462890625
1751013935497256200,7.520256103515625,-1.0174102783203125,-0.0748443603515625,0.0151824951171875
1751013935507199200,7.53019921875,-1.0169830322265625,-0.0700225830078125,0.0123291015625
1751013935517143300,7.540143310546875,-1.0167694091796875,-0.066375732421875,0.0115509033203125
1751013935527086300,7.55008642578125,-1.0246429443359375,-0.0634765625,0.01165771484375
1751013935537030100,7.560030029296875,-1.0288238525390625,-0.0640716552734375,0.01019287109375
1751013935546974500,7.569974365234375,-1.0239105224609375,-0.065216064453125,0.008209228515625
1751013935556917500,7.57991748046875,-1.0189208984375,-0.0637664794921875,0.008819580078125
1751013935566861300,7.589861328125,-1.014251708984375,-0.0642547607421875,0.010986328125
1751013935576804400,7.599804443359375,-1.0109405517578125,-0.0659332275390625,0.012847900390625
1751013935586748400,7.60974853515625,-1.0069732666015625,-0.0679931640625,0.013214111328125
1751013935596692200,7.619692138671875,-1.0026397705078125,-0.0692596435546875,0.013671875
1751013935606635300,7.62963525390625,-1.0039215087890625,-0.0713958740234375,0.0126190185546875
1751013935616579300,7.639579345703125,-1.004913330078125,-0.0742645263671875,0.0113372802734375
1751013935626523100,7.649523193359375,-1.0092620849609375,-0.074798583984375,0.0115814208984375
1751013935636466200,7.659466064453125,-1.0102996826171875,-0.073974609375,0.0088958740234375
1751013935646410200,7.66941015625,-1.0084991455078125,-0.0697784423828125,0.005401611328125
1751013935656353300,7.679353271484375,-1.014007568359375,-0.0651092529296875,0.003082275390625
1751013935666297300,7.68929736328125,-1.0179595947265625,-0.0645294189453125,0.0024871826171875
1751013935676241400,7.699241455078125,-1.0152587890625,-0.065185546875,0.000885009765625
1751013935686184400,7.709184326171875,-1.0142364501953125,-0.063079833984375,0.0016021728515625
1751013935696128300,7.719128173828125,-1.014495849609375,-0.0637664794921875,0.0057220458984375
1751013935706071300,7.7290712890625,-1.0135498046875,-0.0688018798828125,0.005279541015625
1751013935716015400,7.739015380859375,-1.01544189453125,-0.0706329345703125,0.005767822265625
1751013935725959400,7.74895947265625,-1.014984130859375,-0.0726470947265625,0.005615234375
1751013935735902200,7.758902099609375,-1.0137786865234375,-0.0753326416015625,0.0030517578125
1751013935745846300,7.76884619140625,-1.0105743408203125,-0.0752716064453125,0.003936767578125
1751013935755790300,7.778790283203125,-1.0100860595703125,-0.0731201171875,0.0032501220703125
1751013935765733000,7.788733154296875,-1.009002685546875,-0.0729217529296875,-0.00042724609375
1751013935775677200,7.79867724609375,-1.005096435546875,-0.07489013671875,-0.00225830078125
1751013935785620200,7.8086201171875,-0.9990997314453125,-0.074615478515625,0.0006866455078125
1751013935795564300,7.818564208984375,-1.0010986328125,-0.0754852294921875,0.0023956298828125
1751013935805508400,7.82850830078125,-1.000762939453125,-0.081817626953125,0.005462646484375
1751013935815451400,7.838451416015625,-1.0031280517578125,-0.0836639404296875,0.005462646484375
1751013935825395500,7.8483955078125,-1.008331298828125,-0.0807952880859375,0.0032501220703125
1751013935835338200,7.858338134765625,-1.0146026611328125,-0.08111572265625,-0.0019989013671875
1751013935845282300,7.8682822265625,-1.018035888671875,-0.0803680419921875,-0.00372314453125
1751013935855226400,7.878226318359375,-1.0187225341796875,-0.07623291015625,-0.001373291015625
1751013935865169400,7.88816943359375,-1.0193023681640625,-0.071136474609375,-0.00115966796875
1751013935875113200,7.89811328125,-1.0204010009765625,-0.0678863525390625,-0.00030517578125
1751013935885057300,7.908057373046875,-1.0210723876953125,-0.0661468505859375,-0.0011444091796875
1751013935895000300,7.918000244140625,-1.0204010009765625,-0.0651397705078125,0.00006103515625
1751013935904944000,7.927944091796875,-1.02288818359375,-0.06524658203125,-0.0004730224609375
1751013935914887200,7.93788720703125,-1.021453857421875,-0.065765380859375,-0.0003204345703125
1751013935924831200,7.947831298828125,-1.015411376953125,-0.066131591796875,-0.00146484375
1751013935934775300,7.957775390625,-1.0069580078125,-0.06842041015625,-0.000579833984375
1751013935944718000,7.967718017578125,-1.0030517578125,-0.0701141357421875,0.0015411376953125
1751013935954662400,7.977662353515625,-1.0025634765625,-0.0731048583984375,0.0039825439453125
1751013935964606200,7.987606201171875,-1.0027618408203125,-0.0769500732421875,0.0027313232421875
1751013935974549200,7.99754931640625,-1.0008544921875,-0.0822601318359375,0.000518798828125
1751013935984493300,8.007493408203125,-1.001495361328125,-0.084716796875,0.0013580322265625
1751013935994436400,8.017436279296875,-1.0045623779296875,-0.084747314453125,0.0012359619140625
1751013936004380200,8.027380126953124,-1.0045166015625,-0.083404541015625,-0.001495361328125
1751013936014324200,8.03732421875,-1.006622314453125,-0.080230712890625,-0.0036773681640625
1751013936024267300,8.047267333984376,-1.010833740234375,-0.07550048828125,-0.004852294921875
1751013936034211000,8.057211181640625,-1.0155487060546875,-0.0725250244140625,-0.003997802734375
1751013936044154000,8.067154052734375,-1.017913818359375,-0.07196044921875,-0.003997802734375
1751013936054098200,8.07709814453125,-1.0194549560546875,-0.0680999755859375,-0.00689697265625
1751013936064042200,8.087042236328125,-1.019866943359375,-0.06427001953125,-0.0069732666015625
1751013936073985300,8.0969853515625,-1.0200653076171875,-0.065338134765625,-0.0081024169921875
1751013936083929300,8.106929443359375,-1.0138397216796875,-0.0670623779296875,-0.0073089599609375
1751013936093873200,8.116873046875,-1.0070648193359375,-0.070037841796875,-0.0061187744140625
1751013936103816200,8.126816162109375,-1.00360107421875,-0.0729827880859375,0.000701904296875
1751013936113760300,8.13676025390625,-1.0037841796875,-0.0778350830078125,0.005157470703125
1751013936123703300,8.146703369140624,-1.0043792724609375,-0.0824432373046875,0.0051422119140625
1751013936133647000,8.156647216796875,-1.0055694580078125,-0.08087158203125,0.0067138671875
1751013936143591200,8.166591064453126,-1.01080322265625,-0.0775604248046875,0.00811767578125
1751013936153534200,8.1765341796875,-1.017242431640625,-0.075958251953125,0.003692626953125
1751013936163478000,8.18647802734375,-1.0204010009765625,-0.074188232421875,-0.00262451171875
1751013936173421000,8.196421142578124,-1.019744873046875,-0.0698699951171875,-0.006195068359375
1751013936183365400,8.206365478515625,-1.016265869140625,-0.0649566650390625,-0.0070343017578125
1751013936193309200,8.21630908203125,-1.0161895751953125,-0.0603790283203125,-0.0065765380859375
1751013936203252200,8.226252197265625,-1.0188140869140625,-0.058380126953125,-0.0042724609375
1751013936213196300,8.2361962890625,-1.015228271484375,-0.06121826171875,-0.0029296875
1751013936223140400,8.246140380859375,-1.0087890625,-0.0668182373046875,-0.0041961669921875
1751013936233083100,8.256083251953125,-1.009033203125,-0.0703582763671875,0.00006103515625
1751013936243027200,8.266027099609374,-1.006103515625,-0.0757293701171875,0.004608154296875
1751013936252970200,8.27597021484375,-1.0044097900390625,-0.0785675048828125,0.0025177001953125
1751013936262914300,8.285914306640626,-1.00537109375,-0.082611083984375,-0.0002899169921875
1751013936272858000,8.295858154296875,-1.0089874267578125,-0.083160400390625,-0.002655029296875
1751013936282801200,8.30580126953125,-1.013427734375,-0.0767669677734375,-0.002197265625
1751013936292745500,8.315745361328124,-1.01666259765625,-0.076080322265625,-0.00457763671875
1751013936302689300,8.325689208984375,-1.0190582275390625,-0.0754852294921875,-0.0072784423828125
1751013936312632300,8.33563232421875,-1.01702880859375,-0.072998046875,-0.010009765625
1751013936322576400,8.345576416015625,-1.014251708984375,-0.0673828125,-0.0081634521484375
1751013936332519200,8.355519287109376,-1.0122528076171875,-0.0623321533203125,-0.005645751953125
1751013936342463200,8.365463134765625,-1.0106048583984375,-0.0625457763671875,-0.005706787109375
1751013936352407300,8.3754072265625,-1.007781982421875,-0.066741943359375,-0.007293701171875
1751013936362350300,8.385350341796874,-1.01171875,-0.0711822509765625,-0.0051727294921875
1751013936372294100,8.395294189453125,-1.0179595947265625,-0.0724945068359375,-0.00054931640625
1751013936382237200,8.4052373046875,-1.00726318359375,-0.0785675048828125,-0.0007476806640625
1751013936392181200,8.41518115234375,-1.005096435546875,-0.082000732421875,-0.0035247802734375
1751013936402125000,8.425125,-1.0110626220703125,-0.0847320556640625,-0.0061492919921875
1751013936412068000,8.435068115234374,-1.013824462890625,-0.0836029052734375,-0.0056610107421875
1751013936422012400,8.445012451171875,-1.010650634765625,-0.080841064453125,-0.0050201416015625
1751013936431956200,8.454956298828124,-1.00665283203125,-0.0786590576171875,-0.005126953125
1751013936441899300,8.464899169921875,-1.0063934326171875,-0.0782318115234375,-0.0040435791015625
1751013936451843300,8.47484326171875,-1.0063629150390625,-0.0767669677734375,-0.002655029296875
1751013936461786400,8.484786376953124,-1.009429931640625,-0.07318115234375,-0.0036163330078125
1751013936471730200,8.494730224609375,-1.0125885009765625,-0.06988525390625,-0.0039825439453125
1751013936481674200,8.50467431640625,-1.0109405517578125,-0.0711212158203125,-0.003936767578125
1751013936491617300,8.5146171875,-1.0089569091796875,-0.0743560791015625,-0.0045318603515625
1751013936501561000,8.52456103515625,-1.0092010498046875,-0.076568603515625,-0.005859375
1751013936511505200,8.534505126953125,-1.0147857666015625,-0.0795745849609375,-0.00836181640625
1751013936521448200,8.5444482421875,-1.015167236328125,-0.0818939208984375,-0.0113983154296875
1751013936531392300,8.554392333984374,-1.0106201171875,-0.0809173583984375,-0.011932373046875
1751013936541335300,8.564335205078125,-1.0118255615234375,-0.078826904296875,-0.0115509033203125
1751013936551279400,8.574279296875,-1.012908935546875,-0.0798797607421875,-0.013275146484375
1751013936561223200,8.58422314453125,-1.0105438232421875,-0.0779571533203125,-0.0158538818359375
1751013936571166200,8.594166259765625,-1.0045013427734375,-0.0746002197265625,-0.0170745849609375
1751013936581110300,8.6041103515625,-1.00140380859375,-0.0762939453125,-0.015167236328125
1751013936591053300,8.61405322265625,-1.00689697265625,-0.0767669677734375,-0.0096282958984375
1751013936600997000,8.6239970703125,-1.0140380859375,-0.078857421875,-0.0126495361328125
1751013936610941200,8.633941162109375,-1.0173187255859375,-0.07672119140625,-0.01361083984375
1751013936620884200,8.64388427734375,-1.0221710205078125,-0.075439453125,-0.015625
1751013936630828000,8.653828125,-1.0214691162109375,-0.07586669921875,-0.0228118896484375
1751013936640772400,8.6637724609375,-1.020050048828125,-0.0753326416015625,-0.0250396728515625
1751013936650715400,8.67371533203125,-1.0216217041015625,-0.0744781494140625,-0.024688720703125
1751013936660659200,8.6836591796875,-1.018218994140625,-0.074554443359375,-0.0207061767578125
1751013936670602200,8.693602294921876,-1.0126495361328125,-0.07379150390625,-0.01434326171875
1751013936680546300,8.70354638671875,-1.01092529296875,-0.0743560791015625,-0.0091400146484375
1751013936690490400,8.713490478515626,-1.0124359130859375,-0.0754852294921875,-0.0084075927734375
1751013936700433200,8.72343310546875,-1.0147857666015625,-0.078521728515625,-0.0128631591796875
1751013936710377200,8.733377197265625,-1.016571044921875,-0.080078125,-0.0151214599609375
1751013936720321300,8.7433212890625,-1.01507568359375,-0.079559326171875,-0.01470947265625
1751013936730264000,8.75326416015625,-1.011505126953125,-0.0774383544921875,-0.013763427734375
1751013936740208000,8.7632080078125,-1.0119476318359375,-0.078643798828125,-0.0171966552734375
1751013936750151200,8.773151123046874,-1.015380859375,-0.0827484130859375,-0.021331787109375
1751013936760095200,8.78309521484375,-1.015899658203125,-0.0854034423828125,-0.020599365234375
1751013936770039300,8.793039306640624,-1.015289306640625,-0.0869140625,-0.018096923828125
1751013936779982300,8.802982421875,-1.0164031982421875,-0.087615966796875,-0.016021728515625
1751013936789926400,8.812926513671876,-1.016510009765625,-0.086700439453125,-0.0128631591796875
1751013936799870200,8.8228701171875,-1.013336181640625,-0.0841217041015625,-0.011138916015625
1751013936809813200,8.832813232421875,-1.0109710693359375,-0.0808258056640625,-0.0093994140625
1751013936819757300,8.84275732421875,-1.0081634521484375,-0.0772247314453125,-0.0086669921875
1751013936829696500,8.852696533203124,-1.0090789794921875,-0.073944091796875,-0.0093231201171875
1751013936839640300,8.862640380859375,-1.0156402587890625,-0.0715484619140625,-0.00927734375
1751013936849584600,8.872584716796876,-1.019439697265625,-0.070526123046875,-0.0122833251953125
1751013936859527700,8.882527587890625,-1.02032470703125,-0.0699310302734375,-0.0161285400390625
1751013936869471500,8.892471435546875,-1.020263671875,-0.06964111328125,-0.0142059326171875
1751013936879414500,8.90241455078125,-1.0202484130859375,-0.0701904296875,-0.011962890625
1751013936889358600,8.912358642578125,-1.0132904052734375,-0.0743560791015625,-0.01190185546875
1751013936899302400,8.922302490234374,-1.0062713623046875,-0.0775604248046875,-0.0086517333984375
1751013936909245400,8.932245361328125,-1.00830078125,-0.07861328125,-0.004974365234375
1751013936919189500,8.942189453125,-1.0125885009765625,-0.079925537109375,-0.0013427734375
1751013936929133300,8.95213330078125,-1.0067291259765625,-0.0828399658203125,-0.0091552734375
1751013936939076400,8.962076416015625,-0.9947662353515625,-0.0876922607421875,-0.0168609619140625
1751013936949020400,8.9720205078125,-1.0011444091796875,-0.0899810791015625,-0.0167999267578125
1751013936958963500,8.98196337890625,-1.007415771484375,-0.090606689453125,-0.0112152099609375
1751013936968907500,8.991907470703126,-1.002593994140625,-0.0888671875,-0.0077362060546875
1751013936978851600,9.0018515625,-0.9981689453125,-0.0865020751953125,-0.007781982421875
1751013936988794600,9.011794677734375,-1.0019989013671875,-0.082672119140625,-0.0117034912109375
1751013936998738400,9.021738525390624,-1.0064697265625,-0.0773468017578125,-0.0125732421875
1751013937008682500,9.0316826171875,-1.0040435791015625,-0.07659912109375,-0.013763427734375
1751013937018625500,9.04162548828125,-1.0068511962890625,-0.078277587890625,-0.0090179443359375
1751013937028569300,9.0515693359375,-1.016754150390625,-0.08099365234375,-0.0100250244140625
1751013937038512400,9.061512451171875,-1.019683837890625,-0.082000732421875,-0.014190673828125
1751013937048456400,9.07145654296875,-1.01263427734375,-0.0816497802734375,-0.017333984375
1751013937058400500,9.081400390625,-1.00531005859375,-0.0797882080078125,-0.0183868408203125
1751013937068343300,9.09134326171875,-1.0120086669921875,-0.07891845703125,-0.013763427734375
1751013937078287600,9.10128759765625,-1.0148773193359375,-0.073486328125,-0.0081787109375
1751013937088230400,9.11123046875,-1.0082855224609375,-0.06982421875,-0.0077667236328125
1751013937098174500,9.121174560546875,-1.00958251953125,-0.070068359375,-0.0084991455078125
1751013937108118500,9.131118408203125,-1.0163726806640625,-0.0704193115234375,-0.0072784423828125
1751013937118061600,9.1410615234375,-1.0152435302734375,-0.07122802734375,-0.009857177734375
1751013937128005600,9.151005615234375,-1.0139923095703125,-0.0738067626953125,-0.0168304443359375
1751013937137949400,9.160949462890626,-1.0233917236328125,-0.076141357421875,-0.0215911865234375
1751013937147892500,9.170892578125,-1.028228759765625,-0.0765838623046875,-0.022308349609375
1751013937157836500,9.18083642578125,-1.024749755859375,-0.077972412109375,-0.023773193359375
1751013937167779300,9.190779296875,-1.0168609619140625,-0.080413818359375,-0.0240478515625
1751013937177723400,9.200723388671875,-1.01568603515625,-0.0831451416015625,-0.0206146240234375
1751013937187667500,9.21066748046875,-1.0167694091796875,-0.0855560302734375,-0.0179443359375
1751013937197610500,9.220610595703125,-1.01568603515625,-0.0865325927734375,-0.01824951171875
1751013937207554600,9.230554443359376,-1.0166168212890625,-0.0853424072265625,-0.0182952880859375
1751013937217498600,9.24049853515625,-1.0163116455078125,-0.0809326171875,-0.012908935546875
1751013937227441700,9.250441650390625,-1.0146026611328125,-0.0781097412109375,-0.0081329345703125
1751013937237385500,9.260385498046874,-1.0119781494140625,-0.07794189453125,-0.0126190185546875
1751013937247328500,9.27032861328125,-1.01678466796875,-0.0785064697265625,-0.0146942138671875
1751013937257272600,9.2802724609375,-1.0141754150390625,-0.07855224609375,-0.0172119140625
1751013937267216400,9.29021630859375,-1.0109405517578125,-0.08062744140625,-0.0217742919921875
1751013937277159400,9.300159423828125,-1.0091400146484375,-0.080963134765625,-0.0178680419921875
1751013937287103500,9.310103515625,-1.01312255859375,-0.081787109375,-0.0125579833984375
1751013937297047300,9.32004736328125,-1.0086212158203125,-0.085418701171875,-0.0150604248046875
1751013937306990300,9.329990234375,-1.0072021484375,-0.0853729248046875,-0.0164337158203125
1751013937316934700,9.3399345703125,-1.009063720703125,-0.0823211669921875,-0.014251708984375
1751013937326877700,9.349877685546875,-1.005096435546875,-0.080169677734375,-0.01318359375
1751013937336821500,9.359821533203124,-0.996368408203125,-0.08172607421875,-0.0137176513671875
1751013937346765600,9.369765625,-0.98541259765625,-0.0835113525390625,-0.008697509765625
1751013937356708600,9.37970849609375,-0.9867095947265625,-0.0863494873046875,-0.0008087158203125
1751013937366652400,9.38965234375,-0.993896484375,-0.090545654296875,-0.0030059814453125
1751013937376596500,9.399596435546876,-0.9985504150390625,-0.0951995849609375,-0.0106048583984375
1751013937386539500,9.40953955078125,-0.9997406005859375,-0.0939788818359375,-0.01416015625
1751013937396483300,9.4194833984375,-0.996307373046875,-0.094573974609375,-0.0234222412109375
1751013937406426400,9.42942626953125,-0.994842529296875,-0.0950775146484375,-0.028411865234375
1751013937416370400,9.439370361328125,-0.998748779296875,-0.0951385498046875,-0.0280914306640625
1751013937426314500,9.449314453125,-1.0006561279296875,-0.097900390625,-0.02716064453125
1751013937436257500,9.459257568359375,-1.005584716796875,-0.097015380859375,-0.0189666748046875
1751013937446201600,9.46920166015625,-1.0045928955078125,-0.0960235595703125,-0.013641357421875
1751013937456144600,9.47914453125,-1.0063018798828125,-0.0938262939453125,-0.010772705078125
1751013937466088400,9.48908837890625,-1.008758544921875,-0.0903778076171875,-0.0107574462890625
1751013937476032500,9.499032470703124,-1.01214599609375,-0.0884857177734375,-0.0135498046875
1751013937485975600,9.5089755859375,-1.0168304443359375,-0.082763671875,-0.01702880859375
1751013937495919400,9.51891943359375,-1.02215576171875,-0.076568603515625,-0.015228271484375
1751013937505863400,9.528863525390625,-1.02783203125,-0.0765533447265625,-0.0194549560546875
1751013937515806500,9.538806396484375,-1.0244903564453125,-0.0745391845703125,-0.02703857421875
1751013937525750300,9.548750244140624,-1.01654052734375,-0.0745697021484375,-0.030609130859375
1751013937535693300,9.558693359375,-1.0150299072265625,-0.078399658203125,-0.0353546142578125
1751013937545637400,9.568637451171876,-1.017669677734375,-0.07989501953125,-0.0337677001953125
1751013937555581700,9.578581787109375,-1.018035888671875,-0.0811004638671875,-0.0268707275390625
1751013937565524500,9.5885244140625,-1.0159759521484375,-0.082183837890625,-0.0241851806640625
1751013937575468500,9.598468505859374,-1.00885009765625,-0.0870819091796875,-0.0225982666015625
1751013937585412600,9.60841259765625,-1.00970458984375,-0.0894317626953125,-0.0203399658203125
1751013937595355400,9.61835546875,-1.0119781494140625,-0.0894927978515625,-0.0204315185546875
1751013937605299500,9.628299560546875,-1.011810302734375,-0.0889434814453125,-0.0215606689453125
1751013937615242500,9.638242431640625,-1.01629638671875,-0.084197998046875,-0.0206451416015625
1751013937625186600,9.6481865234375,-1.01776123046875,-0.079742431640625,-0.019744873046875
1751013937635130400,9.65813037109375,-1.014892578125,-0.07781982421875,-0.0181121826171875
1751013937645073400,9.668073486328124,-1.0135040283203125,-0.077728271484375,-0.0239715576171875
1751013937655017500,9.678017578125,-1.013214111328125,-0.076080322265625,-0.0263824462890625
1751013937664961500,9.68796142578125,-1.0132598876953125,-0.0733184814453125,-0.024810791015625
1751013937674904600,9.697904541015625,-1.0150146484375,-0.075408935546875,-0.0224151611328125
1751013937684848600,9.7078486328125,-1.014007568359375,-0.0770263671875,-0.02203369140625
1751013937694791700,9.717791748046874,-1.012847900390625,-0.076751708984375,-0.020904541015625
1751013937704735500,9.727735595703125,-1.010467529296875,-0.075164794921875,-0.020477294921875
1751013937714679600,9.737679443359376,-1.00830078125,-0.0787200927734375,-0.0238189697265625
1751013937724622600,9.74762255859375,-1.0063629150390625,-0.0846405029296875,-0.027801513671875
1751013937734566400,9.75756640625,-1.0028076171875,-0.08575439453125,-0.0251007080078125
1751013937744510500,9.767510498046875,-1.0010528564453125,-0.0855865478515625,-0.021209716796875
1751013937754453500,9.77745361328125,-0.99798583984375,-0.086090087890625,-0.01995849609375
1751013937764397300,9.787397216796874,-0.9910430908203125,-0.088531494140625,-0.0192718505859375
1751013937774340400,9.79734033203125,-0.99139404296875,-0.0888519287109375,-0.0180511474609375
1751013937784284700,9.80728466796875,-0.9945526123046875,-0.08782958984375,-0.0214080810546875
1751013937794228500,9.817228515625,-0.998809814453125,-0.087615966796875,-0.0238494873046875
1751013937804171500,9.827171630859375,-1.00604248046875,-0.0882110595703125,-0.028045654296875
1751013937814115600,9.837115478515624,-1.0120849609375,-0.082366943359375,-0.0263214111328125
1751013937824059400,9.847059326171875,-1.009490966796875,-0.080657958984375,-0.0261077880859375
1751013937834003200,9.857003173828126,-1.0061187744140625,-0.0792999267578125,-0.028778076171875
1751013937843947300,9.866947265625,-1.0103607177734375,-0.0793609619140625,-0.0283050537109375
1751013937853890300,9.876890380859376,-1.01385498046875,-0.0819854736328125,-0.0355682373046875
1751013937863834000,9.886834228515625,-1.0145263671875,-0.07965087890625,-0.03363037109375
1751013937873778200,9.896778076171875,-1.01519775390625,-0.079376220703125,-0.0328826904296875
1751013937883721200,9.90672119140625,-1.01507568359375,-0.0767059326171875,-0.0335235595703125
1751013937893665000,9.9166650390625,-1.0182647705078125,-0.0721435546875,-0.0327301025390625
1751013937903609300,9.926609375,-1.023193359375,-0.0701904296875,-0.032135009765625
1751013937913552400,9.936552490234375,-1.02435302734375,-0.068359375,-0.03289794921875
1751013937923496200,9.94649609375,-1.0238037109375,-0.06744384765625,-0.0346221923828125
1751013937933439200,9.956439208984374,-1.0238800048828125,-0.068023681640625,-0.035186767578125
1751013937943383300,9.96638330078125,-1.02447509765625,-0.0662841796875,-0.035003662109375
1751013937953327000,9.9763271484375,-1.021240234375,-0.067108154296875,-0.0340423583984375
1751013937963270100,9.986270263671875,-1.0193023681640625,-0.0712127685546875,-0.0331573486328125
1751013937973214200,9.996214111328126,-1.0170745849609375,-0.0716552734375,-0.0325775146484375
1751013937983158000,10.006157958984375,-1.01605224609375,-0.0754241943359375,-0.0338134765625
1751013937993101000,10.01610107421875,-1.016998291015625,-0.0802154541015625,-0.03338623046875
1751013938003045000,10.026045166015624,-1.016937255859375,-0.080657958984375,-0.0323638916015625
1751013938012988200,10.03598828125,-1.018310546875,-0.0775299072265625,-0.0310516357421875
1751013938022932200,10.04593212890625,-1.0129547119140625,-0.076690673828125,-0.0286865234375
1751013938032876300,10.055876220703125,-1.00262451171875,-0.076751708984375,-0.0272674560546875
1751013938042819300,10.0658193359375,-0.9994659423828125,-0.0743255615234375,-0.0261688232421875
1751013938052763100,10.07576318359375,-1.000030517578125,-0.071014404296875,-0.026458740234375
1751013938062706200,10.0857060546875,-0.998626708984375,-0.07025146484375,-0.0266571044921875
1751013938072650200,10.095650146484376,-0.999603271484375,-0.07330322265625,-0.0269927978515625
1751013938082594000,10.105593994140625,-1.0009307861328125,-0.078521728515625,-0.0292816162109375
1751013938092537000,10.115537109375,-1.0054779052734375,-0.0829010009765625,-0.0254364013671875
1751013938102481200,10.125481201171874,-1.0149078369140625,-0.0859222412109375,-0.025848388671875
1751013938112425200,10.13542529296875,-1.0177764892578125,-0.0850372314453125,-0.02642822265625
1751013938122368000,10.145367919921876,-1.0168609619140625,-0.080902099609375,-0.027587890625
1751013938132312300,10.155312255859375,-1.01593017578125,-0.0743408203125,-0.0286407470703125
1751013938142256400,10.16525634765625,-1.0155792236328125,-0.067596435546875,-0.0293426513671875
1751013938152199200,10.17519921875,-1.0193939208984375,-0.063018798828125,-0.031951904296875
1751013938162143200,10.185143310546875,-1.02008056640625,-0.0598907470703125,-0.0327606201171875
1751013938172086300,10.195086181640624,-1.016357421875,-0.05828857421875,-0.0318450927734375
1751013938182030000,10.205030029296875,-1.0103302001953125,-0.06060791015625,-0.0323944091796875
1751013938191974100,10.21497412109375,-1.0075225830078125,-0.0631103515625,-0.02880859375
1751013938201917200,10.224917236328125,-1.01031494140625,-0.06927490234375,-0.029327392578125
1751013938211861200,10.234861328125,-1.0124359130859375,-0.075286865234375,-0.0322113037109375
1751013938221805000,10.24480517578125,-1.011962890625,-0.0801239013671875,-0.03192138671875
1751013938231748000,10.254748046875,-1.00885009765625,-0.0824737548828125,-0.030059814453125
1751013938241692400,10.2646923828125,-1.0102386474609375,-0.081207275390625,-0.0284576416015625
1751013938251635200,10.27463525390625,-1.0074615478515625,-0.0785369873046875,-0.02618408203125
1751013938261579300,10.284579345703126,-1.001983642578125,-0.074066162109375,-0.02471923828125
1751013938271523300,10.2945234375,-1.0016632080078125,-0.0682830810546875,-0.02459716796875
1751013938281466400,10.30446630859375,-1.00299072265625,-0.0635833740234375,-0.025115966796875
1751013938291410200,10.31441015625,-1.0066070556640625,-0.064483642578125,-0.027862548828125
1751013938301353200,10.324353271484375,-1.0095062255859375,-0.0652008056640625,-0.0286102294921875
1751013938311297300,10.33429736328125,-1.011383056640625,-0.065673828125,-0.029144287109375
1751013938321241000,10.344240966796875,-1.0154876708984375,-0.070159912109375,-0.032012939453125
1751013938331184000,10.35418408203125,-1.015716552734375,-0.07452392578125,-0.0335540771484375
1751013938341128200,10.364128173828124,-1.01617431640625,-0.073760986328125,-0.0308074951171875
1751013938351072300,10.374072265625,-1.0136260986328125,-0.0719451904296875,-0.026824951171875
1751013938361015000,10.38401513671875,-1.0087432861328125,-0.073760986328125,-0.024017333984375
1751013938370959400,10.39395947265625,-1.0082855224609375,-0.0733184814453125,-0.0222625732421875
1751013938380902400,10.40390234375,-1.0060577392578125,-0.070770263671875,-0.0233154296875
1751013938390846200,10.41384619140625,-1.003204345703125,-0.06951904296875,-0.0243377685546875
1751013938400790300,10.423790283203125,-1.0022430419921875,-0.06927490234375,-0.0258331298828125
1751013938410733300,10.4337333984375,-1.00604248046875,-0.0682525634765625,-0.026397705078125
1751013938420677000,10.443677001953125,-1.008453369140625,-0.0654754638671875,-0.026611328125
1751013938430621200,10.45362109375,-1.00494384765625,-0.0653076171875,-0.0312957763671875
1751013938440564200,10.463564208984375,-1.004547119140625,-0.0681915283203125,-0.032623291015625
1751013938450508000,10.473508056640625,-1.006927490234375,-0.07086181640625,-0.0317230224609375
1751013938460451000,10.483451171875,-1.0108642578125,-0.0716094970703125,-0.02850341796875
1751013938470395100,10.49339501953125,-1.0143890380859375,-0.0705718994140625,-0.0288543701171875
1751013938480339200,10.503339111328126,-1.0117645263671875,-0.0691986083984375,-0.0287628173828125
1751013938490282200,10.5132822265625,-1.0116119384765625,-0.0660858154296875,-0.0318756103515625
1751013938500226300,10.523226318359375,-1.0151824951171875,-0.0675048828125,-0.0359954833984375
1751013938510170000,10.533170166015625,-1.0176849365234375,-0.0713653564453125,-0.0376129150390625
1751013938520113200,10.543113037109375,-1.017120361328125,-0.0715484619140625,-0.03375244140625
1751013938530057200,10.55305712890625,-1.0175933837890625,-0.06707763671875,-0.0247802734375
1751013938540000300,10.563000244140625,-1.013275146484375,-0.065460205078125,-0.022613525390625
1751013938549944000,10.572944091796876,-1.009307861328125,-0.0665130615234375,-0.02618408203125
1751013938559888100,10.58288818359375,-1.0146942138671875,-0.0677337646484375,-0.025970458984375
1751013938569831200,10.5928310546875,-1.0194854736328125,-0.0676727294921875,-0.0277252197265625
1751013938579775000,10.60277490234375,-1.0232391357421875,-0.0661773681640625,-0.0323944091796875
1751013938589719300,10.61271923828125,-1.024688720703125,-0.0662994384765625,-0.036590576171875
1751013938599662300,10.622662353515626,-1.023284912109375,-0.0646209716796875,-0.03814697265625
1751013938609606100,10.632606201171875,-1.020477294921875,-0.06060791015625,-0.033966064453125
1751013938619549200,10.642549072265625,-1.0152130126953125,-0.056243896484375,-0.0279541015625
1751013938629493200,10.6524931640625,-1.012908935546875,-0.053253173828125,-0.0269622802734375
1751013938639437300,10.662437255859375,-1.0137939453125,-0.05450439453125,-0.024749755859375
1751013938649380000,10.672380126953126,-1.01519775390625,-0.058868408203125,-0.0242462158203125
1751013938659324200,10.68232421875,-1.010986328125,-0.065277099609375,-0.02545166015625
1751013938669268200,10.692268310546876,-1.0057373046875,-0.06884765625,-0.028778076171875
1751013938679211300,10.702211181640624,-0.9993896484375,-0.0675048828125,-0.027557373046875
1751013938689155000,10.712155029296875,-0.9930419921875,-0.0676727294921875,-0.017333984375
1751013938699098000,10.72209814453125,-0.9035797119140625,-0.06805419921875,0.0014801025390625
1751013938709042400,10.73204248046875,-0.95111083984375,-0.068450927734375,0.01702880859375
1751013938718986200,10.741986328125,-1.082733154296875,-0.06683349609375,0.0057830810546875
1751013938728929300,10.75192919921875,-1.0101470947265625,-0.0551910400390625,-0.0279541015625
1751013938738873300,10.761873291015625,-0.9940032958984375,-0.07110595703125,-0.0423583984375
1751013938748817200,10.771817138671874,-1.0285186767578125,-0.0838775634765625,-0.026214599609375
1751013938758760200,10.78176025390625,-1.0268096923828125,-0.080810546875,-0.02197265625
1751013938768704300,10.791704345703126,-1.0238494873046875,-0.07464599609375,-0.030029296875
1751013938778647300,10.801647216796875,-1.02362060546875,-0.0696868896484375,-0.032073974609375
1751013938788591000,10.811591064453125,-1.0072021484375,-0.06439208984375,-0.024658203125
