time,seconds_elapsed,z,y,x
1751013928094248000,0.117248046875,0.03203090280294418,-0.05944095551967621,-0.008629174903035164
1751013928104190700,0.127190673828125,0.02435913495719433,-0.05367894098162651,-0.03957750275731087
1751013928114134800,0.137134765625,0.033971816301345825,-0.04223427176475525,-0.04675951600074768
1751013928124077800,0.147077880859375,0.04235650971531868,-0.029343241825699806,-0.03533348813652992
1751013928134021600,0.157021728515625,0.04217861220240593,-0.009922938421368599,-0.011829229071736336
1751013928143965700,0.166965576171875,0.04969804733991623,-0.0002487392339389771,0.01756328158080578
1751013928153908700,0.17690869140625,0.06570710986852646,0.010480604134500027,0.04108858108520508
1751013928163853000,0.18685302734375,0.0783027932047844,-0.017901236191391945,0.06781633198261261
1751013928173795600,0.196795654296875,0.06051900237798691,-0.048336371779441833,0.08022160083055496
1751013928183740000,0.206739990234375,0.02189890667796135,-0.06888878345489502,0.07182465493679047
1751013928193683000,0.216682861328125,-0.002900714986026287,-0.08011294156312943,0.056293100118637085
1751013928203626800,0.226626708984375,-0.013601030223071575,-0.08395109325647354,0.043174367398023605
1751013928213570800,0.23657080078125,-0.013859356753528118,-0.0763472318649292,0.03758945316076279
1751013928223513900,0.246513916015625,-0.011108044534921646,-0.08455376327037811,0.04002411663532257
1751013928233458000,0.2564580078125,-0.01131257601082325,-0.09948504716157913,0.04844396561384201
1751013928243400700,0.266400634765625,-0.012309396639466286,-0.10745774954557419,0.05700176581740379
1751013928253344800,0.2763447265625,-0.007400125730782747,-0.09897318482398987,0.04939205199480057
1751013928263288800,0.286288818359375,-0.00418276060372591,-0.09706795960664749,0.021449098363518715
1751013928273232000,0.29623193359375,0.0035143073182553053,-0.08644567430019379,-0.017137175425887108
1751013928283175700,0.30617578125,0.021502362564206123,-0.06703362613916397,-0.040117859840393066
1751013928293118700,0.31611865234375,0.04631956294178963,-0.038356974720954895,-0.03879719600081444
1751013928303063000,0.32606298828125,0.0697692260146141,-0.0059540290385484695,-0.018609903752803802
1751013928313005800,0.336005859375,0.0842653438448906,0.020681044086813927,0.011663047596812248
1751013928322950000,0.345949951171875,0.09098663181066513,0.03527756407856941,0.04117646440863609
1751013928332894000,0.35589404296875,0.09777556359767914,0.036197952926158905,0.059483300894498825
1751013928342836700,0.365836669921875,0.09801924228668213,0.03027454949915409,0.08035369217395782
1751013928352780800,0.37578076171875,0.09462051838636398,0.03429725393652916,0.08790535479784012
1751013928362723800,0.385723876953125,0.08575458824634552,0.03194515034556389,0.0874646008014679
1751013928372668000,0.39566796875,0.06812579184770584,0.03605946898460388,0.06286285072565079
1751013928382610700,0.405610595703125,0.045949116349220276,0.04544071853160858,0.03744591027498245
1751013928392554800,0.4155546875,0.02226029895246029,0.05307547003030777,0.008496282622218132
1751013928402498800,0.425498779296875,-0.00040986048406921327,0.07191493362188339,-0.015390141867101192
1751013928412441900,0.43544189453125,-0.008933041244745255,0.09424634277820587,-0.015745939686894417
1751013928422386000,0.445385986328125,-0.016978450119495392,0.1246042475104332,0.004165183752775192
1751013928432328700,0.45532861328125,-0.014676148071885109,0.13723374903202057,0.026390062645077705
1751013928442273000,0.46527294921875,-0.010922688990831375,0.12988290190696716,0.03604482114315033
1751013928452216800,0.475216796875,-0.007080812472850084,0.1081957146525383,0.0266028493642807
1751013928462160000,0.485159912109375,-0.004986236337572336,0.08487414568662643,0.008116249926388264
1751013928472104000,0.49510400390625,-0.02166055515408516,0.05403287336230278,-0.024020647630095482
1751013928482046700,0.505046630859375,-0.03711434453725815,0.012337625958025455,-0.0511004701256752
1751013928491990800,0.51499072265625,-0.05469813197851181,-0.020358001813292503,-0.0550166480243206
1751013928501933800,0.524933837890625,-0.06651590764522552,-0.03002660907804966,-0.041184186935424805
1751013928511878000,0.5348779296875,-0.07119588553905487,-0.033185917884111404,-0.00914422981441021
1751013928521821700,0.54482177734375,-0.06203487515449524,-0.03327859565615654,0.015597601421177387
1751013928531764700,0.5547646484375,-0.052434712648391724,-0.02839701995253563,0.035047996789216995
1751013928541708800,0.564708740234375,-0.04724234715104103,-0.025768479332327843,0.02773149684071541
1751013928551651800,0.57465185546875,-0.04015567526221275,-0.02281157299876213,0.007604656275361776
1751013928561596000,0.584595947265625,-0.02526967041194439,-0.015423431061208248,-0.012120578438043594
1751013928571539000,0.5945390625,-0.008889631368219852,-0.01383964903652668,-0.028171982616186142
1751013928581483000,0.60448291015625,-0.0038839541375637054,-0.019103653728961945,-0.02972673624753952
1751013928591426800,0.6144267578125,-0.00261868629604578,-0.018062623217701912,-0.010450243949890137
1751013928601369900,0.624369873046875,-0.003635747591033578,-0.014336328953504562,0.020805945619940758
1751013928611314000,0.63431396484375,-0.013256150297820568,-0.006971622817218304,0.04526734724640846
1751013928621256700,0.644256591796875,-0.016040218994021416,0.003041063668206334,0.05249356850981712
1751013928631200800,0.65420068359375,-0.006099704187363386,0.02563079446554184,0.048650626093149185
1751013928641144800,0.664144775390625,0.0106491819024086,0.05443954095244408,0.047690555453300476
1751013928651088000,0.674087890625,0.03387807309627533,0.07499461621046066,0.05578496679663658
1751013928661031700,0.68403173828125,0.038841139525175095,0.07764659076929092,0.07438501715660095
1751013928670974700,0.693974609375,0.018823489546775818,0.0679074078798294,0.09693720191717148
1751013928680919000,0.7039189453125,-0.007890946231782436,0.04913745075464249,0.10918161273002625
1751013928690861800,0.71386181640625,-0.030179740861058235,0.01817500963807106,0.09286389499902725
1751013928700806000,0.723805908203125,-0.04501541331410408,-0.01522715575993061,0.05312047526240349
1751013928710750000,0.73375,-0.0543346107006073,-0.04161535203456879,0.0006106628570705652
1751013928720693000,0.74369287109375,-0.05818767100572586,-0.058045726269483566,-0.05176865682005882
1751013928730636800,0.75363671875,-0.057435594499111176,-0.05602465197443962,-0.08550531417131424
1751013928740579800,0.763579833984375,-0.052795834839344025,-0.04394322261214256,-0.09306549280881882
1751013928750524000,0.77352392578125,-0.04905515909194946,-0.028778119012713432,-0.07065659016370773
1751013928760466700,0.783466796875,-0.040939975529909134,-0.011787150986492634,-0.03574095293879509
1751013928770410800,0.79341064453125,-0.032107602804899216,0.003239735495299101,0.008978581055998802
1751013928780354800,0.803354736328125,-0.01805063895881176,0.006537261418998241,0.041735995560884476
1751013928790297900,0.8132978515625,-0.004403270315378904,0.010193249210715294,0.06005481630563736
1751013928800241700,0.82324169921875,0.0017030915478244424,-0.004668254870921373,0.0648660808801651
1751013928810184700,0.833184814453125,-0.0028692898340523243,-0.01721760258078575,0.06430628150701523
1751013928820129500,0.843129638671875,-0.00030413299100473523,-0.016655409708619118,0.06314248591661453
1751013928830073600,0.853073486328125,0.0068144965916872025,-0.004276237916201353,0.06389722228050232
1751013928840016600,0.8630166015625,0.01998462714254856,0.008794024586677551,0.04706471413373947
1751013928849960400,0.87296044921875,0.022533804178237915,0.009505621157586575,0.028388764709234238
1751013928859903500,0.882903564453125,0.028671858832240105,0.0068211546167731285,0.024267788976430893
1751013928869847600,0.89284765625,0.03177950158715248,0.02009754441678524,0.03225194662809372
1751013928879790600,0.90279052734375,0.029197566211223602,0.02105095610022545,0.02515648491680622
1751013928889734400,0.912734375,0.019091935828328133,0.009213471785187721,0.007162838242948055
1751013928899678700,0.9226787109375,0.0021992383990436792,-0.015844743698835373,-0.010211891494691372
1751013928909621800,0.932621826171875,-0.01732572726905346,-0.0329587496817112,-0.006878678686916828
1751013928919565600,0.942565673828125,-0.026545323431491852,-0.04045021906495094,0.014311561360955238
1751013928929508600,0.952508544921875,-0.02473091334104538,-0.04222521930932999,0.044185835868120193
1751013928939452700,0.96245263671875,-0.011463843286037445,-0.042869169265031815,0.06753696501255035
1751013928949395700,0.972395751953125,0.004089283756911755,-0.034508440643548965,0.07759039849042892
1751013928959339500,0.982339599609375,0.017053818330168724,-0.017586451023817062,0.06227748841047287
1751013928969283600,0.99228369140625,0.02720365859568119,-0.005256014876067638,0.036494627594947815
1751013928979226600,1.0022265625,0.027667313814163208,0.0020154803059995174,0.006922887172549963
1751013928989170400,1.01217041015625,0.02213246561586857,0.0022114890161901712,-0.01272964384406805
1751013928999113500,1.022113525390625,0.011813249439001083,-0.0017156084068119526,-0.011624963954091072
1751013929009057500,1.0320576171875,-0.00023089606838766485,-0.017944378778338432,0.005357214715331793
1751013929019001600,1.042001708984375,-0.011744540184736252,-0.04009069502353668,0.02503903955221176
1751013929028944400,1.0519443359375,-0.014565360732376575,-0.06220505014061928,0.0661124438047409
1751013929038888700,1.061888671875,-0.015329687856137753,-0.07809613645076752,0.11244478821754456
1751013929048831700,1.071831787109375,-0.018447451293468475,-0.06728822737932205,0.16539135575294495
1751013929058775600,1.081775634765625,-0.01877155713737011,-0.043425239622592926,0.20324952900409698
1751013929068718600,1.091718505859375,-0.012406868860125542,-0.018156899139285088,0.20653720200061798
1751013929078662700,1.10166259765625,0.0008554073283448815,0.006322877015918493,0.18472351133823395
1751013929088606700,1.111606689453125,0.011565842665731907,0.027269704267382622,0.1357991099357605
1751013929098549500,1.121549560546875,0.02286883071064949,0.030818365514278412,0.06396247446537018
1751013929108493600,1.13149365234375,0.032884713262319565,0.019954798743128777,-0.00606375141069293
1751013929118436600,1.1414365234375,0.028923792764544487,-0.0014138722326606512,-0.06459390372037888
1751013929128380400,1.15138037109375,0.014275075867772102,-0.007662713527679443,-0.10973315685987473
1751013929138324500,1.161324462890625,-0.006643255241215229,-0.007948470301926136,-0.12816515564918518
1751013929148267500,1.171267578125,-0.021509019657969475,-0.007104780990630388,-0.12540745735168457
1751013929158211600,1.181211669921875,-0.03816523030400276,-0.008408398367464542,-0.10723484307527542
1751013929168154600,1.191154541015625,-0.054492004215717316,-0.01073626708239317,-0.07807589322328568
1751013929178098700,1.2010986328125,-0.05739378556609154,-0.006592122372239828,-0.040824130177497864
1751013929188041700,1.211041748046875,-0.04192508012056351,0.006764961872249842,-0.006113019771873951
1751013929197985500,1.220985595703125,-0.02058170735836029,0.018067151308059692,0.020782776176929474
1751013929207929600,1.2309296875,0.006112753413617611,0.030073747038841248,0.039677638560533524
1751013929217872600,1.24087255859375,0.029815953224897385,0.049138251692056656,0.047739025205373764
1751013929227816700,1.250816650390625,0.046485744416713715,0.057128533720970154,0.03127802908420563
1751013929237759500,1.260759521484375,0.050876230001449585,0.06148839369416237,-0.004738030023872852
1751013929247703600,1.27070361328125,0.06017039716243744,0.0677414983510971,-0.04037059098482132
1751013929257647600,1.280647705078125,0.056408412754535675,0.06622376292943954,-0.06107267364859581
1751013929267590400,1.29059033203125,0.04397810995578766,0.0637693926692009,-0.07768094539642334
1751013929277534700,1.30053466796875,0.025165008381009102,0.056889381259679794,-0.0730758085846901
1751013929287477500,1.3104775390625,0.015899071469902992,0.038430746644735336,-0.05685555934906006
1751013929297421600,1.320421630859375,0.011518171988427639,0.015243933536112309,-0.03333212435245514
1751013929307364600,1.330364501953125,-0.0015994944842532277,-0.004180630203336477,-0.0025571673177182674
1751013929317308700,1.34030859375,-0.010685134679079056,-0.016141152009367943,0.019360648468136787
1751013929327252700,1.350252685546875,-0.015981096774339676,-0.02388775534927845,0.03293051943182945
1751013929337195500,1.360195556640625,-0.01599947363138199,-0.01846129819750786,0.033732928335666656
1751013929347139600,1.3701396484375,-0.013521667569875717,-0.0007491472060792148,0.03593616187572479
1751013929357082600,1.38008251953125,-0.004099936690181494,0.023724770173430443,0.025773806497454643
1751013929367026700,1.390026611328125,0.003763579297810793,0.046188801527023315,0.007622765842825174
1751013929376970500,1.399970458984375,0.007816644385457039,0.058447595685720444,-0.01913481205701828
1751013929386913500,1.40991357421875,0.020189689472317696,0.05865319445729256,-0.03845924139022827
1751013929396857600,1.419857666015625,0.022758575156331062,0.05360330641269684,-0.04808523878455162
1751013929406800400,1.42980029296875,0.019218435510993004,0.042037732899188995,-0.04595577344298363
1751013929416744700,1.43974462890625,0.009649431332945824,0.02159637212753296,-0.037459224462509155
1751013929426687700,1.449687744140625,0.0009816411184147,0.005798234138637781,-0.015805061906576157
1751013929436631600,1.459631591796875,-0.008524778299033642,-0.00848749466240406,0.008197742514312267
1751013929446575600,1.46957568359375,-0.013817012310028076,-0.006874151527881622,0.04061293974518776
1751013929456518700,1.4795185546875,-0.020789435133337975,-0.00010279801790602505,0.05602225661277771
1751013929466462700,1.489462646484375,-0.01931803859770298,0.0031899344176054,0.06112700328230858
1751013929476405500,1.499405517578125,-0.014541924931108952,0.008770854212343693,0.05751043185591698
1751013929486349600,1.509349609375,0.00321949552744627,0.025500033050775528,0.04963333159685135
1751013929496293600,1.519293701171875,0.017307616770267487,0.05046903342008591,0.025408420711755753
1751013929506236700,1.529236572265625,0.033542778342962265,0.05439293384552002,-0.000639424950350076
1751013929516180500,1.539180419921875,0.03972850367426872,0.0519244484603405,-0.029265742748975754
1751013929526123500,1.54912353515625,0.0383220873773098,0.04072638973593712,-0.03380909562110901
1751013929536067800,1.55906787109375,0.024769261479377747,0.01822507567703724,-0.031429827213287354
1751013929546010400,1.56901025390625,-0.007901865057647228,-0.011231082491576672,-0.023433154448866844
1751013929555954700,1.57895458984375,-0.0411362498998642,-0.036737773567438126,-0.012850817292928696
1751013929565898800,1.588898681640625,-0.058332014828920364,-0.045525673776865005,0.0062549663707613945
1751013929575841800,1.598841796875,-0.06296032667160034,-0.022731145843863487,0.02514769695699215
1751013929585785600,1.60878564453125,-0.04249632731080055,0.007811051327735186,0.02846013754606247
1751013929595728600,1.618728759765625,-0.010143447667360306,0.03226632624864578,0.015104650519788265
1751013929605672700,1.628672607421875,0.017708955332636833,0.053172141313552856,-0.0030008498579263687
1751013929615616500,1.638616455078125,0.03603949397802353,0.0653901919722557,-0.02787157893180847
1751013929625559600,1.6485595703125,0.0332128144800663,0.056055281311273575,-0.0476711168885231
1751013929635503600,1.658503662109375,0.020502079278230667,0.03970346972346306,-0.05645129084587097
1751013929645446700,1.66844677734375,0.004822984803467989,0.021693045273423195,-0.049491651356220245
1751013929655390500,1.678390380859375,-0.014931545592844486,0.0034357442054897547,-0.03032514825463295
1751013929665334800,1.688334716796875,-0.03099413402378559,-0.006884537637233734,-0.009699499234557152
1751013929675277800,1.69827783203125,-0.029979471117258072,-0.009700031951069832,0.0019835224375128746
1751013929685221600,1.7082216796875,-0.019758524373173714,-0.011670504696667194,0.0054277884773910046
1751013929695164700,1.71816455078125,-0.005608084611594677,-0.010675281286239624,0.0002591255761217326
1751013929705108700,1.728108642578125,-0.00019334549142513424,-0.004394215997308493,-0.01774863712489605
1751013929715051800,1.7380517578125,0.009377788752317429,0.011170363053679466,-0.03786296024918556
1751013929724995600,1.74799560546875,0.02100967802107334,0.025845978409051895,-0.05187598243355751
1751013929734939600,1.757939697265625,0.02888011746108532,0.0335017666220665,-0.06167241930961609
1751013929744882700,1.767882568359375,0.021799838170409203,0.039798811078071594,-0.05361635610461235
1751013929754826500,1.777826416015625,0.015894010663032532,0.04373443126678467,-0.038001712411642075
1751013929764769500,1.78776953125,0.012691826559603214,0.0400046743452549,-0.016681242734193802
1751013929774713600,1.797713623046875,0.015204785391688347,0.028971197083592415,-0.010142115876078606
1751013929784657700,1.80765771484375,0.013686517253518105,0.007861385121941566,-0.009260609745979309
1751013929794600700,1.8176005859375,0.005820604972541332,-0.006840861868113279,-0.014727280475199223
1751013929804544800,1.827544677734375,-0.003486876841634512,-0.014688665047287941,-0.015207448974251747
1751013929814487800,1.83748779296875,-0.0041374871507287025,-0.01618935540318489,-0.015028484165668488
1751013929824431400,1.847431396484375,0.0024431839119642973,-0.013342437334358692,-0.00891200266778469
1751013929834374400,1.85737451171875,0.009891779161989689,-0.004494084510952234,0.0006266417913138866
1751013929844318500,1.867318359375,0.022342590615153313,0.0041364217177033424,0.001528920722194016
1751013929854262300,1.87726220703125,0.02671683207154274,0.0023188143968582153,0.004173972178250551
1751013929864205300,1.887205322265625,0.029027391225099564,0.005771602503955364,0.00040533312130719423
1751013929874149400,1.8971494140625,0.030777620151638985,0.009138104505836964,-0.0044048684649169445
1751013929884092400,1.907092529296875,0.034262098371982574,0.02106986567378044,-0.011712316423654556
1751013929894036200,1.9170361328125,0.027992751449346542,0.024716798216104507,-0.035882368683815
1751013929903980300,1.926980224609375,0.02111860178411007,0.01324017159640789,-0.06711432337760925
1751013929913923300,1.93692333984375,0.009648632258176804,0.004662662278860807,-0.08554739505052567
1751013929923867100,1.9468671875,0.004750280175358057,-0.000180029688635841,-0.08056514710187912
1751013929933810200,1.95681005859375,0.0015140071045607328,0.005471197888255119,-0.04321085289120674
1751013929943754500,1.96675439453125,-0.004820588044822216,0.009149556048214436,-0.0011379687348380685
1751013929953697300,1.976697265625,-0.01503833755850792,0.008019843138754368,0.03543974831700325
1751013929963641300,1.986641357421875,-0.009011338464915752,0.01558401994407177,0.06199093163013458
1751013929973585400,1.99658544921875,0.0015217302134260535,0.027526965364813805,0.06607675552368164
1751013929983528400,2.006528564453125,0.011211375705897808,0.03520965203642845,0.047808799892663956
1751013929993472300,2.01647216796875,0.011897938326001167,0.03829439356923103,0.016084160655736923
1751013930003415300,2.026415283203125,0.009303753264248371,0.04532061144709587,-0.00410419749096036
1751013930013359400,2.036359375,0.014021010138094425,0.06751406192779541,-0.016005864366889
1751013930023303200,2.04630322265625,0.010391920804977417,0.07729744911193848,-0.020053336396813393
1751013930033246200,2.05624609375,0.008469118736684322,0.07815339416265488,-0.021925006061792374
1751013930043190300,2.066190185546875,-0.001484712352976203,0.07129042595624924,-0.0390336848795414
1751013930053133300,2.07613330078125,-0.01732546091079712,0.05343020334839821,-0.06004815548658371
1751013930063077000,2.0860771484375,-0.030605312436819077,0.03406795486807823,-0.08254361152648926
1751013930073021400,2.096021484375,-0.036728452891111374,0.017461813986301422,-0.08250685781240463
1751013930082964500,2.105964599609375,-0.041426800191402435,0.0070525831542909145,-0.06565117835998535
1751013930092908300,2.115908203125,-0.04369421675801277,0.0013928331900388002,-0.03459153324365616
1751013930102851300,2.125851318359375,-0.03779078647494316,-0.00663393409922719,0.006857373286038637
1751013930112795400,2.13579541015625,-0.028798358514904976,-0.006246977020055056,0.04917793348431587
1751013930122739200,2.1457392578125,-0.015862319618463516,0.0014056164072826505,0.06850636005401611
1751013930132682200,2.15568212890625,-0.0035457327030599117,0.00523790530860424,0.07283585518598557
1751013930142626300,2.165626220703125,0.006718622520565987,0.013246296904981136,0.05674770101904869
1751013930152569300,2.1755693359375,0.0070070428773760796,0.008346080780029297,0.024502679705619812
1751013930162513200,2.18551318359375,0.00449861166998744,0.00555056007578969,-0.0187209565192461
1751013930172456200,2.195456298828125,-0.000600809114985168,0.005123389419168234,-0.055098939687013626
1751013930182400300,2.205400146484375,0.0005912217311561108,0.008146876469254494,-0.08373937010765076
1751013930192344300,2.21534423828125,-0.014657239429652691,-0.0015198660548776388,-0.09683200716972351
1751013930202287400,2.225287353515625,-0.031633827835321426,-0.017361413687467575,-0.09121779352426529
1751013930212231400,2.2352314453125,-0.05411276966333389,-0.018245583400130272,-0.08080669492483139
1751013930222174500,2.245174560546875,-0.07011623680591583,-0.007839014753699303,-0.07335411012172699
1751013930232118300,2.2551181640625,-0.0655241459608078,0.0044171190820634365,-0.06997855007648468
1751013930242062300,2.265062255859375,-0.057228934019804,0.013979198411107063,-0.055028632283210754
1751013930252005400,2.27500537109375,-0.043663591146469116,0.03502056747674942,-0.0327472947537899
1751013930261949200,2.28494921875,-0.029465479776263237,0.067685566842556,-0.006445115897804499
1751013930271892200,2.294892333984375,-0.012490491382777691,0.08829817175865173,0.008183627389371395
1751013930281836300,2.304836181640625,0.0035515916533768177,0.10129199922084808,0.010843859054148197
1751013930291780400,2.3147802734375,-0.000045273736759554595,0.09760751575231552,-0.008331965655088425
1751013930301723100,2.32472314453125,-0.010613761842250824,0.08011667430400848,-0.03899826481938362
1751013930311667200,2.334667236328125,-0.023248331621289253,0.06137334555387497,-0.07568224519491196
1751013930321610200,2.3446103515625,-0.030892135575413704,0.044686246663331985,-0.09201940894126892
1751013930331554300,2.35455419921875,-0.037755101919174194,0.034992869943380356,-0.08776766806840897
1751013930341497300,2.364497314453125,-0.03869093582034111,0.03295821696519852,-0.062726229429245
1751013930351441400,2.37444140625,-0.03785470500588417,0.03515053167939186,-0.023093068972229958
1751013930361385500,2.384385498046875,-0.026548786088824272,0.0374259352684021,0.01673823408782482
1751013930371328300,2.394328369140625,-0.025422003120183945,0.036129508167505264,0.041190579533576965
1751013930381272300,2.404272216796875,-0.018557438626885414,0.03209215775132179,0.03838520497083664
1751013930391215400,2.41421533203125,-0.014483601786196232,0.02935709059238434,0.0198618546128273
1751013930401159200,2.4241591796875,-0.011011905036866665,0.019696205854415894,-0.013560283929109573
1751013930411103200,2.434103271484375,-0.009693906642496586,0.015490276739001274,-0.04548892006278038
1751013930421046300,2.44404638671875,-0.016097210347652435,0.009674465283751488,-0.06535423547029495
1751013930430990300,2.453990234375,-0.019707923755049706,0.007306915242224932,-0.07032742351293564
1751013930440933000,2.46393310546875,-0.024098677560687065,0.00869149249047041,-0.057137057185173035
1751013930450877400,2.47387744140625,-0.038233138620853424,0.010636931285262108,-0.048111334443092346
1751013930460821500,2.483821533203125,-0.03867682069540024,0.012621785514056683,-0.038473889231681824
1751013930470764300,2.493764404296875,-0.03783899173140526,0.01738990843296051,-0.02172207273542881
1751013930480708400,2.503708251953125,-0.03388286381959915,0.022834209725260735,-0.003547064261510968
1751013930490651400,2.5136513671875,-0.028852153569459915,0.02400599978864193,0.013827664777636528
1751013930500595500,2.523595458984375,-0.017247961834073067,0.031131820753216743,0.0272675734013319
1751013930510538200,2.533538330078125,-0.006712231319397688,0.03629196062684059,0.018384600058197975
1751013930520482300,2.543482421875,-0.0017891116440296173,0.03351668268442154,0.002552373567596078
1751013930530426400,2.55342626953125,0.005293831694871187,0.03400057554244995,-0.01846848987042904
1751013930540369200,2.563369140625,0.0022024342324584723,0.03116218000650406,-0.030303044244647026
1751013930550313200,2.573313232421875,-0.005425658077001572,0.02058517001569271,-0.036137763410806656
1751013930560256300,2.58325634765625,-0.009101885370910168,0.014537663199007511,-0.02484702691435814
1751013930570200300,2.593200439453125,-0.015964584425091743,0.006899984087795019,-0.005015264730900526
1751013930580144400,2.603144287109375,-0.029158150777220726,0.007446730975061655,0.00993119366466999
1751013930590087400,2.61308740234375,-0.030759509652853012,0.0070363376289606094,0.014749917201697826
1751013930600031500,2.623031494140625,-0.021954301744699478,0.001431182725355029,0.01792174205183983
1751013930609974300,2.632974365234375,-0.019093001261353493,0.00336090917699039,0.011737615801393986
1751013930619918300,2.64291845703125,-0.021015003323554993,0.007786816451698542,-0.008988169021904469
1751013930629862400,2.6528623046875,-0.018144648522138596,0.002918824553489685,-0.024697089567780495
1751013930639805400,2.662805419921875,-0.017703896388411522,-0.01022893562912941,-0.04077965393662453
1751013930649749200,2.672749267578125,-0.015750734135508537,-0.013650298118591309,-0.03957111015915871
1751013930659692300,2.6826923828125,-0.003961718175560236,-0.010645986534655094,-0.022782277315855026
1751013930669636400,2.69263623046875,0.00185036426410079,-0.0054666707292199135,-0.00026312030968256295
1751013930679580200,2.702580078125,0.0003283677506260574,-0.004832572303712368,0.013883325271308422
1751013930689523200,2.712523193359375,-0.003710316028445959,0.004179831128567457,0.0156119829043746
1751013930699467500,2.722467529296875,0.0015299860388040543,0.013458018191158772,0.007407050114125013
1751013930709410300,2.732410400390625,0.0023513049818575382,0.010185525752604008,-0.0002162486780434847
1751013930719354400,2.742354248046875,-0.004831506870687008,-0.006097573786973953,-0.01666499674320221
1751013930729297400,2.75229736328125,-0.01257944107055664,-0.01818060129880905,-0.022474149242043495
1751013930739241500,2.762241455078125,-0.009660882875323296,-0.020294886082410812,-0.010632137767970562
1751013930749185300,2.772185302734375,0.0027150926180183887,-0.019582489505410194,0.009758088737726212
1751013930759128300,2.78212841796875,0.00029534456552937627,-0.018628278747200966,0.020323913544416428
1751013930769072400,2.792072265625,-0.004524444229900837,-0.008469917811453342,0.014254570007324219
1751013930779015400,2.802015380859375,0.007542870938777924,0.00430233683437109,0.0029473204631358385
1751013930788959200,2.811959228515625,0.020787836983799934,0.013950969092547894,-0.014398646540939808
1751013930798903300,2.8219033203125,0.02917732670903206,0.013466540724039078,-0.027638019993901253
1751013930808846300,2.831846435546875,0.02881540358066559,0.008627044036984444,-0.03387061506509781
1751013930818790100,2.8417900390625,0.031095068901777267,0.008264321833848953,-0.029857497662305832
1751013930828733200,2.851733154296875,0.030884413048624992,0.003910053055733442,-0.015563246794044971
1751013930838677200,2.86167724609375,0.027273965999484062,-0.0009009473724290729,0.0027297399938106537
1751013930848621000,2.87162109375,0.017140904441475868,-0.007635282818228006,0.021216338500380516
1751013930858564000,2.881564208984375,0.01312059536576271,-0.016812801361083984,0.032104142010211945
1751013930868508200,2.891508056640625,0.0051782503724098206,-0.02430507354438305,0.04501621052622795
1751013930878451200,2.901451171875,0.0024684839881956577,-0.02510135807096958,0.051300473511219025
1751013930888395300,2.911395263671875,-0.005951365921646357,-0.025120534002780914,0.04915422946214676
1751013930898339300,2.92133935546875,-0.003649862250313163,-0.019243203103542328,0.0407831147313118
1751013930908282400,2.931282470703125,0.0008088020258583128,-0.00558092026039958,0.029320605099201202
1751013930918226200,2.94122607421875,0.006654973141849041,0.007650729268789291,0.014896923676133156
1751013930928169200,2.951169189453125,0.0191342793405056,0.024158066138625145,0.013847372494637966
1751013930938113300,2.96111328125,0.029950175434350967,0.0394054614007473,0.012444152496755123
1751013930948057000,2.97105712890625,0.039682164788246155,0.04767218232154846,0.008548480458557606
1751013930958000000,2.981000244140625,0.04301724210381508,0.04657282680273056,-0.0015539544401690364
1751013930967944200,2.990944091796875,0.041379664093256,0.04074689745903015,-0.015565377660095692
1751013930977887200,3.00088720703125,0.03328152373433113,0.03376142680644989,-0.024874456226825714
1751013930987831000,3.0108310546875,0.022358834743499756,0.022842997685074806,-0.031509723514318466
1751013930997774000,3.020774169921875,0.009956227615475655,0.01275920495390892,-0.02587021328508854
1751013931007718100,3.03071826171875,0.0024975123815238476,0.006636863574385643,-0.011320564895868301
1751013931017662200,3.040662109375,-0.003906590864062309,0.004975850228220224,-0.002019741339609027
1751013931027605200,3.050605224609375,-0.002950516063719988,0.004194478504359722,0.0017973673529922962
1751013931037549300,3.06054931640625,0.003209641668945551,0.010025469586253166,0.0062712118960917
1751013931047492400,3.070492431640625,0.015631157904863358,0.021166006103157997,0.0027867318131029606
1751013931057436200,3.080436279296875,0.033489517867565155,0.033845048397779465,0.005624862387776375
1751013931067380200,3.090380126953125,0.04661517217755318,0.047196272760629654,0.012607138603925705
1751013931077323300,3.1003232421875,0.04171202704310417,0.05500279739499092,0.005403553601354361
1751013931087267000,3.11026708984375,0.042283009737730026,0.06161010265350342,-0.0017864484107121825
1751013931097210000,3.120210205078125,0.04309527203440666,0.06787358969449997,-0.004148405976593494
1751013931107154200,3.130154296875,0.03683710843324661,0.07657679915428162,-0.018026670441031456
1751013931117098000,3.140097900390625,0.03239575773477554,0.07466704398393631,-0.03381841629743576
1751013931127041000,3.150041015625,0.03460191935300827,0.079396553337574,-0.05577458068728447
1751013931136985300,3.1599853515625,0.04506547749042511,0.091669462621212,-0.07190161943435669
1751013931146928400,3.169928466796875,0.05631360784173012,0.08117234706878662,-0.08771227300167084
1751013931156872200,3.1798720703125,0.061766427010297775,0.05951046571135521,-0.0957861840724945
1751013931166815200,3.189815185546875,0.056881923228502274,0.04181109741330147,-0.09343807399272919
1751013931176759300,3.19975927734375,0.046074818819761276,0.026942934840917587,-0.07642792910337448
1751013931186703000,3.209703125,0.037279460579156876,0.016288425773382187,-0.056223057210445404
1751013931196646100,3.219646240234375,0.027157850563526154,0.016404805704951286,-0.024053670465946198
1751013931206590200,3.229590087890625,0.023188143968582153,0.05228504166007042,0.009440639987587929
1751013931216533200,3.239533203125,0.0298463124781847,0.07985781133174896,0.017648234963417053
1751013931226477000,3.24947705078125,0.04440341889858246,0.10034098476171494,-0.0041617220267653465
1751013931236421000,3.259421142578125,0.057067014276981354,0.11715884506702423,-0.06280665844678879
1751013931246364200,3.2693642578125,0.07089787721633911,0.12169580906629562,-0.12927809357643127
1751013931256308000,3.279307861328125,0.08743584156036377,0.11058643460273743,-0.17758437991142273
1751013931266251000,3.2892509765625,0.09596674144268036,0.07578397542238235,-0.2135695368051529
1751013931276195300,3.2991953125,0.09061592072248459,0.03311081603169441,-0.2190854847431183
1751013931286139100,3.30913916015625,0.0810873955488205,0.002977147698402405,-0.20123085379600525
1751013931296082200,3.319082275390625,0.07373041659593582,-0.018855446949601173,-0.16585367918014526
1751013931306026200,3.329026123046875,0.060330186039209366,-0.0456809364259243,-0.1280631572008133
1751013931315969300,3.33896923828125,0.04487426578998566,-0.06650898605585098,-0.08660998940467834
1751013931325913000,3.3489130859375,0.03152836486697197,-0.08178994059562683,-0.04153093323111534
1751013931335857200,3.358857177734375,0.023386815562844276,-0.0796346440911293,0.0029904635157436132
1751013931345800200,3.36880029296875,0.021105019375681877,-0.07149415463209152,0.03984009101986885
1751013931355744000,3.378743896484375,0.025496305897831917,-0.05288957804441452,0.068086639046669
1751013931365687000,3.38868701171875,0.026995398104190826,-0.028727518394589424,0.07465293258428574
1751013931375631000,3.398631103515625,0.031744614243507385,0.0035236284602433443,0.06250438839197159
1751013931385575200,3.4085751953125,0.02942846156656742,0.0280928872525692,0.023927437141537666
1751013931395518200,3.418518310546875,0.010024670511484146,0.039508525282144547,-0.030893467366695404
1751013931405462300,3.428462158203125,-0.010343717411160469,0.03700914978981018,-0.08778311312198639
1751013931415405300,3.4384052734375,-0.035468246787786484,0.03033313900232315,-0.1418980211019516
1751013931425349000,3.44834912109375,-0.05537430942058563,0.035407792776823044,-0.15947221219539642
1751013931435292200,3.458292236328125,-0.06439203768968582,0.05380996689200401,-0.1446855515241623
1751013931445236200,3.468236328125,-0.06197468936443329,0.07573764026165009,-0.10442014783620834
1751013931455180300,3.47818017578125,-0.05283445119857788,0.08994773030281067,-0.05439000576734543
1751013931465123000,3.488123046875,-0.02943405508995056,0.10072767734527588,-0.0030663637444376945
1751013931475067100,3.498067138671875,0.008705074898898602,0.10661938786506653,0.036139629781246185
1751013931485010200,3.50801025390625,0.04603913053870201,0.09834015369415283,0.05613464117050171
1751013931494954000,3.5179541015625,0.06960730999708176,0.0848107635974884,0.06434383243322372
1751013931504898300,3.527898193359375,0.07458555698394775,0.06826028227806091,0.04880988225340843
1751013931514841000,3.537841064453125,0.060677994042634964,0.039801474660634995,0.02310238964855671
1751013931524785400,3.547785400390625,0.04571182653307915,0.012093680910766125,0.00512685114517808
1751013931534728200,3.557728271484375,0.024351146072149277,0.0009944243356585503,-0.008153000846505165
1751013931544672300,3.56767236328125,0.014572285115718842,-0.01607191003859043,-0.007465639617294073
1751013931554616300,3.5776162109375,0.009012935683131218,-0.025971945375204086,0.004345479886978865
1751013931564559000,3.58755908203125,0.010012419894337654,-0.023443007841706276,0.014824486337602139
1751013931574503200,3.597503173828125,0.008641957305371761,-0.01230407040566206,0.02143232151865959
1751013931584446200,3.6074462890625,0.02051938883960247,0.016033828258514404,0.03248044475913048
1751013931594390300,3.617390380859375,0.05137823522090912,0.053596381098032,0.05116811394691467
1751013931604334000,3.627333984375,0.0823364183306694,0.08878526091575623,0.06269214302301407
1751013931614277000,3.637277099609375,0.1029500812292099,0.11244291812181473,0.07663698494434357
1751013931624221200,3.64722119140625,0.11612208187580109,0.12261220067739487,0.0775616392493248
1751013931634164000,3.6571640625,0.11943638324737549,0.12462128698825836,0.0701732262969017
1751013931644108300,3.6671083984375,0.11348767578601837,0.11500408500432968,0.058832425624132156
1751013931654051300,3.67705126953125,0.09552359580993652,0.09764107316732407,0.03467195853590965
1751013931663995400,3.686995361328125,0.07004619389772415,0.06996523588895798,0.0105943214148283
1751013931673939200,3.696939208984375,0.03861503675580025,0.04902853071689606,-0.005678392015397549
1751013931683882200,3.70688232421875,0.010748784057796001,0.02948412299156189,-0.012878780253231525
1751013931693826300,3.716826416015625,-0.009920274838805199,0.01278423797339201,-0.006897320970892906
1751013931703769000,3.72676904296875,-0.013172526843845844,0.002891926560550928,0.010575679130852222
1751013931713713200,3.736713134765625,-0.009119994938373566,0.004715659189969301,0.03298564627766609
1751013931723657200,3.7466572265625,0.009278452955186367,0.010421215556561947,0.04709427431225777
1751013931733600300,3.756600341796875,0.02352050505578518,0.023394005373120308,0.06365061551332474
1751013931743544000,3.7665439453125,0.01872335374355316,0.046792007982730865,0.062487877905368805
1751013931753487000,3.776487060546875,0.01738298498094082,0.07167711853981018,0.0510123185813427
1751013931763431400,3.786431396484375,0.012575712986290455,0.09252727031707764,0.04348941892385483
1751013931773375200,3.796375244140625,0.008704009465873241,0.10005415976047516,0.039692819118499756
1751013931783318300,3.806318359375,0.007427023723721504,0.10381720960140228,0.02725985087454319
1751013931793262300,3.816262451171875,0.015177088789641857,0.09645463526248932,0.009640377014875412
1751013931803205400,3.826205322265625,0.0239399541169405,0.08295826613903046,-0.013645770959556103
1751013931813149200,3.836149169921875,0.03689117357134819,0.07187631726264954,-0.03193449601531029
1751013931823092200,3.84609228515625,0.05271114781498909,0.059844426810741425,-0.04297782853245735
1751013931833035300,3.85603515625,0.049252234399318695,0.04560184106230736,-0.049073535948991776
1751013931842979300,3.865979248046875,0.03150785714387894,0.034767035394907,-0.054420895874500275
1751013931852922000,3.875922119140625,0.025350630283355713,0.023626765236258507,-0.037514619529247284
1751013931862866400,3.885866455078125,0.021819811314344406,0.03310602158308029,-0.006333795841783285
1751013931872809500,3.8958095703125,0.021557223051786423,0.02907452918589115,0.024573519825935364
1751013931882753300,3.905753173828125,0.029318740591406822,0.007089600898325443,0.04348435997962952
1751013931892697300,3.915697265625,0.02828729711472988,-0.009552492760121822,0.04730306565761566
1751013931902640400,3.925640380859375,0.03666933253407478,-0.015614911913871765,0.039926376193761826
1751013931912584200,3.935584228515625,0.04385906830430031,-0.021410217508673668,0.01737925596535206
1751013931922527200,3.94552734375,0.05239130184054375,-0.02630617283284664,-0.01506789866834879
1751013931932471300,3.95547119140625,0.05547044798731804,-0.029446838423609734,-0.03346874564886093
1751013931942415400,3.965415283203125,0.05944442003965378,-0.020727116614580154,-0.04158179834485054
1751013931952358100,3.975358154296875,0.06345247477293015,-0.00845313910394907,-0.03562084585428238
1751013931962302200,3.98530224609375,0.06500403583049774,0.00038935415796004236,-0.019058646634221077
1751013931972245200,3.995245361328125,0.06558673083782196,0.014059360139071941,-0.003291134489700198
1751013931982189300,4.005189208984375,0.06150171160697937,0.02923857979476452,0.008294947445392609
1751013931992133400,4.01513330078125,0.06240798532962799,0.035351600497961044,0.013949370943009853
1751013932002076400,4.025076416015625,0.06631244719028473,0.03800597041845322,0.01630467176437378
1751013932012020200,4.035020263671875,0.07085393369197845,0.03927656635642052,0.016596021130681038
1751013932021963300,4.04496337890625,0.07444920390844345,0.03565999120473862,0.008281898684799671
1751013932031907300,4.0549072265625,0.07962505519390106,0.026999926194548607,0.0009147958480753005
1751013932041851400,4.064851318359375,0.07570328563451767,0.01920298859477043,-0.0083085298538208
1751013932051794200,4.074794189453125,0.06865362823009491,0.012346148490905762,-0.0132084796205163
1751013932061738200,4.08473828125,0.05577005445957184,-0.0003608583356253803,-0.020794760435819626
1751013932071681300,4.094681396484375,0.049306828528642654,-0.0073537868447601795,-0.02419215440750122
1751013932081625300,4.104625244140625,0.037400368601083755,-0.014725948683917522,-0.03820597380399704
1751013932091569400,4.1145693359375,0.025379126891493797,-0.024142887443304062,-0.05602598562836647
1751013932101512400,4.124512451171875,0.012289955280721188,-0.023676034063100815,-0.0691031739115715
1751013932111456500,4.13445654296875,0.015564844943583012,-0.011157047003507614,-0.07217352837324142
1751013932121399300,4.1443994140625,0.03104819729924202,0.011855860240757465,-0.06421440839767456
1751013932131343400,4.15434326171875,0.053513556718826294,0.032581910490989685,-0.05059260502457619
1751013932141287400,4.164287353515625,0.06687916815280914,0.0500519834458828,-0.0347055159509182
1751013932151230200,4.174230224609375,0.08567921817302704,0.05964016169309616,-0.016936106607317924
1751013932161174300,4.18417431640625,0.09781444072723389,0.06307164579629898,-0.0011683288030326366
1751013932171117300,4.194117431640625,0.10338817536830902,0.05636980012059212,0.017253288999199867
1751013932181061400,4.204061279296875,0.10339056700468063,0.05217984691262245,0.027887556701898575
1751013932191004200,4.214004150390625,0.09369586408138275,0.043297406286001205,0.034273285418748856
1751013932200948200,4.2239482421875,0.07421883940696716,0.030762173235416412,0.020435500890016556
1751013932210892300,4.233892333984375,0.04398929700255394,0.012084092944860458,-0.012496616691350937
1751013932220835300,4.24383544921875,0.02695704810321331,-0.008219047449529171,-0.046911049634218216
1751013932230779400,4.253779296875,0.01576964184641838,-0.019581956788897514,-0.05423048138618469
1751013932240722400,4.263722412109375,0.006387591827660799,-0.024933844804763794,-0.039448074996471405
1751013932250666500,4.27366650390625,0.00358834327198565,-0.027411650866270065,-0.009322129189968109
1751013932260610300,4.2836103515625,0.002374740783125162,-0.026673423126339912,0.030908115208148956
1751013932270553300,4.29355322265625,0.00782596506178379,-0.018675416707992554,0.06328682601451874
1751013932280497400,4.303497314453125,0.01672731526196003,-0.00842810608446598,0.08439557254314423
1751013932290440400,4.3134404296875,0.029750971123576164,0.01762479916214943,0.09614064544439316
1751013932300384300,4.32338427734375,0.038846466690301895,0.04091707244515419,0.08040749281644821
1751013932310328300,4.333328369140625,0.0458441860973835,0.05077609419822693,0.0407535545527935
1751013932320271400,4.343271240234375,0.043122969567775726,0.05404725670814514,0.002998719457536936
1751013932330215200,4.353215087890625,0.035108983516693115,0.04813211038708687,-0.027418041601777077
1751013932340158200,4.363158203125,0.02202114649116993,0.04418237507343292,-0.04355280473828316
1751013932350102500,4.3731025390625,0.00945022702217102,0.029618345201015472,-0.04091361165046692
1751013932360046300,4.38304638671875,-0.0009896307019516826,0.02538338676095009,-0.02286643348634243
1751013932369989400,4.3929892578125,-0.00965449120849371,0.030675621703267097,0.004090881906449795
1751013932379933400,4.402933349609375,0.0004498079069890082,0.02732882648706436,0.032232239842414856
1751013932389876500,4.41287646484375,0.015207715332508087,0.019959859549999237,0.05357135087251663
1751013932399820300,4.4228203125,0.03640088438987732,0.01519679557532072,0.06109744310379028
1751013932409763300,4.432763427734375,0.05717194452881813,0.00469435378909111,0.04819123074412346
1751013932419707400,4.442707275390625,0.09799447655677795,-0.012613263912498951,0.04008509963750839
1751013932429651200,4.452651123046875,0.09912711381912231,-0.027188478037714958,0.02353568561375141
1751013932439594200,4.46259423828125,0.08034756779670715,-0.04104863479733467,0.011887552216649055
1751013932449538300,4.472538330078125,0.057326141744852066,-0.04890682175755501,0.005823534447699785
1751013932459481300,4.4824814453125,0.03346528112888336,-0.05883535370230675,0.0025217472575604916
1751013932469425200,4.492425048828125,0.007457916159182787,-0.062185078859329224,-0.003123888047412038
1751013932479369500,4.502369384765625,-0.015358716249465942,-0.05698365718126297,-0.011059309355914593
1751013932489312500,4.5123125,-0.03392680734395981,-0.05140220373868942,-0.019122561439871788
1751013932499256300,4.52225634765625,-0.04345559701323509,-0.03777986764907837,-0.026944532990455627
1751013932509199400,4.532199462890625,-0.03988749533891678,-0.020912472158670425,-0.025168202817440033
1751013932519143400,4.542143310546875,-0.02834189310669899,-0.00347409350797534,-0.022818230092525482
1751013932529087200,4.552087158203125,-0.022372150793671608,0.008715993724763393,-0.0182863287627697
1751013932539030300,4.5620302734375,-0.021022461354732513,0.019158247858285904,-0.006158826407045126
1751013932548974300,4.571974365234375,-0.018908709287643433,0.029638586565852165,0.00785392802208662
1751013932558917400,4.58191748046875,-0.0062701464630663395,0.030111562460660934,0.01842268370091915
1751013932568861200,4.591861083984375,0.006391586735844612,0.02165576070547104,0.027948277071118355
1751013932578805200,4.60180517578125,0.012763465754687786,0.0071766865439713,0.03924300894141197
1751013932588748300,4.611748291015625,0.0011507519520819187,-0.0032860743813216686,0.049125202000141144
1751013932598692400,4.6216923828125,-0.0054339137859642506,-0.01534753106534481,0.05847742408514023
1751013932608635400,4.631635498046875,-0.007369499187916517,-0.04358662664890289,0.0700690969824791
1751013932618579500,4.641579345703125,-0.013725931756198406,-0.07663539052009583,0.07929296046495438
1751013932628523300,4.651523193359375,-0.019091935828328133,-0.09815718978643417,0.09069102257490158
1751013932638466300,4.66146630859375,-0.050095390528440475,-0.09514835476875305,0.0878925696015358
1751013932648410400,4.671410400390625,-0.08603022247552872,-0.07890200614929199,0.03636280074715614
1751013932658353400,4.681353515625,-0.09798169136047363,-0.05865505710244179,-0.01696806401014328
1751013932668297200,4.691297119140625,-0.08312098681926727,-0.012238290160894394,-0.07589449733495712
1751013932678240300,4.701240234375,-0.054055776447057724,0.0339779406785965,-0.12888528406620026
1751013932688184300,4.711184326171875,-0.029405025765299797,0.06541921943426132,-0.1561288833618164
1751013932698128100,4.721128173828125,-0.01962297037243843,0.09011657536029816,-0.15738828480243683
1751013932708071200,4.7310712890625,-0.021163875237107277,0.1007513776421547,-0.1446583867073059
1751013932718015500,4.741015380859375,-0.029680930078029633,0.0940074548125267,-0.13063789904117584
1751013932727958300,4.750958251953125,-0.03815856948494911,0.06889091432094574,-0.11261895298957825
1751013932737902300,4.76090234375,-0.05283258855342865,0.041369009763002396,-0.09102045744657516
1751013932747846400,4.770846435546875,-0.07667693495750427,0.015597068704664707,-0.07174502313137054
1751013932757789400,4.78078955078125,-0.09290703386068344,-0.010230266489088535,-0.059480637311935425
1751013932767733200,4.790733154296875,-0.10317325592041016,-0.028139758855104446,-0.04337330535054207
1751013932777676300,4.80067626953125,-0.09648792445659637,-0.034932948648929596,-0.03772980347275734
1751013932787620400,4.810620361328125,-0.08990032970905304,-0.039025962352752686,-0.04062971845269203
1751013932797564200,4.820564208984375,-0.08135610818862915,-0.039505865424871445,-0.053765758872032166
1751013932807507200,4.830507080078125,-0.06905390322208405,-0.030015690252184868,-0.08484884351491928
1751013932817451300,4.840451171875,-0.0660538524389267,-0.02196335606276989,-0.11325172334909439
1751013932827398400,4.8503984375,-0.06775721162557602,-0.015001053921878338,-0.13170476257801056
1751013932837342200,4.86034228515625,-0.0723024234175682,-0.007665643002837896,-0.12799711525440216
1751013932847286300,4.870286376953125,-0.06917188316583633,-0.004856806714087725,-0.11041838675737381
1751013932857229300,4.880229248046875,-0.05961059778928757,-0.01618323102593422,-0.07721196115016937
1751013932867173400,4.89017333984375,-0.05476151406764984,-0.034515365958213806,-0.035764388740062714
1751013932877116200,4.9001162109375,-0.05377667769789696,-0.030407439917325974,0.012025769799947739
1751013932887060500,4.910060546875,-0.047448743134737015,-0.023909060284495354,0.05552903935313225
1751013932897004300,4.92000439453125,-0.044862814247608185,-0.024096015840768814,0.0772031769156456
1751013932906947300,4.929947265625,-0.04380740225315094,-0.021450962871313095,0.08395934849977493
1751013932916891400,4.939891357421875,-0.03988509625196457,-0.01679176278412342,0.08152095973491669
1751013932926834400,4.94983447265625,-0.03611033409833908,-0.007545800413936377,0.0786719098687172
1751013932936778200,4.9597783203125,-0.025612153112888336,0.0062155514024198055,0.07641434669494629
1751013932946721300,4.96972119140625,-0.018629077821969986,0.017120130360126495,0.08260034024715424
1751013932956665300,4.979665283203125,-0.02214551530778408,0.022476812824606895,0.07617945969104767
1751013932966609200,4.989609130859375,-0.030053505674004555,0.028485704213380814,0.06777345389127731
1751013932976552200,4.99955224609375,-0.044912345707416534,0.05428747460246086,0.06441893428564072
1751013932986496300,5.009496337890625,-0.05945666879415512,0.0900726318359375,0.0642346441745758
1751013932996439300,5.019439208984375,-0.060562945902347565,0.11139257252216339,0.03894686698913574
1751013933006383400,5.02938330078125,-0.0406680665910244,0.09849940985441208,-0.005847502965480089
1751013933016327400,5.039327392578125,-0.00433056615293026,0.07847536355257034,-0.0605325847864151
1751013933026270500,5.0492705078125,0.008840363472700119,0.043901678174734116,-0.10999547690153122
1751013933036214300,5.05921435546875,0.006444050930440426,0.009118929505348206,-0.1369442641735077
1751013933046157300,5.0691572265625,0.006265086587518454,-0.023730363696813583,-0.1301249861717224
1751013933056101400,5.079101318359375,-0.003596598980948329,-0.03939800709486008,-0.09191900491714478
1751013933066045200,5.089045166015625,-0.01968368887901306,-0.038783349096775055,-0.031691085547208786
1751013933075988200,5.09898828125,-0.036313533782958984,-0.034989673644304276,0.026459304615855217
1751013933085932300,5.108932373046875,-0.0408659391105175,-0.03608876094222069,0.06479231268167496
1751013933095875300,5.118875244140625,-0.0396648533642292,-0.039992690086364746,0.08274468034505844
1751013933105819100,5.128819091796875,-0.03400137647986412,-0.036853887140750885,0.08027965575456619
1751013933115763500,5.138763427734375,-0.01768685132265091,-0.03133209049701691,0.06524424999952316
1751013933125706500,5.14870654296875,0.004095941781997681,-0.028070783242583275,0.040650490671396255
1751013933135650300,5.158650390625,0.019294869154691696,-0.028239626437425613,0.01787806674838066
1751013933145593300,5.16859326171875,0.030344856902956963,-0.02129516936838627,0.0047026099637150764
1751013933155537400,5.178537353515625,0.035530030727386475,-0.01384204626083374,0.007862450554966927
1751013933165481200,5.188481201171875,0.03940359875559807,0.00384427304379642,0.013805028051137924
1751013933175424300,5.19842431640625,0.04211043566465378,0.023202523589134216,0.01792094297707081
1751013933185368300,5.208368408203125,0.047157127410173416,0.030980020761489868,0.017799237743020058
1751013933195311400,5.218311279296875,0.04354587942361832,0.035891421139240265,0.01822640746831894
1751013933205255200,5.228255126953125,0.03647438809275627,0.03917589783668518,0.01925412192940712
1751013933215198200,5.2381982421875,0.02305605076253414,0.035469312220811844,0.014363492839038372
1751013933225142300,5.248142333984375,0.0010002832859754562,0.030415697023272514,0.006454170681536198
1751013933235086000,5.258086181640625,-0.01631106249988079,0.030829284340143204,-0.004070641472935677
1751013933245029000,5.268029052734375,-0.02334127575159073,0.043769583106040955,-0.008405202999711037
1751013933254973400,5.277973388671875,-0.03086656890809536,0.060329120606184006,-0.01098660472780466
1751013933264916500,5.28791650390625,-0.035824842751026154,0.07580395042896271,-0.011596734635531902
1751013933274860300,5.2978603515625,-0.029738454148173332,0.0857897400856018,-0.027479028329253197
1751013933284804400,5.307804443359375,-0.026403378695249557,0.09321143478155136,-0.04591342806816101
1751013933294747400,5.317747314453125,-0.026316292583942413,0.0960860550403595,-0.07197832316160202
1751013933304691200,5.327691162109375,-0.03501683846116066,0.09561813622713089,-0.09032803028821945
1751013933314634200,5.33763427734375,-0.03771781921386719,0.09072937071323395,-0.09825599938631058
1751013933324578300,5.347578369140625,-0.040584444999694824,0.08064185082912445,-0.08619214594364166
1751013933334522400,5.3575224609375,-0.04759947583079338,0.06540244072675705,-0.06465116143226624
1751013933344465200,5.367465087890625,-0.06363410502672195,0.052317798137664795,-0.03556864708662033
1751013933354409200,5.3774091796875,-0.08943560719490051,0.03993463143706322,-0.0019531622529029846
1751013933364352300,5.387352294921875,-0.11382830142974854,0.020011259242892265,0.028860677033662796
1751013933374296300,5.39729638671875,-0.13931049406528473,0.0007366303470917046,0.05709550902247429
1751013933384240400,5.407240478515625,-0.17491109669208527,-0.012141884304583073,0.07730064541101456
1751013933394183400,5.417183349609375,-0.1965532749891281,-0.004321245010942221,0.09086465835571289
1751013933404127200,5.427127197265625,-0.206108957529068,0.013176788575947285,0.08444724231958389
1751013933414070300,5.4370703125,-0.19427253305912018,0.02648327313363552,0.062485482543706894
1751013933424014300,5.447014404296875,-0.16352342069149017,0.048536110669374466,0.03557583689689636
1751013933433958400,5.45695849609375,-0.12636566162109375,0.06323569267988205,0.018638664856553078
1751013933443901200,5.466901123046875,-0.09862697124481201,0.06663788110017776,0.00637933611869812
1751013933453845200,5.47684521484375,-0.07691049575805664,0.0674368292093277,-0.004779042676091194
1751013933463788300,5.486788330078125,-0.06298881769180298,0.04814302921295166,-0.012075038626790047
1751013933473732400,5.496732421875,-0.055579107254743576,0.020499415695667267,-0.011663047596812248
1751013933483676400,5.506676513671875,-0.0514080636203289,-0.010029464960098267,0.004192081745713949
1751013933493619200,5.516619140625,-0.04254160076379776,-0.026434004306793213,0.04031280055642128
1751013933503563500,5.5265634765625,-0.03280854597687721,-0.023441676050424576,0.08442087471485138
1751013933513506300,5.53650634765625,-0.01721280813217163,-0.005379319190979004,0.12729030847549438
1751013933523450400,5.546450439453125,-0.009589510038495064,0.007919708266854286,0.14619316160678864
1751013933533394400,5.55639453125,-0.016019979491829872,0.012606339529156685,0.13786199688911438
1751013933543337500,5.56633740234375,-0.03303518146276474,0.00851758848875761,0.10471176356077194
1751013933553281300,5.57628125,-0.075809545814991,-0.02383103035390377,0.0450710728764534
1751013933563224300,5.586224365234375,-0.13204325735569,-0.07389312982559204,-0.03647012636065483
1751013933573168400,5.59616845703125,-0.14503681659698486,-0.07072024047374725,-0.09830739349126816
1751013933583111200,5.606111083984375,-0.1236921101808548,-0.05656980350613594,-0.14788959920406342
1751013933593055200,5.61605517578125,-0.09893110394477844,-0.0413287989795208,-0.17742618918418884
1751013933602999300,5.625999267578125,-0.08129432052373886,-0.03922463580965996,-0.18577492237091064
1751013933612942300,5.6359423828125,-0.060858022421598434,-0.027877436950802803,-0.17626957595348358
1751013933622886400,5.645886474609375,-0.03255448117852211,0.007986553944647312,-0.14390496909618378
1751013933632830500,5.65583056640625,-0.0025209481827914715,0.051001131534576416,-0.10558447986841202
1751013933642773500,5.6657734375,0.020732175558805466,0.10129519551992416,-0.08015342801809311
1751013933652717300,5.67571728515625,0.03719397261738777,0.1485617756843567,-0.06659900397062302
1751013933662660400,5.685660400390625,0.03935406357049942,0.1665269285440445,-0.08164479583501816
1751013933672604400,5.6956044921875,0.03674762696027756,0.1271510273218155,-0.10631552338600159
1751013933682547500,5.70554736328125,0.02941914089024067,0.05946652218699455,-0.12351714074611664
1751013933692491300,5.7154912109375,0.01811349019408226,-0.01446762215346098,-0.12190540134906769
1751013933702435300,5.725435302734375,0.004406732507050037,-0.08979806303977966,-0.0894947275519371
1751013933712378400,5.73537841796875,0.016517458483576775,-0.14329883456230164,-0.032048746943473816
1751013933722322200,5.745322265625,0.05399026349186897,-0.1682278960943222,0.029136845842003822
1751013933732265200,5.75526513671875,0.0832514837384224,-0.1695365607738495,0.07128483057022095
1751013933742209500,5.76520947265625,0.09083296358585358,-0.13784362375736237,0.08741933107376099
1751013933752153300,5.7751533203125,0.09604131430387497,-0.08903160691261292,0.09013841301202774
1751013933762096400,5.785096435546875,0.09874548763036728,-0.033496174961328506,0.06936469674110413
1751013933772040400,5.79504052734375,0.08217103779315948,-0.0037912761326879263,0.025171665474772453
1751013933781983500,5.8049833984375,0.03990773484110832,0.003936151973903179,-0.028982648625969887
1751013933791927300,5.81492724609375,-0.02002723701298237,-0.0017486315919086337,-0.08956077694892883
1751013933801871400,5.824871337890625,-0.08647283911705017,-0.006447779480367899,-0.14014938473701477
1751013933811814400,5.834814453125,-0.13435088098049164,-0.0056829191744327545,-0.16127118468284607
1751013933821754600,5.844754638671875,-0.14928269386291504,-0.002490588231012225,-0.15700186789035797
1751013933831697700,5.85469775390625,-0.13973046839237213,-0.0018010957865044475,-0.12516218423843384
1751013933841641700,5.864641845703125,-0.11006738245487213,-0.006443784572184086,-0.09024760127067566
1751013933851585500,5.87458544921875,-0.07361403107643127,-0.02352370135486126,-0.057556238025426865
1751013933861528600,5.884528564453125,-0.045629534870386124,-0.039923980832099915,-0.03341281786561012
1751013933871472600,5.89447265625,-0.02804654836654663,-0.04626869410276413,-0.017016800120472908
1751013933881415700,5.904415771484375,-0.015679094940423965,-0.044376518577337265,-0.020475180819630623
1751013933891359700,5.91435986328125,-0.006069344002753496,-0.03606399521231651,-0.03627971187233925
1751013933901303800,5.9243037109375,-0.0064983791671693325,-0.02183791995048523,-0.05901138857007027
1751013933911246800,5.934246826171875,-0.011590875685214996,0.0027164241764694452,-0.0834440290927887
1751013933921190700,5.944190673828125,-0.016822922974824905,0.019104985520243645,-0.10611924529075623
1751013933931133700,5.9541337890625,-0.014447649009525776,0.00962572917342186,-0.12330382317304611
1751013933941077800,5.964077880859375,0.00307595101185143,-0.02774827368557453,-0.13426034152507782
1751013933951021600,5.974021484375,0.007417968939989805,-0.05583396926522255,-0.13497965037822723
1751013933960964600,5.983964599609375,0.012615393847227097,-0.08091162890195847,-0.1246923953294754
1751013933970908700,5.99390869140625,0.02636183239519596,-0.096254363656044,-0.08825928717851639
1751013933980851700,6.003851806640625,0.04464496672153473,-0.0938953384757042,-0.025540513917803764
1751013933990795500,6.01379541015625,0.058991946280002594,-0.06691378355026245,0.057975418865680695
1751013934000739600,6.023739501953125,0.07080972194671631,-0.03331747651100159,0.12064838409423828
1751013934010682600,6.0336826171875,0.07897364348173141,-0.0032437301706522703,0.1513168215751648
1751013934020626700,6.043626708984375,0.07519275695085526,0.008229966275393963,0.1446048468351364
1751013934030569700,6.05356982421875,0.07510726898908615,0.015271631069481373,0.11197500675916672
1751013934040513800,6.063513671875,0.07838056236505508,0.01537709217518568,0.06328149884939194
1751013934050457600,6.07345751953125,0.08075450360774994,0.0001994707708945498,0.01720481924712658
1751013934060400600,6.083400634765625,0.06960996985435486,-0.0049620019271969795,-0.007676561828702688
1751013934070344700,6.0933447265625,0.04543432593345642,0.012823919765651226,-0.022770825773477554
1751013934080287700,6.103287841796875,0.012029765173792839,0.0386163666844368,-0.027110446244478226
1751013934090231600,6.1132314453125,-0.02888837270438671,0.07264677435159683,-0.021400364115834236
1751013934100175600,6.123175537109375,-0.05380117893218994,0.12118981033563614,-0.005504487548023462
1751013934110118700,6.13311865234375,-0.05690695717930794,0.17023591697216034,0.0021515677217394114
1751013934120062500,6.1430625,-0.05209782347083092,0.2038934826850891,-0.02184351347386837
1751013934130005500,6.153005615234375,-0.03983290120959282,0.19581398367881775,-0.0695740208029747
1751013934139949800,6.16294970703125,-0.022536734119057655,0.1538335084915161,-0.10979068279266357
1751013934149894000,6.172893798828125,-0.0037915424909442663,0.10439484566450119,-0.11785073578357697
1751013934159836700,6.182836669921875,0.010171676985919476,0.06698835641145706,-0.08776447176933289
1751013934169780700,6.19278076171875,0.02412930503487587,0.03278244659304619,-0.0326884388923645
1751013934179723800,6.202723876953125,0.025855299085378647,0.0035273567773401737,0.03642432019114494
1751013934189667600,6.21266748046875,0.012429505586624146,-0.009258479811251163,0.09175948053598404
1751013934199611600,6.222611572265625,0.012354138307273388,-0.005120992194861174,0.13366858661174774
1751013934209554700,6.2325546875,0.037510622292757034,0.0024836640805006027,0.15844210982322693
1751013934219498800,6.242498779296875,0.061406102031469345,0.012828713282942772,0.15663088858127594
1751013934229441500,6.252441650390625,0.06900596618652344,0.013644439168274403,0.1172962635755539
1751013934239385600,6.262385498046875,0.06738383322954178,0.0000428768944402691,0.055807873606681824
1751013934249330000,6.272329833984375,0.07177937775850296,-0.015529691241681576,-0.006670419592410326
1751013934259272400,6.2822724609375,0.07492537051439285,-0.023027021437883377,-0.047135286033153534
1751013934269216800,6.292216796875,0.07173836976289749,-0.03506824001669884,-0.06421547383069992
1751013934279159800,6.302159912109375,0.058283012360334396,-0.04960217326879501,-0.053593721240758896
1751013934289104000,6.312103759765625,0.046911582350730896,-0.06661897152662277,-0.025474200025200844
1751013934299047700,6.322047607421875,0.036621395498514175,-0.08100909739732742,0.020232567563652992
1751013934308990700,6.33199072265625,0.021826468408107758,-0.0988253802061081,0.04988446831703186
1751013934318934800,6.341934814453125,0.008824650198221207,-0.11455134302377701,0.07036630809307098
1751013934328878600,6.351878662109375,0.005919141694903374,-0.1272279918193817,0.08965452015399933
1751013934338821600,6.361821533203125,0.002639458980411291,-0.13978533446788788,0.10166377574205399
1751013934348765700,6.371765625,0.0034738273825496435,-0.14755749702453613,0.1124919205904007
1751013934358708700,6.381708740234375,0.006214486435055733,-0.1394748091697693,0.11880548298358917
1751013934368652500,6.391652587890625,0.003228017594665289,-0.12465085089206696,0.11232414096593857
1751013934378596900,6.401596923828125,0.0037851508241146803,-0.10678423941135406,0.09364552795886993
1751013934388540000,6.411539794921875,0.00785765703767538,-0.08388637751340866,0.06753510236740112
1751013934398483700,6.421483642578125,0.017105750739574432,-0.047327034175395966,0.037636857479810715
1751013934408426800,6.4314267578125,0.029134448617696762,-0.006707703694701195,0.009447298012673855
1751013934418370800,6.441370849609375,0.04295651987195015,0.017713483422994614,-0.02660178393125534
1751013934428314600,6.451314697265625,0.05748806148767471,0.03255954012274742,-0.048886582255363464
1751013934438257700,6.461257568359375,0.06397099047899246,0.03038213960826397,-0.06231850013136864
1751013934448201700,6.47120166015625,0.05835198983550072,0.027275029569864273,-0.05287653207778931
1751013934458144800,6.481144775390625,0.04090855270624161,0.01992284134030342,-0.04024995118379593
1751013934468088600,6.491088623046875,0.026742931455373764,0.002374740783125162,-0.029928071424365044
1751013934478032600,6.50103271484375,0.01715821400284767,-0.007388674188405275,-0.015337411314249039
1751013934487975700,6.5109755859375,0.017465276643633842,-0.005638711154460907,-0.0016197345685213804
1751013934497919700,6.520919677734375,0.023009978234767914,0.005540173966437578,0.012972789816558361
1751013934507862800,6.53086279296875,0.027167439460754395,0.040596429258584976,0.030401315540075302
1751013934517806800,6.540806884765625,0.038054440170526505,0.10783804953098297,0.031565383076667786
1751013934527750700,6.550750732421875,0.054972704499959946,0.19535964727401733,0.0017659420846030116
1751013934537693700,6.560693603515625,0.08209380507469177,0.2873825132846832,-0.05686035379767418
1751013934547637800,6.5706376953125,0.12207531183958054,0.3892667889595032,-0.12434245645999908
1751013934557580800,6.580580810546875,0.1783902496099472,0.487678587436676,-0.17903873324394226
1751013934567524600,6.590524658203125,0.22022157907485962,0.5519563555717468,-0.21139506995677948
1751013934577468700,6.60046875,0.2383182942867279,0.5601271986961365,-0.2211233228445053
1751013934587411700,6.61041162109375,0.22575430572032928,0.5246030688285828,-0.20518644154071808
1751013934597355500,6.62035546875,0.18999311327934265,0.4364710748195648,-0.1578681915998459
1751013934607298600,6.630298583984375,0.12078074365854263,0.2822442054748535,-0.08636844158172607
1751013934617242600,6.64024267578125,0.015381885692477226,0.10160252451896667,-0.0018442390719428658
1751013934627186700,6.650186767578125,-0.11105301976203918,-0.07508915662765503,0.08456654846668243
1751013934637129700,6.660129638671875,-0.2247454971075058,-0.23378825187683105,0.16643372178077698
1751013934647073800,6.67007373046875,-0.28688690066337585,-0.37235304713249207,0.2346833497285843
1751013934657016800,6.680016845703125,-0.29681888222694397,-0.45994922518730164,0.29683834314346313
1751013934666960600,6.689960693359375,-0.27648645639419556,-0.4926474988460541,0.3381516933441162
1751013934676904700,6.69990478515625,-0.2421785444021225,-0.4932800233364105,0.34405723214149475
1751013934686847700,6.70984765625,-0.20162047445774078,-0.46185922622680664,0.31374087929725647
1751013934696791600,6.71979150390625,-0.14327646791934967,-0.3961750268936157,0.2316044718027115
1751013934706735600,6.729735595703125,-0.07589982450008392,-0.30619189143180847,0.12063693255186081
1751013934716678700,6.7396787109375,-0.004058124963194132,-0.2160220444202423,-0.008974053896963596
1751013934726622500,6.74962255859375,0.053701311349868774,-0.12118208408355713,-0.1330784261226654
1751013934736565500,6.7595654296875,0.08795888721942902,-0.03723365440964699,-0.23122736811637878
1751013934746509800,6.769509765625,0.09746583551168442,0.022756177932024002,-0.29270508885383606
1751013934756453600,6.77945361328125,0.08789656311273575,0.0558835044503212,-0.30409252643585205
1751013934766396700,6.789396728515625,0.06586476415395737,0.07331229746341705,-0.2572975754737854
1751013934776340700,6.7993408203125,0.0422515831887722,0.0668615847826004,-0.17988188564777374
1751013934786283800,6.80928369140625,0.024118119850754738,0.050934020429849625,-0.09447777271270752
1751013934796227600,6.8192275390625,0.014128868468105793,0.02425367385149002,-0.016625847667455673
1751013934806171600,6.829171630859375,-0.0005941512063145638,-0.003940679598599672,0.03382560610771179
1751013934816114700,6.83911474609375,-0.01828446425497532,-0.032036229968070984,0.058635883033275604
1751013934826062000,6.84906201171875,-0.042041193693876266,-0.054439008235931396,0.06263887882232666
1751013934836005000,6.859005126953125,-0.06981716305017471,-0.05203044414520264,0.04932307451963425
1751013934845949400,6.868949462890625,-0.09920035302639008,-0.041079793125391006,0.01858833245933056
1751013934855893200,6.878893310546875,-0.12731720507144928,-0.028553614392876625,-0.028483306989073753
1751013934865836300,6.888836181640625,-0.15170830488204956,-0.030588002875447273,-0.08171829581260681
1751013934875780400,6.8987802734375,-0.19037073850631714,-0.037815023213624954,-0.1362217515707016
1751013934885723400,6.908723388671875,-0.2549223005771637,-0.06924378871917725,-0.19442780315876007
1751013934895667200,6.918667236328125,-0.2895154356956482,-0.08426454663276672,-0.22082825005054474
1751013934905611300,6.928611328125,-0.3066462278366089,-0.0876009538769722,-0.2123788446187973
1751013934915554300,6.93855419921875,-0.30590158700942993,-0.07012156397104263,-0.17028625309467316
1751013934925498400,6.948498291015625,-0.2893916070461273,-0.037524472922086716,-0.11908484250307083
1751013934935442200,6.958442138671875,-0.259868323802948,0.007156446576118469,-0.08539532124996185
1751013934945385200,6.96838525390625,-0.22283707559108734,0.05182671174407005,-0.08292817324399948
1751013934955329500,6.97832958984375,-0.18404200673103333,0.08907927572727203,-0.11440673470497131
1751013934965272300,6.988272216796875,-0.1527288258075714,0.11407490819692612,-0.16614796221256256
1751013934975216400,6.99821630859375,-0.1172078475356102,0.12881949543952942,-0.20493796467781067
1751013934985160400,7.008160400390625,-0.08325547724962234,0.13005973398685455,-0.2122105211019516
1751013934995103200,7.018103271484375,-0.06387059390544891,0.11804594844579697,-0.1970454305410385
1751013935005047300,7.02804736328125,-0.04795420914888382,0.09948398172855377,-0.15327104926109314
1751013935014990300,7.037990234375,-0.038308773189783096,0.06991250813007355,-0.08431008458137512
1751013935024934400,7.047934326171875,-0.023689083755016327,0.04922054335474968,-0.005802761763334274
1751013935034878200,7.057878173828125,-0.008468852378427982,0.02371331863105297,0.07325370609760284
1751013935044821200,7.0678212890625,0.0014703312190249562,0.018247447907924652,0.13697116076946259
1751013935054765300,7.077765380859375,0.003335609333589673,0.021574001759290695,0.1733347624540329
1751013935064708400,7.087708251953125,0.00598492193967104,0.03323119133710861,0.16863642632961273
1751013935074652400,7.09765234375,0.010439591482281685,0.04013170674443245,0.11863770335912704
1751013935084596500,7.107596435546875,0.022602513432502747,0.045456431806087494,0.05610108748078346
1751013935094539500,7.11753955078125,0.033309753984212875,0.055145278573036194,-0.0044107274152338505
1751013935104483300,7.1274833984375,0.042086467146873474,0.06905070692300797,-0.058875035494565964
1751013935114426400,7.13742626953125,0.054242201149463654,0.07773634046316147,-0.10161477327346802
1751013935124370400,7.147370361328125,0.05931844934821129,0.07591287046670914,-0.11902519315481186
1751013935134314200,7.157314208984375,0.06083725020289421,0.07016204297542572,-0.1200406551361084
1751013935144257300,7.16725732421875,0.06061035022139549,0.06466181576251984,-0.10171091556549072
1751013935154201300,7.177201416015625,0.05040911212563515,0.04891907423734665,-0.06428071856498718
1751013935164145200,7.187145263671875,0.04517360404133797,0.03648131340742111,-0.011185809038579464
1751013935174088200,7.197088134765625,0.04340020567178726,0.02882099524140358,0.057266753166913986
1751013935184032300,7.2070322265625,0.039267245680093765,0.025196166709065437,0.12107954919338226
1751013935193975300,7.216975341796875,0.03164607658982277,0.02442864328622818,0.164547398686409
1751013935203919400,7.22691943359375,0.03724217787384987,0.02564251236617565,0.18435093760490417
1751013935213863400,7.236863525390625,0.040878456085920334,0.03151797875761986,0.17985126376152039
1751013935223806500,7.246806396484375,0.04628334194421768,0.04097699373960495,0.13912193477153778
1751013935233750300,7.256750244140625,0.05621267110109329,0.04881414398550987,0.08467094600200653
1751013935243693300,7.266693359375,0.0697479248046875,0.06316778063774109,0.03984834626317024
1751013935253637400,7.276637451171875,0.08154413104057312,0.07000119239091873,0.012742958962917328
1751013935263581200,7.286581298828125,0.07204916328191757,0.0789661854505539,0.0002969424531329423
1751013935273524200,7.296524169921875,0.05922497436404228,0.08804889768362045,-0.009371929802000523
1751013935283468300,7.30646826171875,0.05933176726102829,0.0884675458073616,0.0003635214816313237
1751013935293412000,7.316412109375,0.04899044707417488,0.08038219064474106,0.010098440572619438
1751013935303355100,7.326355224609375,0.0348847471177578,0.0704808235168457,0.018546253442764282
1751013935313299500,7.336299560546875,0.02527313306927681,0.0746699795126915,0.02618126943707466
1751013935323242500,7.346242431640625,0.027184749022126198,0.07668305933475494,0.03286181017756462
1751013935333186300,7.356186279296875,0.023492809385061264,0.07902344316244125,0.03494546562433243
1751013935343130400,7.36613037109375,0.02191328816115856,0.08472234755754471,0.021921543404459953
1751013935353073400,7.376073486328125,0.019875170662999153,0.08650293201208115,0.007271495182067156
1751013935363017200,7.386017333984375,0.018811238929629326,0.07305210828781128,-0.01173548586666584
1751013935372960300,7.395960205078125,0.01631692238152027,0.06396273523569107,-0.02323554828763008
1751013935382904300,7.405904296875,0.010869159363210201,0.06388737261295319,-0.026338130235671997
1751013935392848100,7.41584814453125,0.016334498301148415,0.07141825556755066,-0.01896516978740692
1751013935402791200,7.425791259765625,0.031259652227163315,0.07466837763786316,-0.009189769625663757
1751013935412735200,7.4357353515625,0.0451352521777153,0.07057243585586548,0.0017004283145070076
1751013935422679600,7.445679443359375,0.05065199360251427,0.06013231351971626,0.01341647282242775
1751013935432622300,7.455622314453125,0.05313592404127121,0.05957730859518051,0.01853826455771923
1751013935442566400,7.46556640625,0.05519215017557144,0.042515501379966736,0.009978331625461578
1751013935452509400,7.475509521484375,0.058399658650159836,0.01900511607527733,-0.001511343871243298
1751013935462453200,7.485453369140625,0.05043600872159004,0.005194761790335178,-0.01745329238474369
1751013935472397300,7.495397216796875,0.03326394781470299,0.0019443739438429475,-0.021588915959000587
1751013935482340400,7.50534033203125,0.017588049173355103,-0.0004370247188489884,-0.030975759029388428
1751013935492284400,7.515284423828125,0.013170663267374039,-0.007668838836252689,-0.030674289911985397
1751013935502227200,7.525227294921875,0.014723552390933037,-0.007123955991119146,-0.02581615000963211
1751013935512171300,7.535171142578125,0.023975906893610954,-0.006345513742417097,-0.01613609306514263
1751013935522115300,7.545115234375,0.023445937782526016,-0.005860818549990654,-0.017013603821396828
1751013935532058000,7.55505810546875,0.02743348851799965,-0.012448147870600224,-0.023901071399450302
1751013935542002200,7.565002197265625,0.03501391038298607,-0.004829376470297575,-0.025137310847640038
1751013935551945200,7.5749453125,0.04056952893733978,-0.005221659783273935,-0.020730312913656235
1751013935561889500,7.5848896484375,0.04135569557547569,0.0029435919132083654,-0.017166735604405403
1751013935571833300,7.594833251953125,0.042579419910907745,0.00926247425377369,-0.0068089039996266365
1751013935581776400,7.6047763671875,0.04463191702961922,0.007330351043492556,0.004482898861169815
1751013935591720400,7.614720458984375,0.05056091025471687,0.006384395994246006,0.015996543690562248
1751013935601664300,7.624664306640625,0.047026097774505615,-0.006325806491076946,0.0200972780585289
1751013935611607300,7.634607177734375,0.03849705681204796,-0.020662933588027954,0.013246030546724796
1751013935621551400,7.64455126953125,0.020146813243627548,-0.03898654878139496,-0.009833189658820629
1751013935631494400,7.654494384765625,0.010411362163722515,-0.05010764300823212,-0.02473197877407074
1751013935641438200,7.664438232421875,0.008769256994128227,-0.048283644020557404,-0.03681021183729172
1751013935651382300,7.67438232421875,0.004102866165339947,-0.0394054614007473,-0.043887827545404434
1751013935661325300,7.6843251953125,0.016031431034207344,-0.029337115585803986,-0.03603896126151085
1751013935671269400,7.694269287109375,0.028017519041895866,-0.011227887123823166,-0.020432038232684135
1751013935681212400,7.70421240234375,0.04120495915412903,0.006966030225157738,0.004502606578171253
1751013935691156500,7.714156494140625,0.04379435256123543,0.01877501979470253,0.025406023487448692
1751013935701100300,7.724100341796875,0.05174841359257698,0.021860292181372643,0.03892529383301735
1751013935711043300,7.734043212890625,0.04920269921422005,0.017057280987501144,0.036498621106147766
1751013935720987400,7.7439873046875,0.04018976539373398,0.002731071785092354,0.02004161849617958
1751013935730931200,7.75393115234375,0.029581593349575996,-0.010876350104808807,0.007815046235918999
1751013935740874200,7.763874267578125,0.025141572579741478,-0.016982978209853172,-0.0034165694378316402
1751013935750818300,7.773818359375,0.013937919400632381,-0.02177693508565426,-0.007932757958769798
1751013935760761300,7.78376123046875,0.009224656969308853,-0.0261067021638155,-0.007198257837444544
1751013935770705200,7.793705078125,0.017906296998262405,-0.016691362485289574,0.012064386159181595
1751013935780649500,7.8036494140625,0.021089838817715645,-0.012176505289971828,0.036977458745241165
1751013935790592500,7.813592529296875,0.018814699724316597,-0.00487145408987999,0.04295492544770241
1751013935800536300,7.823536376953125,0.008657137863337994,-0.009739180095493793,0.04183479771018028
1751013935810479400,7.833479248046875,0.006225405260920525,-0.01793479174375534,0.02720312587916851
1751013935820423400,7.84342333984375,0.0007400924805551767,-0.02178652212023735,-0.0006487460341304541
1751013935830367200,7.8533671875,0.00040293627534992993,-0.019420569762587547,-0.03123435191810131
1751013935840310300,7.863310302734375,0.004093811381608248,-0.017406154423952103,-0.05685316398739815
1751013935850254300,7.87325439453125,0.005320196971297264,-0.018881013616919518,-0.06471401453018188
1751013935860198100,7.8831982421875,0.004221909213811159,-0.0075194351375103,-0.06499524414539337
1751013935870141200,7.89314111328125,0.0029968551825731993,0.002603506203740835,-0.04999951645731926
1751013935880085200,7.903085205078125,0.009459281340241432,0.008986570872366428,-0.03328338637948036
1751013935890028300,7.9130283203125,0.011020692996680737,0.018156632781028748,-0.020914869382977486
1751013935899972000,7.92297216796875,0.013309946283698082,0.016700683161616325,-0.017465809360146523
1751013935909916200,7.932916259765625,0.01575685851275921,0.012792227789759636,-0.013739247806370258
1751013935919859200,7.942859130859375,0.030008498579263687,0.014009292237460613,0.0010303769959136844
1751013935929803000,7.952802978515625,0.04223081097006798,0.01931590773165226,0.01888793706893921
1751013935939747300,7.962747314453125,0.046483080834150314,0.0222051702439785,0.03428873047232628
1751013935949690400,7.9726904296875,0.04688441753387451,0.018842663615942,0.049242112785577774
1751013935959634400,7.982634521484375,0.04301084950566292,0.01607643812894821,0.045517683029174805
1751013935969577200,7.9925771484375,0.0368909053504467,0.006737531162798405,0.042028941214084625
1751013935979521300,8.002521240234374,0.026032665744423866,-0.006216084118932486,0.023739418014883995
1751013935989465300,8.01246533203125,0.009436111897230148,-0.019096462056040764,0.0038400120101869106
1751013935999408000,8.022408203125,-0.0041430797427892685,-0.03287485986948013,-0.018145447596907616
1751013936009352200,8.032352294921875,-0.016507869586348534,-0.03658783808350563,-0.02895015850663185
1751013936019295200,8.042295166015625,-0.029438050463795662,-0.03524959832429886,-0.04164864495396614
1751013936029239300,8.0522392578125,-0.031373102217912674,-0.025713086128234863,-0.04578453302383423
1751013936039183000,8.06218310546875,-0.029081186279654503,-0.02069782093167305,-0.04950150474905968
1751013936049126100,8.072126220703124,-0.02425846830010414,-0.005133775528520346,-0.04727909713983536
1751013936059070500,8.082070556640625,-0.013714480213820934,0.004044010303914547,-0.04301803931593895
1751013936069014300,8.09201416015625,-0.001249821507371962,0.015966182574629784,-0.028716066852211952
1751013936078957300,8.101957275390625,0.009126652963459492,0.029136046767234802,-0.004551342222839594
1751013936088901400,8.1119013671875,0.020356403663754463,0.041260089725255966,0.023611320182681084
1751013936098844400,8.121844482421874,0.019157182425260544,0.04464789479970932,0.045706503093242645
1751013936108788200,8.131788330078125,0.011865980923175812,0.035585690289735794,0.05215081945061684
1751013936118732300,8.141732177734376,0.005809952039271593,0.015976037830114365,0.04544364660978317
1751013936128675300,8.15167529296875,-0.002376871183514595,-0.003922037314623594,0.03458913415670395
1751013936138619100,8.161619140625,-0.02123418264091015,-0.03067721799015999,0.009414274245500565
1751013936148562200,8.171562255859374,-0.031851138919591904,-0.045208223164081573,-0.022226741537451744
1751013936158506200,8.18150634765625,-0.03423040732741356,-0.05125386640429497,-0.04625804349780083
1751013936168450000,8.191449951171874,-0.028479844331741333,-0.04146994650363922,-0.05786782503128052
1751013936178393000,8.20139306640625,-0.01853613369166851,-0.020566793158650398,-0.05287093669176102
1751013936188337400,8.21133740234375,-0.0019955066964030266,-0.001389637473039329,-0.0349113792181015
1751013936198281200,8.22128125,0.013455088250339031,0.009727994911372662,-0.015364575199782848
1751013936208224300,8.231224365234375,0.03233157470822334,0.013688115403056145,0.004889563657343388
1751013936218168300,8.241168212890624,0.047869786620140076,0.012459333054721355,0.024325579404830933
1751013936228111400,8.251111328125,0.05025624483823776,0.0010636665392667055,0.04050241783261299
1751013936238055200,8.26105517578125,0.040579915046691895,-0.012321647256612778,0.050753459334373474
1751013936247999200,8.270999267578125,0.0282734502106905,-0.021376661956310272,0.061338458210229874
1751013936257942300,8.2809423828125,0.01636086404323578,-0.022588932886719704,0.05757647752761841
1751013936267886000,8.290885986328124,0.0021491709630936384,-0.040720000863075256,0.043719783425331116
1751013936277829000,8.3008291015625,-0.010610832832753658,-0.051900215446949005,0.022893598303198814
1751013936287773200,8.310773193359376,-0.02111487276852131,-0.048418931663036346,-0.00012623383372556418
1751013936297717200,8.32071728515625,-0.020744692534208298,-0.04129364341497421,-0.021040836349129677
1751013936307660300,8.330660400390625,-0.007211840245872736,-0.029684126377105713,-0.03027401678264141
1751013936317604400,8.340604248046875,0.006506635341793299,-0.017608288675546646,-0.02617541141808033
1751013936327548200,8.350548095703125,0.01480531133711338,-0.011722169816493988,-0.01146757137030363
1751013936337491200,8.3604912109375,0.02317189797759056,-0.009285910055041313,0.012091283686459064
1751013936347435300,8.370435302734375,0.029338181018829346,0.008589493110775948,0.03569195047020912
1751013936357378300,8.38037841796875,0.03191132843494415,0.0061535001732409,0.041318945586681366
1751013936367322000,8.390322021484375,0.03158722072839737,-0.017316140234470367,0.03635960444808006
1751013936377266200,8.40026611328125,0.022187594324350357,-0.019543606787919998,0.03558063134551048
1751013936387209200,8.410209228515624,0.017681792378425598,-0.006633135490119457,0.025312280282378197
1751013936397153000,8.420153076171875,0.013406353071331978,-0.0062616243958473206,0.008128500543534756
1751013936407097300,8.430097412109374,0.0065471152774989605,-0.01458932925015688,-0.011245463974773884
1751013936417040400,8.440040283203125,-0.0021025657188147306,-0.019457854330539703,-0.02154843509197235
1751013936426984200,8.449984130859375,-0.008500011637806892,-0.01290567871183157,-0.0223883967846632
1751013936436927200,8.45992724609375,-0.015367770567536354,-0.007437676191329956,-0.015230352059006691
1751013936446871300,8.469871337890625,-0.009591108188033104,-0.005368932615965605,-0.016291355714201927
1751013936456815400,8.4798154296875,0.002183792181313038,-0.01381195243448019,-0.01739710010588169
1751013936466758100,8.489758056640625,0.0099021652713418,-0.026204971596598625,-0.022849388420581818
1751013936476702200,8.4997021484375,0.023542610928416252,-0.0264824740588665,-0.021876003593206406
1751013936486645200,8.509645263671874,0.030830616131424904,-0.020065054297447205,-0.0076006618328392506
1751013936496589000,8.519589111328125,0.03352946415543556,-0.00714526092633605,-0.0067628310061991215
1751013936506533000,8.529533203125,0.03425544127821922,-0.005691441707313061,-0.015074556693434715
1751013936516476200,8.53947607421875,0.03429672122001648,-0.009893910028040409,-0.011690211482346058
1751013936526420200,8.549420166015626,0.03009478561580181,-0.0043806335888803005,-0.009166600182652473
1751013936536364300,8.5593642578125,0.025671008974313736,0.0016490293201059103,-0.001612544059753418
1751013936546307300,8.569307373046875,0.02040194347500801,-0.003088201628997922,0.007937018759548664
1751013936556251400,8.57925146484375,0.021407287567853928,-0.000556334329303354,0.02617860771715641
1751013936566194200,8.589194091796875,0.023003851994872093,-0.00014221279707271606,0.04441247135400772
1751013936576138200,8.59913818359375,0.024340493604540825,0.000592020689509809,0.05865319445729256
1751013936586082300,8.609082275390625,0.018021078780293465,-0.010221212171018124,0.05824226886034012
1751013936596025300,8.619025390625,0.011348261497914791,-0.025470206514000893,0.04333362355828285
1751013936605969200,8.62896923828125,0.00392842898145318,-0.03386422246694565,0.021999575197696686
1751013936615913200,8.638913330078125,0.0007550061563961208,-0.02809874527156353,-0.0019326560432091355
1751013936625856300,8.648856201171874,0.0057191383093595505,-0.003145193215459585,-0.013636716641485691
1751013936635800000,8.658800048828125,0.018821891397237778,0.02972274087369442,-0.023017168045043945
1751013936645743000,8.6687431640625,0.033239711076021194,0.05584222823381424,-0.025899240747094154
1751013936655687400,8.6786875,0.04435041919350624,0.06677477061748505,-0.021556423977017403
1751013936665631200,8.68863134765625,0.04186249524354935,0.06749408692121506,-0.01031735260039568
1751013936675574300,8.69857421875,0.03280534967780113,0.05142723768949509,-0.0016447682864964008
1751013936685518300,8.708518310546875,0.016630375757813454,0.043835099786520004,-0.006902114488184452
1751013936695461400,8.71846142578125,0.012042282149195671,0.0307544507086277,-0.022217687219381332
1751013936705405200,8.7284052734375,0.008734369650483131,0.014888135716319084,-0.031000792980194092
1751013936715349200,8.738349365234376,0.0041436124593019485,0.008921589702367783,-0.02828889526426792
1751013936725292300,8.748292236328124,0.0039880839176476,0.01811535470187664,-0.020256003364920616
1751013936735236000,8.758236083984375,0.014811969362199306,0.031243406236171722,-0.0057553574442863464
1751013936745180200,8.76818017578125,0.02719513513147831,0.04241164028644562,0.00541340745985508
1751013936755123200,8.778123291015625,0.03561631590127945,0.05589016526937485,0.000059388490626588464
1751013936765067300,8.7880673828125,0.03321840614080429,0.06732364743947983,-0.009060606360435486
1751013936775010300,8.79801025390625,0.031683627516031265,0.06565064936876297,-0.02521187998354435
1751013936784954400,8.807954345703125,0.02201661840081215,0.05073321983218193,-0.0356711782515049
1751013936794898200,8.817898193359374,0.011517106555402279,0.03326607868075371,-0.03832715004682541
1751013936804841200,8.82784130859375,-0.003578755771741271,0.013354155234992504,-0.0292377807199955
1751013936814785300,8.837785400390626,-0.0181150883436203,-0.002855974016711116,-0.007523430045694113
1751013936824725500,8.8477255859375,-0.028870530426502228,-0.015064703300595284,0.017665280029177666
1751013936834668300,8.857668212890625,-0.03882090002298355,-0.02243952825665474,0.029797576367855072
1751013936844612600,8.867612548828125,-0.035844817757606506,-0.015989085659384727,0.02883324585855007
1751013936854555400,8.877555419921874,-0.02437884360551834,0.0012423646403476596,0.021950839087367058
1751013936864499500,8.88749951171875,-0.004534564446657896,0.012089420109987259,0.010295514017343521
1751013936874443500,8.897443603515624,0.012377840466797352,0.02340572327375412,-0.0046237800270318985
1751013936884386600,8.907386474609375,0.0350746288895607,0.03729197755455971,-0.008890696801245213
1751013936894330600,8.91733056640625,0.047868989408016205,0.04290405660867691,-0.006983607076108456
1751013936904273400,8.9272734375,0.04760906472802162,0.03578702732920647,-0.007730357814580202
1751013936914217500,8.937217529296875,0.04321325197815895,0.01625327207148075,-0.004977447912096977
1751013936924161500,8.94716162109375,0.03657505661249161,0.005330583080649376,0.004363323096185923
1751013936934104300,8.957104248046875,0.038060300052165985,0.016400277614593506,0.016877783462405205
1751013936944048400,8.96704833984375,0.025379924103617668,0.007962585426867008,0.01167183555662632
1751013936953992400,8.976992431640625,0.010393252596259117,-0.017125723883509636,-0.00004261057620169595
1751013936963935500,8.986935546875,-0.009632387198507786,-0.03211798891425133,-0.0075426045805215836
1751013936973879600,8.996879638671874,-0.022481873631477356,-0.024828650057315826,0.0005576659459620714
1751013936983822600,9.006822509765625,-0.018607240170240402,-0.018981147557497025,0.009489108808338642
1751013936993766700,9.0167666015625,-0.009905361570417881,-0.009577259421348572,0.017288442701101303
1751013937003710500,9.02671044921875,0.0004753742541652173,-0.0022093583829700947,0.018676215782761574
1751013937013653500,9.036653564453125,0.005626460537314415,0.00794447585940361,-0.00042823629337362945
1751013937023597600,9.04659765625,0.0025627599097788334,0.003712712787091732,-0.03292679041624069
1751013937033541400,9.056541259765625,0.004483964294195175,-0.004600610584020615,-0.06064683571457863
1751013937043484400,9.066484375,0.008905078284442425,-0.00020985709852539003,-0.06979292631149292
1751013937053428500,9.076428466796875,0.009372462518513203,0.013154949992895126,-0.06518832594156265
1751013937063371500,9.08637158203125,0.00836525484919548,0.0047090016305446625,-0.051713261753320694
1751013937073315300,9.0963154296875,0.0002721750643104315,-0.013289973139762878,-0.03226765990257263
1751013937083259600,9.106259765625,-0.003677292726933956,-0.02255910448729992,-0.005449360236525536
1751013937093202700,9.11620263671875,-0.0027987160719931126,-0.03711807355284691,0.015870574861764908
1751013937103146500,9.126146484375,0.005615541245788336,-0.05486191809177399,0.03561152517795563
1751013937113090600,9.136090576171876,0.00896792858839035,-0.05046556890010834,0.055331166833639145
1751013937123033600,9.14603369140625,0.02087944932281971,-0.0269466619938612,0.056113071739673615
1751013937132977400,9.155977294921875,0.03453880175948143,-0.012922456488013268,0.05012441799044609
1751013937142920400,9.16592041015625,0.04590863734483719,-0.0001739044237183407,0.028197815641760826
1751013937152864500,9.175864501953125,0.06372065842151642,0.00654631620272994,0.016922257840633392
1751013937162808300,9.185808349609376,0.07176819443702698,0.024632109329104424,0.0034698324743658304
1751013937172751400,9.19575146484375,0.07260017096996307,0.02977600507438183,-0.002357163932174444
1751013937182695400,9.2056953125,0.06276564300060272,0.026758909225463867,-0.014649782329797745
1751013937192639500,9.215639404296875,0.05294284224510193,0.023802535608410835,-0.01841868832707405
1751013937202582500,9.22558251953125,0.04607348516583443,0.014868960715830326,-0.017763817682862282
1751013937212526600,9.235526611328124,0.032101210206747055,0.003224821761250496,-0.00942279677838087
1751013937222469600,9.2454697265625,0.01503940299153328,0.004734035115689039,0.007253651972860098
1751013937232413400,9.255413330078126,0.002035187790170312,0.01338691171258688,0.026102174073457718
1751013937242357500,9.265357421875,0.006179066374897957,0.018323080614209175,0.030614634975790977
1751013937252300500,9.275300537109375,0.022792663425207138,0.02082219161093235,0.03651353716850281
1751013937262244400,9.285244384765624,0.04207421466708183,0.033483389765024185,0.0351414754986763
1751013937272187400,9.2951875,0.046975232660770416,0.04622475430369377,0.021093567833304405
1751013937282131500,9.30513134765625,0.044605549424886703,0.04897233471274376,0.007523163687437773
1751013937292075500,9.315075439453125,0.04011546075344086,0.04927167668938637,-0.007835552096366882
1751013937302018300,9.325018310546875,0.036425650119781494,0.048880722373723984,-0.014336861670017242
1751013937311962400,9.33496240234375,0.032701220363378525,0.03592497855424881,-0.01375016663223505
1751013937321906700,9.34490673828125,0.03027188591659069,0.02123551443219185,-0.005502623505890369
1751013937331849500,9.354849365234376,0.04018843173980713,0.002828809665516019,0.027658792212605476
1751013937341793500,9.36479345703125,0.03967497497797012,-0.015748070552945137,0.07286488264799118
1751013937351736600,9.374736572265626,0.018314026296138763,-0.03645388036966324,0.11038589477539062
1751013937361680400,9.384680419921875,-0.008087221533060074,-0.06448551267385483,0.12278637290000916
1751013937371624400,9.39462451171875,-0.026728816330432892,-0.08851096034049988,0.12243696302175522
1751013937381567500,9.4045673828125,-0.04229925200343132,-0.10049465298652649,0.10388405621051788
1751013937391511600,9.414511474609375,-0.0399404913187027,-0.08611491322517395,0.07882930338382721
1751013937401455400,9.424455322265626,-0.02545209601521492,-0.06435608863830566,0.05413514003157616
1751013937411398400,9.4343984375,-0.012495817616581917,-0.04343162849545479,0.02160249650478363
1751013937421342500,9.444342529296875,0.007001716643571854,-0.020904483273625374,-0.010640127584338188
1751013937431285500,9.454285400390624,0.017655426636338234,-0.011788216419517994,-0.03897642716765404
1751013937441229600,9.4642294921875,0.02629152499139309,-0.00987260416150093,-0.05800258368253708
1751013937451173600,9.474173583984374,0.023932762444019318,-0.01582104153931141,-0.06864617019891739
1751013937461116700,9.48411669921875,0.01901363767683506,-0.028985578566789627,-0.07636747509241104
1751013937471060500,9.494060546875,0.013105415739119053,-0.034451983869075775,-0.08242856711149216
1751013937481004500,9.504004638671875,0.005275988485664129,-0.04231097176671028,-0.08510024845600128
1751013937490947600,9.513947509765625,-0.014503308571875095,-0.05151192843914032,-0.09173231571912766
1751013937500891400,9.523891357421874,-0.020782243460416794,-0.06327297538518906,-0.08613967895507812
1751013937510834400,9.53383447265625,-0.01846529357135296,-0.05834666267037392,-0.07029599696397781
1751013937520778500,9.543778564453126,-0.0037816886324435472,-0.03357527032494545,-0.0475400872528553
1751013937530722300,9.553722412109375,0.023855265229940414,-0.010938667692244053,-0.02586941421031952
1751013937540665300,9.563665283203125,0.04913904890418053,0.006046174559742212,-0.009012402966618538
1751013937550609700,9.573609619140624,0.05305123329162598,0.021091703325510025,-0.007910387590527534
1751013937560553500,9.583553466796875,0.05849260464310646,0.030371220782399178,-0.007822503335773945
1751013937570496500,9.59349658203125,0.061414625495672226,0.03308551385998726,-0.007867776788771152
1751013937580440600,9.603440673828125,0.056293364614248276,0.030523020774126053,-0.012055064551532269
1751013937590383600,9.613383544921875,0.04668095335364342,0.020548950880765915,-0.019872240722179413
1751013937600327400,9.623327392578124,0.03371588513255119,0.00501020485535264,-0.031861793249845505
1751013937610271500,9.633271484375,0.017473265528678894,-0.017713749781250954,-0.039385490119457245
1751013937620214500,9.643214599609376,-0.006472812965512276,-0.029766950756311417,-0.04402844235301018
1751013937630158300,9.653158447265625,-0.025857962667942047,-0.036317527294158936,-0.03828427195549011
1751013937640102400,9.663102294921876,-0.02527366578578949,-0.03797241672873497,-0.026336532086133957
1751013937650045400,9.67304541015625,-0.015120629221200943,-0.028719529509544373,-0.00999324582517147
1751013937659989500,9.682989501953125,-0.006779609248042107,-0.010483266785740852,-0.0020607539918273687
1751013937669932500,9.6929326171875,0.010063286870718002,0.001728924224153161,-0.006712231319397688
1751013937679876600,9.702876708984375,0.027695277705788612,0.013643373735249043,-0.014672153629362583
1751013937689820400,9.7128203125,0.04243374243378639,0.0200986098498106,-0.019041068851947784
1751013937699763500,9.722763427734375,0.046784281730651855,0.03019784949719906,-0.0270121768116951
1751013937709707500,9.73270751953125,0.04638693854212761,0.03797348216176033,-0.036858949810266495
1751013937719650600,9.742650634765624,0.04783117026090622,0.035292476415634155,-0.043777573853731155
1751013937729594400,9.752594482421875,0.0367303192615509,0.020506074652075768,-0.043169308453798294
1751013937739538400,9.762538330078126,0.0197468064725399,0.008217183873057365,-0.03924567252397537
1751013937749481500,9.7724814453125,0.004314853344112635,-0.004336957819759846,-0.03155073523521423
1751013937759425300,9.78242529296875,-0.0008434231276623905,-0.011234012432396412,-0.012770656496286392
1751013937769369600,9.79236962890625,-0.006833404768258333,-0.011986355297267437,-0.009370066225528717
1751013937779312400,9.8023125,-0.006667223758995533,-0.006681604776531458,-0.014977884478867054
1751013937789256400,9.81225634765625,-0.007653392385691404,-0.004038683604449034,-0.04015567526221275
1751013937799200500,9.822200439453125,-0.0029766152147203684,-0.013295565731823444,-0.06386899203062057
1751013937809143600,9.8321435546875,-0.00615163566544652,-0.023815317079424858,-0.07996673882007599
1751013937819087600,9.842087646484375,-0.005065598525106907,-0.02960636094212532,-0.07895633578300476
1751013937829031200,9.85203125,-0.011358914896845818,-0.019340142607688904,-0.07244677096605301
1751013937838975200,9.861975341796875,-0.016621055081486702,-0.01649189181625843,-0.06361386179924011
1751013937848919000,9.8719189453125,-0.01411448698490858,-0.014281733892858028,-0.05952564626932144
1751013937858862000,9.881862060546876,-0.017838384956121445,-0.009852631017565727,-0.05939994379878044
1751013937868806100,9.89180615234375,-0.016880180686712265,-0.003980893176048994,-0.04993799701333046
1751013937878749200,9.901749267578126,-0.017736652866005898,0.003906058380380273,-0.04107792675495148
1751013937888693000,9.91169287109375,-0.019584620371460915,0.007050186395645142,-0.03413426876068115
1751013937898637300,9.92163720703125,-0.02046559378504753,0.00526773277670145,-0.03602484613656998
1751013937908580400,9.931580322265624,-0.014644456095993519,-0.00004926848123432137,-0.03298431634902954
1751013937918524200,9.941524169921875,-0.006506368983536959,-0.0070334081538021564,-0.032940905541181564
1751013937928468200,9.95146826171875,-0.003061569994315505,-0.005249090492725372,-0.03310655429959297
1751013937938411300,9.961411376953125,-0.0030309436842799187,-0.0022501046769320965,-0.029457490891218185
1751013937948355000,9.97135498046875,0.0017486315919086337,0.0019497001776471734,-0.020539097487926483
1751013937958298000,9.981298095703124,0.002112685702741146,0.008586297743022442,-0.011008176021277905
1751013937968242200,9.9912421875,0.010276606306433678,0.015505989082157612,-0.009790845215320587
1751013937978186200,10.001186279296874,0.014027135446667671,0.024692563340067863,-0.008536496199667454
1751013937988129000,10.01112890625,0.017119064927101135,0.0286412313580513,-0.024524250999093056
1751013937998073000,10.021072998046876,0.016619989648461342,0.030411701649427414,-0.039732497185468674
1751013938008017400,10.031017333984375,0.013640977442264557,0.023904534056782722,-0.049729473888874054
1751013938017960200,10.040960205078125,0.009286975488066673,0.019084744155406952,-0.05223790556192398
1751013938027904300,10.050904296875,0.010007093660533428,0.013883857987821102,-0.04164944216609001
1751013938037847300,10.060847412109375,0.010127735324203968,0.010205233469605446,-0.014666561037302017
1751013938047791400,10.070791259765626,0.010628143325448036,0.0018788601737469435,0.014628477394580841
1751013938057735200,10.080735107421875,0.01258130557835102,-0.009692308492958546,0.044975463300943375
1751013938067678200,10.09067822265625,0.00851332675665617,-0.008097341284155846,0.06619446724653244
1751013938077622300,10.100622314453124,0.006293049547821283,-0.003704723436385393,0.07659757137298584
1751013938087566000,10.110566162109375,-0.002817091764882207,0.0005318332696333528,0.05338839069008827
1751013938097509000,10.120509033203126,-0.007387342397123575,-0.002344646956771612,0.006079730577766895
1751013938107453200,10.130453125,-0.01188142690807581,-0.010785269550979137,-0.04259512946009636
1751013938117396200,10.140396240234375,-0.008303469978272915,-0.008860336616635323,-0.08043678849935532
1751013938127340000,10.150340087890624,-0.003145459573715925,-0.010783671401441097,-0.0869828388094902
1751013938137284400,10.160284423828125,-0.0014860439114272594,-0.003719637170433998,-0.07442869246006012
1751013938147227400,10.170227294921874,-0.003486344125121832,0.002544117858633399,-0.049732137471437454
1751013938157171200,10.180171142578125,-0.005277319811284542,0.0013792511308565736,-0.017702830955386162
1751013938167115300,10.190115234375,-0.0024051007349044085,0.0037910097744315863,0.017434384673833847
1751013938177058300,10.200058349609375,0.004584365524351597,0.011438010260462761,0.04656803607940674
1751013938187002000,10.210002197265625,0.009358348324894905,0.01846715807914734,0.05860285833477974
1751013938196945200,10.219945068359374,0.013788516633212566,0.02160862274467945,0.04298128932714462
1751013938206889200,10.22988916015625,0.018697520717978477,0.026260899379849434,0.007151652593165636
1751013938216833000,10.2398330078125,0.025168202817440033,0.027909662574529648,-0.031149929389357567
1751013938226776000,10.249776123046875,0.02394900843501091,0.03394997864961624,-0.06370387971401215
1751013938236720000,10.25972021484375,0.0177539624273777,0.027712320908904076,-0.09366390854120255
1751013938246664200,10.269664306640625,0.019054917618632317,0.021332984790205956,-0.0941464751958847
1751013938256607200,10.279607177734375,0.014215687289834023,0.014397314749658108,-0.06931542605161667
1751013938266551300,10.28955126953125,0.010017747059464455,0.004634166602045298,-0.03110252507030964
1751013938276494300,10.299494384765625,-0.004107926040887833,-0.005449360236525536,0.011550129391252995
1751013938286438100,10.309438232421876,-0.01116423774510622,-0.014181332662701607,0.04158765822649002
1751013938296382200,10.31938232421875,-0.015962455421686172,-0.016876718029379845,0.06515397131443024
1751013938306325200,10.3293251953125,-0.018691662698984146,-0.004577441141009331,0.06720273941755295
1751013938316269000,10.33926904296875,-0.00914209894835949,0.014074806123971939,0.04331285133957863
1751013938326213000,10.349213134765625,0.012722719460725784,0.02760952338576317,0.00694978516548872
1751013938336156200,10.35915625,0.02796904928982258,0.04175969585776329,-0.028389563784003258
1751013938346100000,10.369099853515625,0.03702699393033981,0.045876678079366684,-0.05615461617708206
1751013938356043000,10.37904296875,0.03386502340435982,0.045702505856752396,-0.06656091660261154
1751013938365987300,10.3889873046875,0.022550050169229507,0.03940839320421219,-0.057259026914834976
1751013938375931100,10.39893115234375,0.01284522470086813,0.024294154718518257,-0.04200097918510437
1751013938385874200,10.408874267578126,-0.007050186395645142,0.01347586140036583,-0.019761720672249794
1751013938395818200,10.418818359375,-0.017597369849681854,0.0034850125666707754,-0.002026133006438613
1751013938405762300,10.42876220703125,-0.01894865743815899,-0.0060293967835605145,0.010556237772107124
1751013938415705000,10.438705078125,-0.017108146101236343,-0.00879002921283245,0.019887421280145645
1751013938425649200,10.448649169921875,-0.008976717479526997,0.0021869877818971872,0.023193469271063805
1751013938435592200,10.45859228515625,0.011577825993299484,0.012665728107094765,0.013576528988778591
1751013938445536300,10.468536376953125,0.02395060658454895,0.022066153585910797,-0.002718554809689522
1751013938455480000,10.47847998046875,0.021861622110009193,0.0260465145111084,-0.020917000249028206
1751013938465423000,10.488423095703125,0.02008902281522751,0.028734441846609116,-0.03665788099169731
1751013938475367400,10.498367431640625,0.018136393278837204,0.028503812849521637,-0.03777161240577698
1751013938485311200,10.508311279296874,0.022296516224741936,0.03983449935913086,-0.03858787193894386
1751013938495254300,10.518254150390625,0.022887472063302994,0.05046983063220978,-0.04397624731063843
1751013938505198300,10.5281982421875,0.023320501670241356,0.052919406443834305,-0.05590720847249031
1751013938515141400,10.538141357421875,0.013306218199431896,0.04686471074819565,-0.06123565882444382
1751013938525085200,10.548085205078126,0.0006838997360318899,0.024821460247039795,-0.053770288825035095
1751013938535029200,10.558029296875,-0.01635553687810898,0.01239435188472271,-0.03021116554737091
1751013938544972300,10.56797216796875,-0.02365100011229515,0.016859672963619232,-0.00902385450899601
1751013938554916000,10.577916015625,-0.025914687663316727,0.02136947028338909,-0.00007403588097076863
1751013938564860200,10.587860107421875,-0.02262142300605774,0.026087259873747826,-0.009532518684864044
1751013938574803200,10.59780322265625,-0.02220330573618412,0.0374847911298275,-0.041734129190444946
1751013938584747000,10.6077470703125,-0.012060125358402729,0.054300788789987564,-0.07133330404758453
1751013938594690000,10.61768994140625,-0.00010492854926269501,0.07161293178796768,-0.0949811041355133
1751013938604634400,10.62763427734375,0.0023009711876511574,0.0771578997373581,-0.08940497785806656
1751013938614578200,10.637578125,0.004211523104459047,0.08071668446063995,-0.06422878801822662
1751013938624521200,10.647521240234376,0.0026788737159222364,0.08175638318061829,-0.03190626576542854
1751013938634465300,10.65746533203125,-0.00435986090451479,0.07541459798812866,-0.011148524470627308
1751013938644409000,10.6674091796875,-0.004792358260601759,0.06925071030855179,-0.0034756914246827364
1751013938654352100,10.67735205078125,-0.003917243797332048,0.07018787413835526,-0.007342068944126368
1751013938664296200,10.687296142578125,0.0043321643024683,0.07977818697690964,-0.01968155987560749
1751013938674239200,10.6972392578125,0.013048424385488033,0.07891878485679626,-0.030176544561982155
1751013938684183000,10.70718310546875,0.00893756840378046,0.06246364489197731,-0.0315328910946846
1751013938694127000,10.717127197265626,-0.015634354203939438,0.15570011734962463,0.10329575836658478
1751013938704070100,10.727070068359374,-0.05668911337852478,0.09791910648345947,0.22176063060760498
1751013938714014200,10.73701416015625,-0.07444946467876434,-0.09883204102516174,0.18130961060523987
1751013938723958300,10.746958251953124,-0.062782421708107,-0.10356207937002182,0.13956162333488464
1751013938733901300,10.7569013671875,-0.030431408435106277,-0.08275985717773438,0.07854939997196198
1751013938743845000,10.76684521484375,-0.006625678390264511,-0.0935288816690445,-0.018639730289578438
1751013938753788200,10.7767880859375,0.0073593794368207455,-0.08629494160413742,-0.1199897900223732
1751013938763732200,10.786732177734375,0.017618674784898758,-0.06388843804597855,-0.20428229868412018
1751013938773676000,10.796676025390624,0.030401581898331642,-0.04758935794234276,-0.2515709698200226
1751013938783619000,10.806619140625,0.03334304317831993,-0.01004863902926445,-0.24079103767871857
1751013938793563100,10.816563232421874,0.024515995755791664,0.011248127557337284,-0.1714673638343811
