time,seconds_elapsed,z,y,x
1751013773841617400,0.103617431640625,-1.008270263671875,-0.1443023681640625,-0.0627899169921875
1751013773851560400,0.113560546875,-1.0093994140625,-0.14471435546875,-0.0610198974609375
1751013773861504300,0.123504150390625,-1.0088043212890625,-0.1445159912109375,-0.0587158203125
1751013773871447300,0.133447265625,-1.012176513671875,-0.14239501953125,-0.061553955078125
1751013773881391400,0.143391357421875,-1.012420654296875,-0.14404296875,-0.0597686767578125
1751013773891334400,0.15333447265625,-1.0088653564453125,-0.14752197265625,-0.0575103759765625
1751013773901277200,0.163277099609375,-1.0109100341796875,-0.1463775634765625,-0.054901123046875
1751013773911221200,0.17322119140625,-1.0149688720703125,-0.1468353271484375,-0.0583038330078125
1751013773921164300,0.183164306640625,-1.01116943359375,-0.1512603759765625,-0.061920166015625
1751013773931108400,0.1931083984375,-1.0060882568359375,-0.1528778076171875,-0.0563201904296875
1751013773941051100,0.203051025390625,-1.00311279296875,-0.1486358642578125,-0.0513763427734375
1751013773950994200,0.212994140625,-1.0036468505859375,-0.153045654296875,-0.04425048828125
1751013773960938200,0.222938232421875,-1.000244140625,-0.1561126708984375,-0.0379638671875
1751013773970881300,0.23288134765625,-0.997283935546875,-0.1500396728515625,-0.0373992919921875
1751013773980825000,0.2428251953125,-1.0012664794921875,-0.14678955078125,-0.038665771484375
1751013773990768000,0.25276806640625,-1.00750732421875,-0.147216796875,-0.0415191650390625
1751013774000711200,0.262711181640625,-1.0113067626953125,-0.1474456787109375,-0.0425567626953125
1751013774010655200,0.2726552734375,-1.0122222900390625,-0.1433868408203125,-0.0451507568359375
1751013774020598300,0.282598388671875,-1.0135040283203125,-0.137481689453125,-0.043701171875
1751013774030542300,0.292542236328125,-1.0124664306640625,-0.1331024169921875,-0.0421295166015625
1751013774040485400,0.3024853515625,-1.010711669921875,-0.131317138671875,-0.03887939453125
1751013774050428400,0.312428466796875,-1.0082550048828125,-0.1327362060546875,-0.03271484375
1751013774060372500,0.32237255859375,-1.007415771484375,-0.138763427734375,-0.0354461669921875
1751013774070315300,0.332315185546875,-1.0052490234375,-0.14093017578125,-0.0409698486328125
1751013774080259300,0.34225927734375,-1.0022735595703125,-0.1411590576171875,-0.0421905517578125
1751013774090202400,0.352202392578125,-0.997222900390625,-0.1429595947265625,-0.03912353515625
1751013774100145400,0.3621455078125,-0.993133544921875,-0.1423492431640625,-0.03656005859375
1751013774110089200,0.372089111328125,-0.9916229248046875,-0.13897705078125,-0.031341552734375
1751013774120032300,0.3820322265625,-0.991180419921875,-0.135162353515625,-0.030670166015625
1751013774129976300,0.391976318359375,-0.9921722412109375,-0.13714599609375,-0.029266357421875
1751013774139919400,0.40191943359375,-0.9930877685546875,-0.1401519775390625,-0.0282745361328125
1751013774149863200,0.41186328125,-0.99322509765625,-0.140625,-0.028533935546875
1751013774159806200,0.42180615234375,-0.99420166015625,-0.14154052734375,-0.0309906005859375
1751013774169749200,0.431749267578125,-0.9917144775390625,-0.141265869140625,-0.02984619140625
1751013774179693300,0.441693359375,-0.985748291015625,-0.1421661376953125,-0.0279693603515625
1751013774189636400,0.45163623046875,-0.985382080078125,-0.13983154296875,-0.0240936279296875
1751013774199580200,0.461580078125,-0.98614501953125,-0.1347503662109375,-0.0229339599609375
1751013774209523200,0.471523193359375,-0.9862823486328125,-0.1323394775390625,-0.02276611328125
1751013774219466200,0.48146630859375,-0.99072265625,-0.131591796875,-0.0229644775390625
1751013774229410000,0.49141015625,-0.9946441650390625,-0.129119873046875,-0.0268096923828125
1751013774239353000,0.50135302734375,-1.0027008056640625,-0.1240386962890625,-0.0304107666015625
1751013774249297400,0.51129736328125,-1.0073089599609375,-0.122161865234375,-0.0340118408203125
1751013774259240400,0.521240478515625,-1.013153076171875,-0.122467041015625,-0.03863525390625
1751013774269183500,0.53118359375,-1.02044677734375,-0.1185150146484375,-0.03741455078125
1751013774279127300,0.541127197265625,-1.0237274169921875,-0.1150054931640625,-0.033905029296875
1751013774289070300,0.5510703125,-1.0215301513671875,-0.111846923828125,-0.0316162109375
1751013774299014400,0.561014404296875,-1.0236053466796875,-0.1087493896484375,-0.0265350341796875
1751013774308957400,0.57095751953125,-1.0302886962890625,-0.1053009033203125,-0.0244293212890625
1751013774318901200,0.5809013671875,-1.0301055908203125,-0.10137939453125,-0.0214691162109375
1751013774328844300,0.59084423828125,-1.0268096923828125,-0.0965728759765625,-0.020263671875
1751013774338787300,0.600787353515625,-1.0266571044921875,-0.0952606201171875,-0.0229034423828125
1751013774348731400,0.6107314453125,-1.02069091796875,-0.0989532470703125,-0.0220794677734375
1751013774358674200,0.620674072265625,-1.012939453125,-0.104827880859375,-0.0172271728515625
1751013774368618200,0.6306181640625,-1.0051116943359375,-0.1107177734375,-0.0127105712890625
1751013774378561300,0.640561279296875,-1.0006256103515625,-0.1144561767578125,-0.010711669921875
1751013774388504300,0.65050439453125,-1.0003662109375,-0.11749267578125,-0.0128936767578125
1751013774398448000,0.6604482421875,-0.9994049072265625,-0.1222381591796875,-0.0164337158203125
1751013774408391200,0.67039111328125,-1.000274658203125,-0.1217498779296875,-0.0177001953125
1751013774418335200,0.680335205078125,-1.004364013671875,-0.1181488037109375,-0.017303466796875
1751013774428278300,0.6902783203125,-1.0084991455078125,-0.11322021484375,-0.018096923828125
1751013774438221300,0.70022119140625,-1.004638671875,-0.108856201171875,-0.022125244140625
1751013774448165000,0.7101650390625,-1.0050048828125,-0.1047821044921875,-0.022369384765625
1751013774458108200,0.720108154296875,-1.00384521484375,-0.105743408203125,-0.0227203369140625
1751013774468052500,0.730052490234375,-0.9981536865234375,-0.1093597412109375,-0.0210723876953125
1751013774477995500,0.73999560546875,-0.995849609375,-0.1138916015625,-0.01947021484375
1751013774487939300,0.749939208984375,-0.993896484375,-0.119171142578125,-0.020416259765625
1751013774497882400,0.75988232421875,-0.990966796875,-0.1242828369140625,-0.0199127197265625
1751013774507825400,0.769825439453125,-0.987274169921875,-0.1280670166015625,-0.02032470703125
1751013774517769200,0.779769287109375,-0.98828125,-0.12945556640625,-0.016998291015625
1751013774527712300,0.789712158203125,-0.986541748046875,-0.127716064453125,-0.0137786865234375
1751013774537656300,0.79965625,-0.985260009765625,-0.12835693359375,-0.015167236328125
1751013774547599400,0.809599365234375,-0.98614501953125,-0.12469482421875,-0.015625
1751013774557542400,0.81954248046875,-0.9870758056640625,-0.122039794921875,-0.0183868408203125
1751013774567486200,0.829486328125,-0.990875244140625,-0.1208953857421875,-0.0167999267578125
1751013774577429200,0.83942919921875,-0.996063232421875,-0.1153106689453125,-0.013336181640625
1751013774587373300,0.849373291015625,-1.0012359619140625,-0.108001708984375,-0.0141143798828125
1751013774597316400,0.85931640625,-1.0028228759765625,-0.1041717529296875,-0.017822265625
1751013774607259400,0.86925927734375,-1.006927490234375,-0.1022186279296875,-0.01788330078125
1751013774617203200,0.879203125,-1.0146331787109375,-0.101226806640625,-0.018646240234375
1751013774627146200,0.889146240234375,-1.0181884765625,-0.102294921875,-0.0204315185546875
1751013774637090300,0.89909033203125,-1.020721435546875,-0.1024627685546875,-0.0196533203125
1751013774647033000,0.909033203125,-1.0256195068359375,-0.103363037109375,-0.017852783203125
1751013774656977200,0.91897705078125,-1.02630615234375,-0.106292724609375,-0.01751708984375
1751013774666920000,0.928919921875,-1.02679443359375,-0.104339599609375,-0.012664794921875
1751013774676863000,0.938863037109375,-1.0343170166015625,-0.0997772216796875,-0.01007080078125
1751013774686807000,0.94880712890625,-1.036773681640625,-0.097076416015625,-0.01025390625
1751013774696749800,0.958749755859375,-1.0404815673828125,-0.088653564453125,-0.0078277587890625
1751013774706694000,0.96869384765625,-1.040496826171875,-0.0827178955078125,-0.0096588134765625
1751013774716637000,0.978636962890625,-1.0379180908203125,-0.0811920166015625,-0.013885498046875
1751013774726580000,0.988580078125,-1.0332489013671875,-0.0824737548828125,-0.0179290771484375
1751013774736523800,0.998523681640625,-1.0247039794921875,-0.087493896484375,-0.0170440673828125
1751013774746466800,1.008466796875,-1.0159149169921875,-0.0938568115234375,-0.0181121826171875
1751013774756411000,1.018410888671875,-1.0082855224609375,-0.1004638671875,-0.019134521484375
1751013774766354000,1.02835400390625,-1.008819580078125,-0.1037445068359375,-0.018280029296875
1751013774776297000,1.038296875,-1.00689697265625,-0.110931396484375,-0.0165863037109375
1751013774786241000,1.048240966796875,-1.0038299560546875,-0.1187591552734375,-0.014373779296875
1751013774796184000,1.05818408203125,-1.006195068359375,-0.122344970703125,-0.0153656005859375
1751013774806128000,1.068128173828125,-1.0080718994140625,-0.1226348876953125,-0.0190887451171875
1751013774816071000,1.07807080078125,-1.010711669921875,-0.12030029296875,-0.022064208984375
1751013774826015000,1.088014892578125,-1.014984130859375,-0.116790771484375,-0.028778076171875
1751013774835958000,1.0979580078125,-1.0166168212890625,-0.110809326171875,-0.0322418212890625
1751013774845901000,1.107901123046875,-1.0144500732421875,-0.1064910888671875,-0.03485107421875
1751013774855844900,1.117844970703125,-1.01275634765625,-0.1060943603515625,-0.033447265625
1751013774865788000,1.127787841796875,-1.01263427734375,-0.1049957275390625,-0.033599853515625
1751013774875732000,1.13773193359375,-1.010406494140625,-0.1071014404296875,-0.0326690673828125
1751013774885675000,1.147675048828125,-1.0072479248046875,-0.1094207763671875,-0.03125
1751013774895618000,1.1576181640625,-1.0027618408203125,-0.112701416015625,-0.0296173095703125
1751013774905561900,1.167561767578125,-0.99774169921875,-0.116302490234375,-0.02752685546875
1751013774915505000,1.1775048828125,-0.997589111328125,-0.117156982421875,-0.0229034423828125
1751013774925449000,1.187448974609375,-1.003692626953125,-0.117401123046875,-0.018035888671875
1751013774935392000,1.19739208984375,-1.002471923828125,-0.1179656982421875,-0.01617431640625
1751013774945334800,1.207334716796875,-1.00225830078125,-0.116424560546875,-0.0151519775390625
1751013774955278800,1.21727880859375,-1.011871337890625,-0.10760498046875,-0.01556396484375
1751013774965222000,1.227221923828125,-1.01806640625,-0.0983734130859375,-0.017242431640625
1751013774975166000,1.237166015625,-1.01458740234375,-0.097076416015625,-0.02392578125
1751013774985108700,1.247108642578125,-1.01690673828125,-0.09405517578125,-0.0257110595703125
1751013774995051800,1.2570517578125,-1.01666259765625,-0.0927276611328125,-0.0254364013671875
1751013775004996000,1.26699609375,-1.01031494140625,-0.09747314453125,-0.026153564453125
1751013775014939000,1.27693896484375,-1.0051422119140625,-0.102996826171875,-0.02532958984375
1751013775024883000,1.286883056640625,-1.000152587890625,-0.10882568359375,-0.0223541259765625
1751013775034826000,1.296825927734375,-0.994659423828125,-0.1163482666015625,-0.0189208984375
1751013775044770000,1.30677001953125,-0.9910430908203125,-0.1201019287109375,-0.0150299072265625
1751013775054713000,1.316713134765625,-0.99188232421875,-0.12353515625,-0.010040283203125
1751013775064656100,1.32665625,-0.9973602294921875,-0.12457275390625,-0.0049285888671875
1751013775074600000,1.336599853515625,-1.00299072265625,-0.1248626708984375,-0.00341796875
1751013775084543000,1.34654296875,-1.0087738037109375,-0.12469482421875,-0.006866455078125
1751013775094487000,1.356487060546875,-1.0100250244140625,-0.1273040771484375,-0.0092010498046875
1751013775104430000,1.36643017578125,-1.0145111083984375,-0.125640869140625,-0.0114288330078125
1751013775114372900,1.376372802734375,-1.0203399658203125,-0.119140625,-0.017059326171875
1751013775124317000,1.38631689453125,-1.021453857421875,-0.113311767578125,-0.018890380859375
1751013775134260000,1.396260009765625,-1.0217132568359375,-0.1083526611328125,-0.019561767578125
1751013775144203800,1.406203857421875,-1.0234222412109375,-0.1049346923828125,-0.0202484130859375
1751013775154146800,1.416146728515625,-1.0210723876953125,-0.101654052734375,-0.02294921875
1751013775164089900,1.42608984375,-1.0187530517578125,-0.0974884033203125,-0.0244140625
1751013775174034000,1.436033935546875,-1.0163421630859375,-0.0975494384765625,-0.0293426513671875
1751013775183977000,1.44597705078125,-1.007171630859375,-0.1031341552734375,-0.030670166015625
1751013775193920800,1.455920654296875,-1.0017547607421875,-0.105926513671875,-0.0320281982421875
1751013775203863800,1.46586376953125,-0.99639892578125,-0.1138763427734375,-0.0339202880859375
1751013775213808000,1.47580810546875,-0.9892730712890625,-0.1247711181640625,-0.03515625
1751013775223751000,1.4857509765625,-0.9868316650390625,-0.1327667236328125,-0.0333251953125
1751013775233694000,1.49569384765625,-0.9868011474609375,-0.135986328125,-0.0308074951171875
1751013775243638000,1.505637939453125,-0.9878387451171875,-0.137603759765625,-0.02728271484375
1751013775253581000,1.5155810546875,-0.9906463623046875,-0.1376953125,-0.0264739990234375
1751013775263525000,1.525525146484375,-0.9945220947265625,-0.1350860595703125,-0.027587890625
1751013775273468000,1.535468017578125,-0.994415283203125,-0.1327056884765625,-0.02947998046875
1751013775283411000,1.545410888671875,-0.9986419677734375,-0.130279541015625,-0.032989501953125
1751013775293355000,1.55535498046875,-1.00604248046875,-0.128143310546875,-0.03692626953125
1751013775303298000,1.565298095703125,-1.0078277587890625,-0.1263275146484375,-0.0371856689453125
1751013775313241900,1.575241943359375,-1.006103515625,-0.1282501220703125,-0.0350799560546875
1751013775323185000,1.585184814453125,-1.0042572021484375,-0.128997802734375,-0.0301971435546875
1751013775333128000,1.5951279296875,-1.003387451171875,-0.1286163330078125,-0.0261993408203125
1751013775343072000,1.605072021484375,-1.001953125,-0.1295928955078125,-0.024261474609375
1751013775353015000,1.61501513671875,-1.0022125244140625,-0.130401611328125,-0.0239715576171875
1751013775362958800,1.624958740234375,-1.00250244140625,-0.1280975341796875,-0.020538330078125
1751013775372902000,1.63490185546875,-1.00567626953125,-0.12548828125,-0.016632080078125
1751013775382845000,1.644844970703125,-1.00909423828125,-0.1230010986328125,-0.01470947265625
1751013775392789000,1.6547890625,-1.010833740234375,-0.117645263671875,-0.0142364501953125
1751013775402731800,1.664731689453125,-1.0127716064453125,-0.10894775390625,-0.0146636962890625
1751013775412675800,1.67467578125,-1.01617431640625,-0.101348876953125,-0.0147705078125
1751013775422619000,1.684618896484375,-1.0142669677734375,-0.09918212890625,-0.0181732177734375
1751013775432563000,1.69456298828125,-1.0090179443359375,-0.1004791259765625,-0.0205230712890625
1751013775442505700,1.704505615234375,-1.0067901611328125,-0.1026458740234375,-0.017364501953125
1751013775452448800,1.71444873046875,-1.0059661865234375,-0.1064910888671875,-0.01458740234375
1751013775462393000,1.72439306640625,-1.0023345947265625,-0.113616943359375,-0.0119171142578125
1751013775472336100,1.734336181640625,-1.001190185546875,-0.1175689697265625,-0.0098724365234375
1751013775482280000,1.744280029296875,-1.00335693359375,-0.11968994140625,-0.0085296630859375
1751013775492223000,1.754222900390625,-1.006256103515625,-0.1191253662109375,-0.0031585693359375
1751013775502166000,1.764166015625,-1.0102386474609375,-0.1193084716796875,-0.001953125
1751013775512110000,1.774110107421875,-1.012237548828125,-0.116180419921875,-0.0027008056640625
1751013775522053000,1.78405322265625,-1.0167694091796875,-0.11090087890625,-0.0076751708984375
1751013775531997000,1.793996826171875,-1.01751708984375,-0.108856201171875,-0.0115509033203125
1751013775541940000,1.80393994140625,-1.0174560546875,-0.110931396484375,-0.01385498046875
1751013775551883000,1.813883056640625,-1.0178070068359375,-0.111968994140625,-0.015289306640625
1751013775561827000,1.8238271484375,-1.011322021484375,-0.1154327392578125,-0.0174102783203125
1751013775571769900,1.833769775390625,-1.00640869140625,-0.1217498779296875,-0.0174713134765625
1751013775581714000,1.8437138671875,-1.0064544677734375,-0.1269073486328125,-0.0175018310546875
1751013775591657000,1.853656982421875,-1.002593994140625,-0.1341400146484375,-0.018524169921875
1751013775601600800,1.863600830078125,-0.9999237060546875,-0.1389617919921875,-0.020904541015625
1751013775611543800,1.873543701171875,-1.004058837890625,-0.1386871337890625,-0.0193634033203125
1751013775621486800,1.88348681640625,-1.002105712890625,-0.141571044921875,-0.0205535888671875
1751013775631431000,1.893430908203125,-0.9989776611328125,-0.142333984375,-0.02099609375
1751013775641374000,1.9033740234375,-1.00299072265625,-0.13604736328125,-0.0221710205078125
1751013775651317800,1.91331787109375,-1.007781982421875,-0.130706787109375,-0.0236663818359375
1751013775661260800,1.9232607421875,-1.006011962890625,-0.129241943359375,-0.025360107421875
1751013775671204400,1.933204345703125,-1.002410888671875,-0.1268463134765625,-0.0222015380859375
1751013775681148400,1.9431484375,-1.003753662109375,-0.1250762939453125,-0.0200042724609375
1751013775691091200,1.95309130859375,-1.001312255859375,-0.1259613037109375,-0.01953125
1751013775701035300,1.96303515625,-0.9986419677734375,-0.1285858154296875,-0.0155487060546875
1751013775710978300,1.972978271484375,-0.995635986328125,-0.12994384765625,-0.0137786865234375
1751013775720921300,1.98292138671875,-0.995269775390625,-0.12957763671875,-0.0088958740234375
1751013775730865200,1.992865234375,-0.9972076416015625,-0.127410888671875,-0.0079803466796875
1751013775740808200,2.00280810546875,-0.9997406005859375,-0.12548828125,-0.00799560546875
1751013775750752300,2.012752197265625,-1.0066375732421875,-0.125,-0.0089569091796875
1751013775760695300,2.0226953125,-1.010406494140625,-0.1234130859375,-0.0110626220703125
1751013775770639400,2.032639404296875,-1.01129150390625,-0.1220245361328125,-0.012847900390625
1751013775780582400,2.04258251953125,-1.012542724609375,-0.123687744140625,-0.018402099609375
1751013775790525400,2.052525390625,-1.0129547119140625,-0.124298095703125,-0.0191802978515625
1751013775800469500,2.062469482421875,-1.015533447265625,-0.12384033203125,-0.01544189453125
1751013775810412300,2.072412353515625,-1.0157928466796875,-0.1246795654296875,-0.016326904296875
1751013775820356400,2.0823564453125,-1.0126495361328125,-0.1243133544921875,-0.0197906494140625
1751013775830299400,2.09229931640625,-1.0113067626953125,-0.1238250732421875,-0.0187530517578125
1751013775840242400,2.102242431640625,-1.008758544921875,-0.12530517578125,-0.0172271728515625
1751013775850186200,2.112186279296875,-1.004119873046875,-0.1284027099609375,-0.0185394287109375
1751013775860129300,2.12212939453125,-1.002716064453125,-0.1312103271484375,-0.0194244384765625
1751013775870073300,2.1320732421875,-1.003448486328125,-0.132080078125,-0.0214691162109375
1751013775880016400,2.142016357421875,-1.0028228759765625,-0.135162353515625,-0.0225067138671875
1751013775889959400,2.15195947265625,-1.0057373046875,-0.1405487060546875,-0.02447509765625
1751013775899903200,2.1619033203125,-1.006011962890625,-0.1439971923828125,-0.0236358642578125
1751013775909846300,2.17184619140625,-1.0042877197265625,-0.1439971923828125,-0.0304718017578125
1751013775919790300,2.181790283203125,-1.004302978515625,-0.1429290771484375,-0.03021240234375
1751013775929733400,2.1917333984375,-1.0042877197265625,-0.1392669677734375,-0.02734375
1751013775939676200,2.20167626953125,-1.0004425048828125,-0.1378936767578125,-0.02203369140625
1751013775949620200,2.2116201171875,-1.0006256103515625,-0.138397216796875,-0.0180511474609375
1751013775959563300,2.221563232421875,-1.0016021728515625,-0.1369781494140625,-0.01788330078125
1751013775969507300,2.23150732421875,-1.000030517578125,-0.1358642578125,-0.0177001953125
1751013775979450000,2.2414501953125,-1.0019683837890625,-0.134735107421875,-0.0152435302734375
1751013775989394400,2.25139453125,-1.0077362060546875,-0.1351776123046875,-0.0162353515625
1751013775999337500,2.26133740234375,-1.0117034912109375,-0.137115478515625,-0.021484375
1751013776009280300,2.2712802734375,-1.0125732421875,-0.1376800537109375,-0.026702880859375
1751013776019224300,2.281224365234375,-1.0148162841796875,-0.135162353515625,-0.029296875
1751013776029167400,2.29116748046875,-1.0182037353515625,-0.1308746337890625,-0.028411865234375
1751013776039111400,2.301111328125,-1.0166778564453125,-0.1265106201171875,-0.028839111328125
1751013776049054500,2.311054443359375,-1.0137176513671875,-0.118896484375,-0.0305938720703125
1751013776058997500,2.32099755859375,-1.0116119384765625,-0.115325927734375,-0.0333404541015625
1751013776068941300,2.33094140625,-1.0072479248046875,-0.1169891357421875,-0.036224365234375
1751013776078884400,2.34088427734375,-1.0007171630859375,-0.1209259033203125,-0.0402984619140625
1751013776088828400,2.350828369140625,-0.99639892578125,-0.1276397705078125,-0.0396728515625
1751013776098771500,2.360771484375,-0.990142822265625,-0.13848876953125,-0.0370635986328125
1751013776108714200,2.37071435546875,-0.982666015625,-0.152069091796875,-0.0360260009765625
1751013776118658300,2.380658203125,-0.9850921630859375,-0.1533050537109375,-0.035980224609375
1751013776128601300,2.390601318359375,-0.9945220947265625,-0.149749755859375,-0.0320892333984375
1751013776138545200,2.400545166015625,-0.9975128173828125,-0.1483306884765625,-0.030181884765625
1751013776148488200,2.41048828125,-1.00177001953125,-0.1458892822265625,-0.02978515625
1751013776158432300,2.420432373046875,-1.0059051513671875,-0.1414794921875,-0.0338592529296875
1751013776168375300,2.430375244140625,-1.0075531005859375,-0.13623046875,-0.0401458740234375
1751013776178318300,2.440318359375,-1.0055999755859375,-0.13397216796875,-0.0444183349609375
1751013776188262100,2.45026220703125,-1.006256103515625,-0.1347503662109375,-0.046661376953125
1751013776198205200,2.460205078125,-1.0080718994140625,-0.1353607177734375,-0.046173095703125
1751013776208149500,2.4701494140625,-1.0094146728515625,-0.1365966796875,-0.043487548828125
1751013776218092300,2.48009228515625,-1.01165771484375,-0.1399688720703125,-0.042999267578125
1751013776228035300,2.490035400390625,-1.0099639892578125,-0.1444091796875,-0.0433349609375
1751013776237979400,2.4999794921875,-1.0106201171875,-0.1463623046875,-0.0429534912109375
1751013776247922400,2.50992236328125,-1.0149993896484375,-0.144439697265625,-0.0437469482421875
1751013776257866500,2.519866455078125,-1.016693115234375,-0.1426849365234375,-0.04742431640625
1751013776267809300,2.529809326171875,-1.0150146484375,-0.1452789306640625,-0.0504608154296875
1751013776277752300,2.53975244140625,-1.01251220703125,-0.147125244140625,-0.050750732421875
1751013776287696400,2.5496962890625,-1.0106964111328125,-0.1453094482421875,-0.0501556396484375
1751013776297639400,2.559639404296875,-1.0117645263671875,-0.1432037353515625,-0.0501556396484375
1751013776307583200,2.569583251953125,-1.01031494140625,-0.148162841796875,-0.053741455078125
1751013776317526300,2.5795263671875,-1.0070037841796875,-0.1536102294921875,-0.0554351806640625
1751013776327470300,2.58947021484375,-1.0025177001953125,-0.1538543701171875,-0.0535125732421875
1751013776337413400,2.599413330078125,-0.9959564208984375,-0.1577911376953125,-0.052001953125
1751013776347356400,2.6093564453125,-0.9891815185546875,-0.1619415283203125,-0.0511627197265625
1751013776357300200,2.61930029296875,-0.98846435546875,-0.1610565185546875,-0.04791259765625
1751013776367243300,2.6292431640625,-0.989898681640625,-0.1572113037109375,-0.04718017578125
1751013776377187300,2.639187255859375,-0.99041748046875,-0.1561737060546875,-0.0453033447265625
1751013776387130400,2.64913037109375,-0.9899444580078125,-0.1548004150390625,-0.047027587890625
1751013776397073200,2.6590732421875,-0.99224853515625,-0.1479034423828125,-0.0475921630859375
1751013776407017200,2.669017333984375,-0.9931488037109375,-0.141510009765625,-0.0477447509765625
1751013776416960300,2.678960205078125,-0.9872894287109375,-0.1386260986328125,-0.0511474609375
1751013776426904300,2.688904296875,-0.98785400390625,-0.139404296875,-0.0506134033203125
1751013776436847000,2.69884716796875,-0.99102783203125,-0.137939453125,-0.049102783203125
1751013776446790100,2.7087900390625,-0.988433837890625,-0.13873291015625,-0.0457000732421875
1751013776456734500,2.718734375,-0.983551025390625,-0.1410980224609375,-0.0422210693359375
1751013776466677500,2.728677490234375,-0.984344482421875,-0.1440887451171875,-0.0352783203125
1751013776476621300,2.738621337890625,-0.9888916015625,-0.14508056640625,-0.027923583984375
1751013776486564400,2.748564453125,-0.9936981201171875,-0.144561767578125,-0.025238037109375
1751013776496508400,2.75850830078125,-1.002197265625,-0.1440582275390625,-0.02325439453125
1751013776506451500,2.768451416015625,-1.0102691650390625,-0.14019775390625,-0.0207366943359375
1751013776516394500,2.77839453125,-1.014862060546875,-0.1338348388671875,-0.02191162109375
1751013776526338300,2.78833837890625,-1.0160369873046875,-0.1272430419921875,-0.0222320556640625
1751013776536281300,2.79828125,-1.0190582275390625,-0.122283935546875,-0.023223876953125
1751013776546225400,2.808225341796875,-1.01910400390625,-0.1207275390625,-0.02398681640625
1751013776556168200,2.818168212890625,-1.0142059326171875,-0.121124267578125,-0.0223846435546875
1751013776566111200,2.828111328125,-1.011383056640625,-0.124114990234375,-0.0213470458984375
1751013776576055300,2.83805517578125,-1.0078887939453125,-0.1306610107421875,-0.0191650390625
1751013776585998300,2.847998291015625,-1.0038909912109375,-0.13787841796875,-0.0142974853515625
1751013776595942100,2.857942138671875,-1.004547119140625,-0.1457366943359375,-0.0134124755859375
1751013776605885200,2.86788525390625,-1.0057220458984375,-0.148040771484375,-0.01702880859375
1751013776615829200,2.877829345703125,-1.0077667236328125,-0.1489410400390625,-0.0212249755859375
1751013776625772300,2.887772216796875,-1.0077667236328125,-0.153472900390625,-0.0211944580078125
1751013776635715300,2.89771533203125,-1.0064849853515625,-0.1575469970703125,-0.0203094482421875
1751013776645659100,2.9076591796875,-1.0062713623046875,-0.1542816162109375,-0.0169525146484375
1751013776655602200,2.917602294921875,-1.00628662109375,-0.1495361328125,-0.0189056396484375
1751013776665546500,2.92754638671875,-1.0105743408203125,-0.1518096923828125,-0.025054931640625
1751013776675489800,2.93748974609375,-1.0127410888671875,-0.15533447265625,-0.0301666259765625
1751013776685432600,2.9474326171875,-1.011688232421875,-0.1547698974609375,-0.0300140380859375
1751013776695376600,2.957376708984375,-1.012908935546875,-0.1529083251953125,-0.029327392578125
1751013776705319700,2.967319580078125,-1.0134735107421875,-0.154266357421875,-0.0314483642578125
1751013776715263500,2.977263427734375,-1.012847900390625,-0.15338134765625,-0.033172607421875
1751013776725206500,2.98720654296875,-1.0109710693359375,-0.15234375,-0.033294677734375
1751013776735149600,2.997149658203125,-1.0082855224609375,-0.153778076171875,-0.031280517578125
1751013776745093600,3.00709375,-1.005340576171875,-0.1544647216796875,-0.0276031494140625
1751013776755036700,3.01703662109375,-1.00164794921875,-0.154541015625,-0.0298309326171875
1751013776764980700,3.026980712890625,-0.99993896484375,-0.155487060546875,-0.0327301025390625
1751013776774923800,3.036923828125,-1.0004730224609375,-0.154693603515625,-0.0323944091796875
1751013776784867800,3.046867919921875,-0.9951934814453125,-0.1523895263671875,-0.031951904296875
1751013776794811000,3.056810791015625,-0.994720458984375,-0.1483306884765625,-0.0301513671875
1751013776804753700,3.066753662109375,-0.9981536865234375,-0.1444854736328125,-0.0279541015625
1751013776814697700,3.07669775390625,-0.9974517822265625,-0.1422271728515625,-0.0298919677734375
1751013776824640800,3.086640869140625,-0.993988037109375,-0.13958740234375,-0.0282745361328125
1751013776834584800,3.096584716796875,-0.98974609375,-0.13787841796875,-0.022979736328125
1751013776844527600,3.106527587890625,-0.98712158203125,-0.1409454345703125,-0.020599365234375
1751013776854470700,3.116470703125,-0.98504638671875,-0.1439056396484375,-0.021575927734375
1751013776864414700,3.126414794921875,-0.9868011474609375,-0.1435546875,-0.01708984375
1751013776874357800,3.136357666015625,-0.9920196533203125,-0.1451568603515625,-0.015228271484375
1751013776884301600,3.146301513671875,-0.9957122802734375,-0.1445770263671875,-0.013397216796875
1751013776894244600,3.15624462890625,-1.0011749267578125,-0.1416168212890625,-0.0141754150390625
1751013776904187600,3.166187744140625,-1.0053253173828125,-0.1388702392578125,-0.01654052734375
1751013776914131700,3.176131591796875,-1.00799560546875,-0.1331787109375,-0.0203704833984375
1751013776924074800,3.18607470703125,-1.00970458984375,-0.1297607421875,-0.0265960693359375
1751013776934018600,3.1960185546875,-1.007232666015625,-0.130218505859375,-0.0283966064453125
1751013776943961600,3.205961669921875,-1.0047760009765625,-0.13140869140625,-0.0306549072265625
1751013776953905700,3.21590576171875,-0.9996490478515625,-0.1324920654296875,-0.0323028564453125
1751013776963848700,3.2258486328125,-0.9908447265625,-0.1387939453125,-0.029876708984375
1751013776973791500,3.23579150390625,-0.9860992431640625,-0.1480712890625,-0.0263824462890625
1751013776983735800,3.24573583984375,-0.9846954345703125,-0.1551971435546875,-0.0239715576171875
1751013776993678800,3.255678955078125,-0.98675537109375,-0.1610870361328125,-0.024444580078125
1751013777003622700,3.26562255859375,-0.99053955078125,-0.1639251708984375,-0.0272979736328125
1751013777013565700,3.275565673828125,-0.9998321533203125,-0.16650390625,-0.0273284912109375
1751013777023508700,3.2855087890625,-1.0116119384765625,-0.1633453369140625,-0.0307464599609375
1751013777033452800,3.295452880859375,-1.0212554931640625,-0.16046142578125,-0.03851318359375
1751013777043395800,3.305395751953125,-1.032318115234375,-0.1583251953125,-0.046295166015625
1751013777053339600,3.315339599609375,-1.037689208984375,-0.152435302734375,-0.0552978515625
1751013777063282700,3.32528271484375,-1.039031982421875,-0.14764404296875,-0.057098388671875
1751013777073226800,3.335226806640625,-1.039764404296875,-0.1457977294921875,-0.05413818359375
1751013777083169800,3.345169677734375,-1.0364532470703125,-0.14471435546875,-0.0532989501953125
1751013777093112800,3.35511279296875,-1.0313873291015625,-0.1445465087890625,-0.0528106689453125
1751013777103056600,3.365056640625,-1.0274810791015625,-0.1454315185546875,-0.0491180419921875
1751013777112999700,3.374999755859375,-1.0262908935546875,-0.1504669189453125,-0.049285888671875
1751013777122943700,3.38494384765625,-1.0261688232421875,-0.1544647216796875,-0.04962158203125
1751013777132886500,3.394886474609375,-1.0218658447265625,-0.15643310546875,-0.0485992431640625
1751013777142829600,3.40482958984375,-1.0189056396484375,-0.155517578125,-0.046783447265625
1751013777152773600,3.414773681640625,-1.0180206298828125,-0.1552581787109375,-0.039337158203125
1751013777162716700,3.424716552734375,-1.0135040283203125,-0.151885986328125,-0.035369873046875
1751013777172660500,3.434660400390625,-1.0118255615234375,-0.1471405029296875,-0.0312347412109375
1751013777182603500,3.444603515625,-1.00927734375,-0.1441802978515625,-0.0284881591796875
1751013777192547800,3.4545478515625,-1.0047454833984375,-0.1412200927734375,-0.0215911865234375
1751013777202491000,3.464490966796875,-1.000946044921875,-0.14019775390625,-0.0178375244140625
1751013777212433700,3.47443359375,-0.9990997314453125,-0.140838623046875,-0.016937255859375
1751013777222377700,3.484377685546875,-0.995849609375,-0.1447601318359375,-0.0158538818359375
1751013777232320800,3.49432080078125,-0.9942474365234375,-0.148193359375,-0.016265869140625
1751013777242264800,3.504264892578125,-0.9970703125,-0.1459808349609375,-0.0172119140625
1751013777252207900,3.514207763671875,-1.0000762939453125,-0.1451416015625,-0.0195770263671875
1751013777262150700,3.524150634765625,-0.99774169921875,-0.1452789306640625,-0.01898193359375
1751013777272094700,3.5340947265625,-1.0005340576171875,-0.144989013671875,-0.02227783203125
1751013777282037800,3.544037841796875,-1.001129150390625,-0.1456298828125,-0.022979736328125
1751013777291981800,3.55398193359375,-1.0002593994140625,-0.1468658447265625,-0.0211639404296875
1751013777301924600,3.563924560546875,-1.0017852783203125,-0.14697265625,-0.0201263427734375
1751013777311867600,3.57386767578125,-0.9990081787109375,-0.14788818359375,-0.022918701171875
1751013777321811700,3.583811767578125,-0.9942474365234375,-0.150848388671875,-0.0236053466796875
1751013777331754800,3.593754638671875,-0.9896087646484375,-0.154388427734375,-0.020904541015625
1751013777341698600,3.603698486328125,-0.984710693359375,-0.1568756103515625,-0.0144805908203125
1751013777351641600,3.6136416015625,-0.9837188720703125,-0.1578369140625,-0.0093841552734375
1751013777361585700,3.623585693359375,-0.983734130859375,-0.1557464599609375,-0.0058135986328125
1751013777371528700,3.63352880859375,-0.9810638427734375,-0.154510498046875,-0.00079345703125
1751013777381471700,3.6434716796875,-0.9830780029296875,-0.1540374755859375,0.0025787353515625
1751013777391415600,3.65341552734375,-0.98883056640625,-0.149627685546875,0.0034027099609375
1751013777401358600,3.663358642578125,-0.992523193359375,-0.1480712890625,0.000244140625
1751013777411303000,3.673302978515625,-0.9956817626953125,-0.147491455078125,-0.00567626953125
1751013777421245700,3.68324560546875,-1.00213623046875,-0.14630126953125,-0.0111236572265625
1751013777431188500,3.6931884765625,-1.0030059814453125,-0.145721435546875,-0.018035888671875
1751013777441132800,3.7031328125,-1.0019378662109375,-0.1450347900390625,-0.0216827392578125
1751013777451075800,3.713075927734375,-1.001129150390625,-0.143096923828125,-0.0235595703125
1751013777461019600,3.72301953125,-0.99969482421875,-0.13958740234375,-0.021240234375
1751013777470962700,3.732962646484375,-1.00323486328125,-0.138336181640625,-0.0224151611328125
1751013777480906800,3.74290673828125,-1.004974365234375,-0.1402130126953125,-0.0261688232421875
1751013777490849800,3.752849853515625,-1.0039825439453125,-0.1423492431640625,-0.0312957763671875
1751013777500792800,3.762792724609375,-1.0022735595703125,-0.1437835693359375,-0.033935546875
1751013777510736600,3.772736572265625,-0.9974365234375,-0.143707275390625,-0.030487060546875
1751013777520679700,3.7826796875,-0.98907470703125,-0.1458587646484375,-0.0267181396484375
1751013777530623700,3.792623779296875,-0.9937896728515625,-0.1447906494140625,-0.0247955322265625
1751013777540566800,3.80256689453125,-0.9984130859375,-0.1447906494140625,-0.0204925537109375
1751013777550509600,3.812509521484375,-1.0008087158203125,-0.1467132568359375,-0.0210418701171875
1751013777560453600,3.82245361328125,-1.0015106201171875,-0.1451263427734375,-0.022216796875
1751013777570396700,3.832396728515625,-1.0068359375,-0.1376953125,-0.021331787109375
1751013777580340700,3.8423408203125,-1.003753662109375,-0.1322174072265625,-0.02130126953125
1751013777590283500,3.852283447265625,-1.0000762939453125,-0.1301116943359375,-0.0208892822265625
1751013777600227600,3.8622275390625,-1.001617431640625,-0.126953125,-0.018768310546875
1751013777610170600,3.872170654296875,-0.999298095703125,-0.12896728515625,-0.017181396484375
1751013777620113700,3.88211376953125,-0.996734619140625,-0.1346435546875,-0.01507568359375
1751013777630057700,3.8920576171875,-0.9962158203125,-0.1397857666015625,-0.0136871337890625
1751013777640000500,3.90200048828125,-0.997528076171875,-0.146728515625,-0.0190277099609375
1751013777649944800,3.91194482421875,-1.00103759765625,-0.15155029296875,-0.0256500244140625
1751013777659887900,3.921887939453125,-1.0054931640625,-0.1526947021484375,-0.035736083984375
1751013777669830100,3.931830078125,-1.009765625,-0.152679443359375,-0.0424957275390625
1751013777679774000,3.94177392578125,-1.00653076171875,-0.1483154296875,-0.04669189453125
1751013777689717000,3.951717041015625,-1.006500244140625,-0.143463134765625,-0.048736572265625
1751013777699661300,3.961661376953125,-1.00469970703125,-0.1431427001953125,-0.0492401123046875
1751013777709604400,3.971604248046875,-1.0016937255859375,-0.14263916015625,-0.044525146484375
1751013777719548200,3.981548095703125,-1.0018310546875,-0.142364501953125,-0.03997802734375
1751013777729491200,3.9914912109375,-1.0028839111328125,-0.1430206298828125,-0.037200927734375
1751013777739434200,4.001434326171875,-1.003936767578125,-0.14373779296875,-0.0331573486328125
1751013777749378300,4.01137841796875,-1.00299072265625,-0.1450653076171875,-0.0332489013671875
1751013777759321000,4.021321044921875,-0.9990234375,-0.1456146240234375,-0.032257080078125
1751013777769265200,4.03126513671875,-1.00091552734375,-0.14398193359375,-0.0316162109375
1751013777779208200,4.041208251953125,-1.0033111572265625,-0.1434478759765625,-0.03082275390625
1751013777789151200,4.051151123046875,-1.00177001953125,-0.1427459716796875,-0.02801513671875
1751013777799095000,4.061094970703125,-1.0000457763671875,-0.141510009765625,-0.02459716796875
1751013777809038000,4.0710380859375,-0.9988555908203125,-0.14141845703125,-0.02105712890625
1751013777818982100,4.080982177734375,-1.0016326904296875,-0.1385345458984375,-0.0159454345703125
1751013777828925200,4.09092529296875,-1.001190185546875,-0.139190673828125,-0.0150604248046875
1751013777838869000,4.100868896484375,-1.000274658203125,-0.1402435302734375,-0.015380859375
1751013777848812000,4.11081201171875,-1.0058746337890625,-0.138458251953125,-0.0159149169921875
1751013777858755000,4.120755126953125,-1.0107879638671875,-0.1365966796875,-0.019866943359375
1751013777868699100,4.13069921875,-1.01104736328125,-0.138885498046875,-0.0252532958984375
1751013777878642200,4.14064208984375,-1.0152740478515625,-0.137451171875,-0.0285186767578125
1751013777888586000,4.1505859375,-1.019256591796875,-0.1334075927734375,-0.0322723388671875
1751013777898529000,4.160529052734375,-1.015594482421875,-0.1317291259765625,-0.0316925048828125
1751013777908472000,4.17047216796875,-1.0158233642578125,-0.130523681640625,-0.0266571044921875
1751013777918416400,4.18041650390625,-1.019561767578125,-0.1291351318359375,-0.022705078125
1751013777928359200,4.190359130859375,-1.0167694091796875,-0.12762451171875,-0.0219573974609375
1751013777938303200,4.20030322265625,-1.0117645263671875,-0.1288299560546875,-0.0214080810546875
1751013777948246300,4.210246337890625,-1.0093536376953125,-0.1316070556640625,-0.0189971923828125
1751013777958190000,4.220190185546875,-1.0077972412109375,-0.131011962890625,-0.01593017578125
1751013777968133000,4.230133056640625,-1.0050048828125,-0.1311798095703125,-0.0164642333984375
1751013777978076200,4.240076171875,-1.002227783203125,-0.131439208984375,-0.0184173583984375
1751013777988020200,4.250020263671875,-1.0021514892578125,-0.1315460205078125,-0.017242431640625
1751013777997963300,4.25996337890625,-0.99981689453125,-0.1328582763671875,-0.0190887451171875
1751013778007907000,4.269906982421875,-0.9981231689453125,-0.133544921875,-0.0151214599609375
1751013778017850000,4.27985009765625,-0.998046875,-0.1384124755859375,-0.0127105712890625
1751013778027793200,4.289793212890625,-0.9920806884765625,-0.14697265625,-0.0113677978515625
1751013778037737200,4.2997373046875,-0.9904327392578125,-0.1503753662109375,-0.0095672607421875
1751013778047680300,4.30968017578125,-0.9961700439453125,-0.151580810546875,-0.0097198486328125
1751013778057624000,4.3196240234375,-0.9975738525390625,-0.1520538330078125,-0.0097808837890625
1751013778067567000,4.329567138671875,-0.9991455078125,-0.148712158203125,-0.0106201171875
1751013778077511200,4.33951123046875,-1.003875732421875,-0.1447906494140625,-0.01580810546875
1751013778087454200,4.3494541015625,-1.006805419921875,-0.1442718505859375,-0.0216217041015625
1751013778097397000,4.35939697265625,-1.0086822509765625,-0.142608642578125,-0.026153564453125
1751013778107341000,4.369341064453125,-1.01446533203125,-0.1384429931640625,-0.0261993408203125
1751013778117284000,4.3792841796875,-1.0148773193359375,-0.1373443603515625,-0.0284271240234375
1751013778127228200,4.389228271484375,-1.011260986328125,-0.137481689453125,-0.0298614501953125
1751013778137171200,4.399171142578125,-1.0074615478515625,-0.1394500732421875,-0.0313720703125
1751013778147114000,4.409114013671875,-1.006011962890625,-0.1418914794921875,-0.0285491943359375
1751013778157058300,4.419058349609375,-1.0010986328125,-0.1454925537109375,-0.028045654296875
1751013778167001300,4.42900146484375,-0.99200439453125,-0.1510772705078125,-0.02978515625
1751013778176945200,4.438945068359375,-0.9878692626953125,-0.15362548828125,-0.0267333984375
1751013778186888200,4.44888818359375,-0.9912872314453125,-0.15283203125,-0.0220947265625
1751013778196832300,4.458832275390625,-0.9916229248046875,-0.1546478271484375,-0.021636962890625
1751013778206775300,4.468775390625,-0.990753173828125,-0.1559295654296875,-0.0259246826171875
1751013778216718000,4.478718017578125,-0.9985809326171875,-0.1519775390625,-0.0290069580078125
1751013778226662100,4.488662109375,-1.0073394775390625,-0.1465606689453125,-0.029052734375
1751013778236605200,4.498605224609375,-1.0104217529296875,-0.1463470458984375,-0.0311431884765625
1751013778246549200,4.50854931640625,-1.012359619140625,-0.1446533203125,-0.0350799560546875
1751013778256492000,4.518491943359375,-1.019317626953125,-0.14239501953125,-0.0394439697265625
1751013778266436000,4.52843603515625,-1.019195556640625,-0.14263916015625,-0.0423126220703125
1751013778276379100,4.538379150390625,-1.0146636962890625,-0.1423797607421875,-0.0400238037109375
1751013778286322200,4.548322265625,-1.013153076171875,-0.1416778564453125,-0.0371246337890625
1751013778296266000,4.558265869140625,-1.0074920654296875,-0.144012451171875,-0.038482666015625
1751013778306209000,4.568208984375,-1.0045013427734375,-0.1457672119140625,-0.0364990234375
1751013778316153000,4.578153076171875,-1.0046539306640625,-0.148284912109375,-0.031982421875
1751013778326096100,4.58809619140625,-0.99664306640625,-0.15289306640625,-0.0333251953125
1751013778336039200,4.5980390625,-0.9951934814453125,-0.156005859375,-0.0335540771484375
1751013778345983200,4.607983154296875,-0.99639892578125,-0.1546630859375,-0.034942626953125
1751013778355926000,4.617926025390625,-0.9969635009765625,-0.1527099609375,-0.0341949462890625
1751013778365870300,4.627870361328125,-0.997802734375,-0.152069091796875,-0.033935546875
1751013778375813000,4.637813232421875,-1.0005035400390625,-0.14947509765625,-0.0364990234375
1751013778385757200,4.647757080078125,-1.001312255859375,-0.1478729248046875,-0.0378875732421875
1751013778395700200,4.6577001953125,-1.00164794921875,-0.1474761962890625,-0.0359344482421875
1751013778405643300,4.667643310546875,-1.00201416015625,-0.1487274169921875,-0.0350494384765625
1751013778415587000,4.677587158203125,-1.00225830078125,-0.148284912109375,-0.0338287353515625
1751013778425530000,4.687530029296875,-0.9990997314453125,-0.1486053466796875,-0.0322265625
1751013778435474200,4.69747412109375,-0.9979705810546875,-0.1490020751953125,-0.0291290283203125
1751013778445417200,4.707417236328125,-0.994659423828125,-0.1517333984375,-0.030548095703125
1751013778455361000,4.717361083984375,-0.9927520751953125,-0.1522674560546875,-0.0315704345703125
1751013778465304000,4.727303955078125,-0.992095947265625,-0.1497955322265625,-0.0289459228515625
1751013778475247000,4.7372470703125,-0.9932708740234375,-0.149932861328125,-0.025238037109375
1751013778485191200,4.747191162109375,-0.9990386962890625,-0.1499786376953125,-0.028411865234375
1751013778495134200,4.75713427734375,-1.003753662109375,-0.147796630859375,-0.0303497314453125
1751013778505078000,4.767078125,-1.0046844482421875,-0.1452484130859375,-0.0292816162109375
1751013778515021000,4.77702099609375,-1.008941650390625,-0.143768310546875,-0.028045654296875
1751013778524964000,4.786964111328125,-1.0132598876953125,-0.1403656005859375,-0.0287322998046875
1751013778534908200,4.796908203125,-1.0174102783203125,-0.1356658935546875,-0.0288543701171875
1751013778544851000,4.806850830078125,-1.0189971923828125,-0.1331939697265625,-0.0283355712890625
1751013778554795300,4.816795166015625,-1.0161590576171875,-0.1337738037109375,-0.0279541015625
1751013778564738000,4.826738037109375,-1.0106353759765625,-0.137420654296875,-0.0274810791015625
1751013778574682000,4.83668212890625,-1.0050048828125,-0.1416473388671875,-0.0286407470703125
1751013778584625200,4.846625244140625,-0.9994049072265625,-0.145751953125,-0.0279388427734375
1751013778594568200,4.856568115234375,-0.9945220947265625,-0.152557373046875,-0.027801513671875
1751013778604512300,4.86651220703125,-0.9910888671875,-0.15838623046875,-0.030059814453125
1751013778614455300,4.876455322265625,-0.9923248291015625,-0.1601104736328125,-0.0301513671875
1751013778624399000,4.886399169921875,-0.9911651611328125,-0.164520263671875,-0.0331268310546875
1751013778634342100,4.896342041015625,-0.9881134033203125,-0.1649322509765625,-0.033203125
1751013778644286200,4.9062861328125,-0.9923858642578125,-0.161285400390625,-0.030487060546875
1751013778654229200,4.916229248046875,-0.9949798583984375,-0.158721923828125,-0.0275115966796875
1751013778664172300,4.92617236328125,-0.9947662353515625,-0.1553955078125,-0.0266571044921875
1751013778674119700,4.93611962890625,-1.001190185546875,-0.1494140625,-0.0240478515625
1751013778684062700,4.946062744140625,-1.0051727294921875,-0.1451263427734375,-0.0236663818359375
1751013778694006800,4.9560068359375,-1.00543212890625,-0.146942138671875,-0.02587890625
1751013778703949600,4.965949462890625,-1.0027923583984375,-0.149627685546875,-0.0277099609375
1751013778713893600,4.9758935546875,-1.0002288818359375,-0.1504669189453125,-0.0276947021484375
1751013778723836700,4.985836669921875,-0.9995880126953125,-0.1512603759765625,-0.024749755859375
1751013778733779700,4.99577978515625,-0.9991302490234375,-0.15447998046875,-0.02490234375
1751013778743723500,5.0057236328125,-0.998626708984375,-0.154510498046875,-0.02423095703125
1751013778753666600,5.01566650390625,-0.998077392578125,-0.152130126953125,-0.023895263671875
1751013778763610600,5.025610595703125,-0.9981231689453125,-0.1502838134765625,-0.026092529296875
1751013778773553700,5.0355537109375,-1.001007080078125,-0.148590087890625,-0.0277099609375
1751013778783496700,5.04549658203125,-0.9996185302734375,-0.14678955078125,-0.0275726318359375
1751013778793440500,5.0554404296875,-0.9998626708984375,-0.1421356201171875,-0.024322509765625
1751013778803383600,5.065383544921875,-1.0032806396484375,-0.1406097412109375,-0.0225067138671875
1751013778813327600,5.07532763671875,-1.002044677734375,-0.1411895751953125,-0.0234832763671875
1751013778823270700,5.085270751953125,-1.002105712890625,-0.1427001953125,-0.0215911865234375
1751013778833214700,5.095214599609375,-1.0053863525390625,-0.14520263671875,-0.021759033203125
1751013778843157800,5.10515771484375,-1.006805419921875,-0.1480560302734375,-0.0268096923828125
1751013778853100500,5.1151005859375,-1.006622314453125,-0.1495208740234375,-0.032073974609375
1751013778863044900,5.125044921875,-1.0059814453125,-0.1501312255859375,-0.03369140625
1751013778872987600,5.134987548828125,-1.0032501220703125,-0.1480255126953125,-0.0335845947265625
1751013778882931700,5.144931640625,-0.99859619140625,-0.1462554931640625,-0.031890869140625
1751013778892874800,5.154874755859375,-0.9965057373046875,-0.1464996337890625,-0.028472900390625
1751013778902818600,5.164818603515625,-0.9965057373046875,-0.1483154296875,-0.026947021484375
1751013778912761600,5.17476171875,-0.9933319091796875,-0.150482177734375,-0.027496337890625
1751013778922704600,5.18470458984375,-0.9906463623046875,-0.1526641845703125,-0.0264739990234375
1751013778932648700,5.194648681640625,-0.991973876953125,-0.155120849609375,-0.024810791015625
1751013778942591700,5.204591796875,-0.99261474609375,-0.1578521728515625,-0.0266265869140625
1751013778952535600,5.21453564453125,-0.99053955078125,-0.160064697265625,-0.0299835205078125
1751013778962478600,5.224478515625,-0.99102783203125,-0.1573028564453125,-0.028778076171875
1751013778972422700,5.234422607421875,-0.99212646484375,-0.153045654296875,-0.0262451171875
1751013778982365700,5.24436572265625,-0.991546630859375,-0.1512451171875,-0.0261688232421875
1751013778992308700,5.254308837890625,-0.994964599609375,-0.1502685546875,-0.0257720947265625
1751013779002252500,5.26425244140625,-1.0019989013671875,-0.147186279296875,-0.0228271484375
1751013779012195600,5.274195556640625,-1.005340576171875,-0.146240234375,-0.023956298828125
1751013779022139600,5.2841396484375,-1.0062103271484375,-0.1464080810546875,-0.0253753662109375
1751013779032082400,5.29408251953125,-1.0142059326171875,-0.1426544189453125,-0.024932861328125
1751013779042025500,5.304025390625,-1.0215301513671875,-0.14215087890625,-0.02716064453125
1751013779051969800,5.3139697265625,-1.019866943359375,-0.1441192626953125,-0.030029296875
1751013779061912600,5.32391259765625,-1.0174560546875,-0.1445770263671875,-0.029388427734375
1751013779071856600,5.333856689453125,-1.0171661376953125,-0.1435699462890625,-0.025787353515625
1751013779081799700,5.343799560546875,-1.01300048828125,-0.1454925537109375,-0.0259552001953125
1751013779091743700,5.35374365234375,-1.0101318359375,-0.1463623046875,-0.023895263671875
1751013779101686800,5.363686767578125,-1.00689697265625,-0.1464385986328125,-0.0194549560546875
1751013779111629800,5.3736298828125,-1.008453369140625,-0.1453704833984375,-0.0168304443359375
1751013779121573600,5.38357373046875,-1.007171630859375,-0.1463470458984375,-0.01751708984375
1751013779131516700,5.3935166015625,-1.00762939453125,-0.145172119140625,-0.019256591796875
1751013779141460700,5.403460693359375,-1.00909423828125,-0.141876220703125,-0.02142333984375
1751013779151403800,5.41340380859375,-1.0097198486328125,-0.1411895751953125,-0.0220794677734375
1751013779161347600,5.42334765625,-1.009246826171875,-0.13909912109375,-0.0222625732421875
1751013779171290600,5.43329052734375,-1.01031494140625,-0.1381683349609375,-0.020721435546875
1751013779181233700,5.443233642578125,-1.0087432861328125,-0.138946533203125,-0.0200653076171875
1751013779191177700,5.453177734375,-1.0043182373046875,-0.1390838623046875,-0.01837158203125
1751013779201120500,5.46312060546875,-1.0012359619140625,-0.1418914794921875,-0.017547607421875
1751013779211064600,5.473064697265625,-0.9973602294921875,-0.145751953125,-0.019012451171875
1751013779221007600,5.483007568359375,-0.9956512451171875,-0.1479034423828125,-0.0218353271484375
1751013779230951400,5.492951416015625,-0.9928741455078125,-0.14862060546875,-0.0210113525390625
1751013779240894500,5.50289453125,-0.9915618896484375,-0.1488037109375,-0.02227783203125
1751013779250837500,5.51283740234375,-0.9937286376953125,-0.1473236083984375,-0.021942138671875
1751013779260781800,5.52278173828125,-0.994842529296875,-0.145843505859375,-0.0224761962890625
1751013779270724600,5.532724609375,-0.99139404296875,-0.146148681640625,-0.0220184326171875
1751013779280668700,5.542668701171875,-0.994171142578125,-0.1457061767578125,-0.0214080810546875
1751013779290611700,5.55261181640625,-1.000274658203125,-0.1450347900390625,-0.0222930908203125
1751013779300555800,5.5625556640625,-0.9985504150390625,-0.1479034423828125,-0.0259246826171875
1751013779310498800,5.572498779296875,-1,-0.148834228515625,-0.0260772705078125
1751013779320441600,5.582441650390625,-1.0029754638671875,-0.1478271484375,-0.02276611328125
1751013779330385700,5.5923857421875,-1.004119873046875,-0.1463470458984375,-0.02105712890625
1751013779340328700,5.60232861328125,-1.007965087890625,-0.1434478759765625,-0.0214385986328125
1751013779350272800,5.612272705078125,-1.0130615234375,-0.1436309814453125,-0.0265655517578125
1751013779360215600,5.622215576171875,-1.013641357421875,-0.1455078125,-0.031768798828125
1751013779370158600,5.63215869140625,-1.01409912109375,-0.145294189453125,-0.0327911376953125
1751013779380102700,5.6421025390625,-1.011199951171875,-0.1445159912109375,-0.0308380126953125
1751013779390045700,5.652045654296875,-1.0076141357421875,-0.1447296142578125,-0.0317535400390625
1751013779399989500,5.661989501953125,-1.006561279296875,-0.1429443359375,-0.029998779296875
1751013779409932500,5.6719326171875,-1.005462646484375,-0.142913818359375,-0.02691650390625
1751013779419876600,5.681876708984375,-1.003936767578125,-0.144256591796875,-0.0241241455078125
1751013779429819600,5.691819580078125,-1.0055694580078125,-0.1429290771484375,-0.0219268798828125
1751013779439762700,5.7017626953125,-1.006011962890625,-0.1416778564453125,-0.0220794677734375
1751013779449706500,5.71170654296875,-1.0064239501953125,-0.1422882080078125,-0.0231781005859375
1751013779459649500,5.7216494140625,-1.009552001953125,-0.143585205078125,-0.0228271484375
1751013779469593900,5.73159375,-1.0127105712890625,-0.144073486328125,-0.023834228515625
1751013779479537000,5.741536865234375,-1.01055908203125,-0.1447296142578125,-0.020843505859375
1751013779489480700,5.751480712890625,-1.009796142578125,-0.14312744140625,-0.0201416015625
1751013779499423700,5.761423828125,-1.01202392578125,-0.1397247314453125,-0.0198822021484375
1751013779509366800,5.77136669921875,-1.007720947265625,-0.1398162841796875,-0.0233612060546875
1751013779519310600,5.781310546875,-1.0067138671875,-0.138458251953125,-0.0247650146484375
1751013779529253600,5.791253662109375,-1.006317138671875,-0.1356353759765625,-0.02490234375
1751013779539197700,5.80119775390625,-1.0063629150390625,-0.136627197265625,-0.0258636474609375
1751013779549140700,5.811140625,-1.0074920654296875,-0.140655517578125,-0.028411865234375
1751013779559084500,5.82108447265625,-1.0062103271484375,-0.1435089111328125,-0.029083251953125
1751013779569027600,5.831027587890625,-1.0054779052734375,-0.1429595947265625,-0.026031494140625
1751013779578970600,5.840970703125,-1.0046844482421875,-0.14276123046875,-0.023101806640625
1751013779588914700,5.850914794921875,-1.0030975341796875,-0.144378662109375,-0.020172119140625
1751013779598857700,5.860857666015625,-1.002685546875,-0.14385986328125,-0.016204833984375
1751013779608801500,5.870801513671875,-1.003326416015625,-0.1406707763671875,-0.020050048828125
1751013779618744600,5.88074462890625,-1.001251220703125,-0.1397857666015625,-0.0200042724609375
1751013779628688600,5.890688720703125,-1.0011138916015625,-0.1405792236328125,-0.0194244384765625
1751013779638631700,5.900631591796875,-1.001434326171875,-0.141387939453125,-0.0214691162109375
1751013779648574500,5.910574462890625,-0.998992919921875,-0.1441497802734375,-0.0238189697265625
1751013779658518500,5.9205185546875,-0.99676513671875,-0.1455535888671875,-0.0250244140625
1751013779668461600,5.930461669921875,-0.9980316162109375,-0.145721435546875,-0.024749755859375
1751013779678402300,5.94040234375,-1.0003814697265625,-0.14483642578125,-0.0265960693359375
1751013779688345300,5.950345458984375,-1.000732421875,-0.1436614990234375,-0.030120849609375
1751013779698289400,5.960289306640625,-0.9995269775390625,-0.14324951171875,-0.0279083251953125
1751013779708232400,5.970232421875,-0.99908447265625,-0.1444244384765625,-0.023956298828125
1751013779718175500,5.980175537109375,-0.998992919921875,-0.14398193359375,-0.023712158203125
1751013779728119300,5.990119384765625,-1.0023956298828125,-0.1428680419921875,-0.0234832763671875
1751013779738062300,6.000062255859375,-1.0012969970703125,-0.143218994140625,-0.0222930908203125
1751013779748006400,6.01000634765625,-0.9989166259765625,-0.1446533203125,-0.0220489501953125
1751013779757949400,6.019949462890625,-0.99761962890625,-0.1437530517578125,-0.0194244384765625
1751013779767893200,6.029893310546875,-0.99566650390625,-0.1404571533203125,-0.0182647705078125
1751013779777836300,6.039836181640625,-0.9942169189453125,-0.1397552490234375,-0.01788330078125
1751013779787779300,6.049779296875,-0.9973907470703125,-0.13909912109375,-0.0174407958984375
1751013779797723400,6.059723388671875,-1.001739501953125,-0.138092041015625,-0.017791748046875
1751013779807666200,6.069666259765625,-1.0007781982421875,-0.139984130859375,-0.020660400390625
1751013779817610500,6.079610595703125,-1.0050506591796875,-0.1394195556640625,-0.0218658447265625
1751013779827553500,6.089553466796875,-1.013336181640625,-0.1384124755859375,-0.0259246826171875
1751013779837497600,6.09949755859375,-1.0144805908203125,-0.1388702392578125,-0.0294189453125
1751013779847440400,6.1094404296875,-1.0174560546875,-0.1363983154296875,-0.030609130859375
1751013779857384400,6.119384521484375,-1.019775390625,-0.132904052734375,-0.027099609375
1751013779867327500,6.129327392578125,-1.013702392578125,-0.130218505859375,-0.0198974609375
1751013779877270500,6.1392705078125,-1.0034332275390625,-0.13262939453125,-0.0288543701171875
1751013779887214300,6.14921435546875,-1.0040130615234375,-0.1312713623046875,-0.025848388671875
1751013779897157400,6.159157470703125,-0.9989166259765625,-0.13006591796875,-0.0211029052734375
1751013779907101400,6.169101318359375,-0.993316650390625,-0.1362457275390625,-0.01971435546875
1751013779917044500,6.17904443359375,-0.9863433837890625,-0.1443634033203125,-0.022125244140625
1751013779926988300,6.18898828125,-0.98260498046875,-0.148101806640625,-0.0250701904296875
1751013779936931300,6.198931396484375,-0.9861602783203125,-0.14801025390625,-0.0268402099609375
1751013779946874400,6.208874267578125,-0.991485595703125,-0.14886474609375,-0.028656005859375
1751013779956818400,6.218818359375,-0.9925079345703125,-0.1502838134765625,-0.028778076171875
1751013779966761500,6.228761474609375,-0.996185302734375,-0.1478729248046875,-0.0265655517578125
1751013779976705300,6.238705322265625,-0.999237060546875,-0.1446075439453125,-0.0254364013671875
1751013779986648300,6.2486484375,-1.00384521484375,-0.1397705078125,-0.022735595703125
1751013779996592600,6.258592529296875,-1.0086669921875,-0.133087158203125,-0.0211334228515625
1751013780006535200,6.26853515625,-1.008819580078125,-0.1301727294921875,-0.020751953125
1751013780016478200,6.278478271484375,-1.0067291259765625,-0.1306915283203125,-0.0218505859375
1751013780026422500,6.288422607421875,-1.012237548828125,-0.132293701171875,-0.02581787109375
1751013780036365600,6.298365478515625,-1.010772705078125,-0.1342010498046875,-0.0265960693359375
1751013780046309400,6.308309326171875,-1.00689697265625,-0.134796142578125,-0.026763916015625
1751013780056252400,6.31825244140625,-1.0073394775390625,-0.133819580078125,-0.0235748291015625
1751013780066196500,6.328196533203125,-1.00555419921875,-0.134674072265625,-0.024078369140625
1751013780076139500,6.338139404296875,-1.0055694580078125,-0.135406494140625,-0.0244598388671875
1751013780086082600,6.34808251953125,-1.0062408447265625,-0.134063720703125,-0.023040771484375
1751013780096026400,6.3580263671875,-1.0076751708984375,-0.1344451904296875,-0.02459716796875
1751013780105969400,6.367969482421875,-1.0096282958984375,-0.1349945068359375,-0.0244140625
1751013780115913500,6.37791357421875,-1.012847900390625,-0.1330413818359375,-0.0265045166015625
1751013780125856500,6.3878564453125,-1.0148773193359375,-0.1333770751953125,-0.027130126953125
1751013780135800300,6.39780029296875,-1.018310546875,-0.1331329345703125,-0.0276641845703125
1751013780145743400,6.407743408203125,-1.0200653076171875,-0.1312408447265625,-0.0285797119140625
1751013780155686400,6.417686279296875,-1.0208740234375,-0.1299591064453125,-0.030364990234375
1751013780165630500,6.42763037109375,-1.0198211669921875,-0.1307373046875,-0.0303955078125
1751013780175573200,6.4375732421875,-1.0170745849609375,-0.13128662109375,-0.0302734375
1751013780185517300,6.447517333984375,-1.0074462890625,-0.131927490234375,-0.0298004150390625
1751013780195460400,6.45746044921875,-0.9990692138671875,-0.136077880859375,-0.0269927978515625
1751013780205404400,6.467404296875,-0.996612548828125,-0.1415252685546875,-0.0225372314453125
1751013780215347200,6.47734716796875,-0.9939727783203125,-0.1435699462890625,-0.018402099609375
1751013780225291500,6.48729150390625,-0.992919921875,-0.143890380859375,-0.0176544189453125
1751013780235234600,6.497234619140625,-0.9930572509765625,-0.1457061767578125,-0.018310546875
1751013780245177600,6.507177490234375,-0.9951629638671875,-0.1460113525390625,-0.0210418701171875
1751013780255121400,6.517121337890625,-1.0034637451171875,-0.1404876708984375,-0.02557373046875
1751013780265064400,6.527064453125,-1.0062408447265625,-0.138458251953125,-0.029388427734375
1751013780275008500,6.537008544921875,-1.0063934326171875,-0.1384124755859375,-0.0334320068359375
1751013780284951600,6.54695166015625,-1.0091552734375,-0.13482666015625,-0.030120849609375
1751013780294895400,6.556895263671875,-1.0104827880859375,-0.129791259765625,-0.0243072509765625
1751013780304838400,6.56683837890625,-1.010101318359375,-0.1275482177734375,-0.0235443115234375
1751013780314781400,6.576781494140625,-1.0110626220703125,-0.1270294189453125,-0.0262603759765625
1751013780324725500,6.5867255859375,-1.012786865234375,-0.12689208984375,-0.02862548828125
1751013780334668300,6.596668212890625,-1.0140838623046875,-0.127838134765625,-0.0280609130859375
1751013780344612400,6.6066123046875,-1.013214111328125,-0.1292877197265625,-0.0312957763671875
1751013780354555400,6.616555419921875,-1.016143798828125,-0.1304168701171875,-0.032379150390625
1751013780364499500,6.62649951171875,-1.011749267578125,-0.130767822265625,-0.032318115234375
1751013780374442200,6.636442138671875,-1.0085601806640625,-0.1319122314453125,-0.0285797119140625
1751013780384385300,6.64638525390625,-1.005615234375,-0.1315765380859375,-0.02398681640625
1751013780394329300,6.656329345703125,-1.0023193359375,-0.13140869140625,-0.020477294921875
1751013780404272400,6.6662724609375,-0.9976959228515625,-0.131256103515625,-0.01953125
1751013780414216400,6.676216552734375,-0.993865966796875,-0.1319732666015625,-0.019775390625
1751013780424159200,6.6861591796875,-0.9935760498046875,-0.1321563720703125,-0.018402099609375
1751013780434103600,6.696103515625,-0.9944610595703125,-0.1339569091796875,-0.0182647705078125
1751013780444046600,6.706046630859375,-0.99310302734375,-0.136260986328125,-0.0205841064453125
1751013780453990400,6.715990478515625,-0.9938507080078125,-0.1381988525390625,-0.020050048828125
1751013780463933400,6.725933349609375,-1.0007476806640625,-0.136474609375,-0.019744873046875
1751013780473876500,6.73587646484375,-1.006011962890625,-0.1353759765625,-0.0238494873046875
1751013780483820500,6.745820556640625,-1.0074615478515625,-0.1344451904296875,-0.0266265869140625
1751013780493763300,6.755763427734375,-1.011871337890625,-0.131011962890625,-0.025421142578125
1751013780503707400,6.765707275390625,-1.016448974609375,-0.1263427734375,-0.0237579345703125
1751013780513650400,6.775650390625,-1.019683837890625,-0.123199462890625,-0.025634765625
1751013780523594500,6.785594482421875,-1.01885986328125,-0.12359619140625,-0.0281219482421875
1751013780533537300,6.795537353515625,-1.0157012939453125,-0.1253204345703125,-0.0262603759765625
1751013780543480300,6.805480224609375,-1.0128936767578125,-0.1268768310546875,-0.0256805419921875
1751013780553424400,6.81542431640625,-1.008544921875,-0.1275482177734375,-0.024017333984375
1751013780563367400,6.825367431640625,-1.0053253173828125,-0.1319122314453125,-0.026336669921875
1751013780573311200,6.835311279296875,-1.0039215087890625,-0.1340789794921875,-0.0253448486328125
1751013780583254300,6.845254150390625,-1.0021514892578125,-0.1324005126953125,-0.0252838134765625
1751013780593198300,6.8551982421875,-1.002716064453125,-0.1300506591796875,-0.0230865478515625
1751013780603141400,6.865141357421875,-1.0040740966796875,-0.1278533935546875,-0.0230865478515625
1751013780613085400,6.87508544921875,-1.0022125244140625,-0.12677001953125,-0.024749755859375
1751013780623028500,6.885028564453125,-1.0032806396484375,-0.126434326171875,-0.0231781005859375
1751013780632971300,6.89497119140625,-1.003997802734375,-0.129150390625,-0.024200439453125
1751013780642915600,6.90491552734375,-1.0051116943359375,-0.1323699951171875,-0.02044677734375
1751013780652858400,6.9148583984375,-1.0079498291015625,-0.132171630859375,-0.01959228515625
1751013780662802400,6.924802490234375,-1.00701904296875,-0.131927490234375,-0.0218658447265625
1751013780672746500,6.93474658203125,-1.003387451171875,-0.131622314453125,-0.022247314453125
1751013780682690600,6.944690673828125,-1.0028076171875,-0.128875732421875,-0.0194244384765625
1751013780692633600,6.954633544921875,-1.0018463134765625,-0.1271820068359375,-0.01849365234375
1751013780702576600,6.96457666015625,-0.99993896484375,-0.12823486328125,-0.0199127197265625
1751013780712520700,6.974520751953125,-1.00146484375,-0.12890625,-0.0214080810546875
1751013780722463500,6.98446337890625,-1.0045166015625,-0.12847900390625,-0.0223846435546875
1751013780732407600,6.994407470703125,-1.0051116943359375,-0.1290435791015625,-0.022064208984375
1751013780742350600,7.0043505859375,-1.0061492919921875,-0.131134033203125,-0.0245361328125
1751013780752294700,7.014294677734375,-1.0061798095703125,-0.13250732421875,-0.0247650146484375
1751013780762237400,7.024237548828125,-1.0056304931640625,-0.1310272216796875,-0.0226593017578125
1751013780772181500,7.034181396484375,-1.00775146484375,-0.13189697265625,-0.0227813720703125
1751013780782124500,7.04412451171875,-1.005340576171875,-0.131866455078125,-0.022491455078125
1751013780792067600,7.054067626953125,-1.00732421875,-0.1298370361328125,-0.020660400390625
1751013780802011400,7.064011474609375,-1.0098876953125,-0.128143310546875,-0.0194091796875
1751013780811954400,7.073954345703125,-1.0103912353515625,-0.12982177734375,-0.0211334228515625
1751013780821898500,7.0838984375,-1.010223388671875,-0.128082275390625,-0.0222625732421875
1751013780831841500,7.093841552734375,-1.0107574462890625,-0.1253204345703125,-0.021881103515625
1751013780841785300,7.103785400390625,-1.0104522705078125,-0.1243743896484375,-0.0236358642578125
1751013780851728400,7.113728271484375,-1.0098419189453125,-0.1211700439453125,-0.02410888671875
1751013780861671400,7.12367138671875,-1.0084991455078125,-0.1218414306640625,-0.0233001708984375
1751013780871615500,7.133615478515625,-1.003997802734375,-0.12548828125,-0.0227813720703125
1751013780881558500,7.14355859375,-0.9998779296875,-0.1263427734375,-0.019927978515625
1751013780891502600,7.153502685546875,-1.000762939453125,-0.1268463134765625,-0.016754150390625
1751013780901445600,7.163445556640625,-1.001800537109375,-0.130126953125,-0.0142822265625
1751013780911389700,7.1733896484375,-1.0010833740234375,-0.1330108642578125,-0.01678466796875
1751013780921332500,7.18333251953125,-1.0010528564453125,-0.1341552734375,-0.01727294921875
1751013780931276500,7.193276611328125,-1.0035858154296875,-0.1314544677734375,-0.016998291015625
1751013780941219600,7.203219482421875,-1.0081787109375,-0.126922607421875,-0.0182037353515625
1751013780951162600,7.21316259765625,-1.009979248046875,-0.126739501953125,-0.0211029052734375
1751013780961106400,7.2231064453125,-1.01019287109375,-0.1238861083984375,-0.022796630859375
1751013780971049500,7.233049560546875,-1.0106048583984375,-0.1213836669921875,-0.0211334228515625
1751013780980993500,7.24299365234375,-1.0068817138671875,-0.12188720703125,-0.018096923828125
1751013780990936600,7.2529365234375,-1.0041046142578125,-0.1241302490234375,-0.014923095703125
1751013781000880400,7.26288037109375,-1.0059967041015625,-0.122314453125,-0.0146636962890625
1751013781010823400,7.272823486328125,-1.0082244873046875,-0.120452880859375,-0.01513671875
1751013781020767500,7.282767578125,-1.00982666015625,-0.121307373046875,-0.0133209228515625
1751013781030710500,7.29271044921875,-1.0164031982421875,-0.121826171875,-0.0147857666015625
1751013781040653600,7.302653564453125,-1.0166168212890625,-0.125823974609375,-0.019500732421875
1751013781050597400,7.312597412109375,-1.013763427734375,-0.1264495849609375,-0.0198211669921875
1751013781060540400,7.32254052734375,-1.0106048583984375,-0.1241455078125,-0.019866943359375
1751013781070484700,7.332484619140625,-1.00531005859375,-0.12451171875,-0.0178375244140625
1751013781080427500,7.342427490234375,-1.004669189453125,-0.12249755859375,-0.0094451904296875
1751013781090371600,7.35237158203125,-0.997314453125,-0.1241455078125,-0.008056640625
1751013781100314600,7.362314697265625,-0.9911956787109375,-0.128082275390625,-0.007720947265625
1751013781110257700,7.372257568359375,-0.9977569580078125,-0.130889892578125,-0.0082855224609375
1751013781120201500,7.382201416015625,-0.9976959228515625,-0.1322174072265625,-0.014984130859375
1751013781130144500,7.39214453125,-0.9932708740234375,-0.1330718994140625,-0.018035888671875
1751013781140088600,7.402088623046875,-0.9996490478515625,-0.1306915283203125,-0.0189056396484375
1751013781150031600,7.412031494140625,-1.0023345947265625,-0.126678466796875,-0.018341064453125
1751013781159975400,7.421975341796875,-1.0040130615234375,-0.122802734375,-0.0188140869140625
1751013781169918500,7.43191845703125,-1.006256103515625,-0.1199951171875,-0.0191802978515625
1751013781179862500,7.441862548828125,-1.0075225830078125,-0.1175384521484375,-0.0166778564453125
1751013781189805600,7.4518056640625,-1.010955810546875,-0.1154327392578125,-0.0141448974609375
1751013781199748600,7.46174853515625,-1.015228271484375,-0.1158905029296875,-0.0167999267578125
1751013781209692400,7.4716923828125,-1.014068603515625,-0.1173248291015625,-0.017059326171875
1751013781219635500,7.481635498046875,-1.01385498046875,-0.117645263671875,-0.0151214599609375
1751013781229579500,7.49157958984375,-1.012603759765625,-0.118255615234375,-0.0148773193359375
1751013781239522600,7.5015224609375,-1.00823974609375,-0.1197052001953125,-0.016387939453125
1751013781249466400,7.51146630859375,-1.0052947998046875,-0.120025634765625,-0.015045166015625
1751013781259409400,7.521409423828125,-1.00262451171875,-0.119140625,-0.0135498046875
1751013781269353700,7.531353759765625,-1.0003509521484375,-0.1182098388671875,-0.010711669921875
1751013781279296500,7.541296630859375,-0.9969482421875,-0.119964599609375,-0.0096282958984375
1751013781289239600,7.551239501953125,-0.996185302734375,-0.123016357421875,-0.00970458984375
1751013781299183600,7.56118359375,-0.993682861328125,-0.1254119873046875,-0.01043701171875
1751013781309126700,7.571126708984375,-0.99200439453125,-0.1255035400390625,-0.0093994140625
1751013781319070500,7.581070556640625,-0.9978790283203125,-0.1225128173828125,-0.007476806640625
1751013781329013500,7.591013427734375,-1.0021514892578125,-0.11981201171875,-0.0094757080078125
1751013781338957600,7.60095751953125,-1.0023040771484375,-0.1180419921875,-0.0081787109375
1751013781348900600,7.610900634765625,-1.000885009765625,-0.1213836669921875,-0.014617919921875
1751013781358844400,7.620844482421875,-1.0079498291015625,-0.108978271484375,-0.01336669921875
1751013781368787500,7.630787353515625,-1.0101470947265625,-0.10772705078125,-0.014251708984375
1751013781378730500,7.64073046875,-1.01116943359375,-0.1128082275390625,-0.01544189453125
1751013781388674600,7.650674560546875,-1.013916015625,-0.11431884765625,-0.0194549560546875
1751013781398617600,7.66061767578125,-1.0103759765625,-0.114288330078125,-0.01971435546875
1751013781408561400,7.6705615234375,-1.010650634765625,-0.1139984130859375,-0.0182952880859375
1751013781418504400,7.68050439453125,-1.0143585205078125,-0.1143951416015625,-0.014923095703125
1751013781428448500,7.690448486328125,-1.0140533447265625,-0.117279052734375,-0.01727294921875
1751013781438391600,7.7003916015625,-1.0133056640625,-0.1191253662109375,-0.017822265625
1751013781448335600,7.710335693359375,-1.0158233642578125,-0.11688232421875,-0.0173187255859375
1751013781458278400,7.7202783203125,-1.0148468017578125,-0.116729736328125,-0.01593017578125
1751013781468221400,7.730221435546875,-1.0112152099609375,-0.12066650390625,-0.0196075439453125
1751013781478165500,7.74016552734375,-1.01251220703125,-0.120819091796875,-0.0182952880859375
1751013781488108500,7.750108642578125,-1.015289306640625,-0.115966796875,-0.017333984375
1751013781498052600,7.760052490234375,-1.012969970703125,-0.112884521484375,-0.0198211669921875
1751013781507995600,7.76999560546875,-1.017333984375,-0.10906982421875,-0.0204315185546875
1751013781517939500,7.779939453125,-1.022918701171875,-0.10418701171875,-0.0237579345703125
1751013781527882500,7.789882568359375,-1.0249176025390625,-0.1000823974609375,-0.0245513916015625
1751013781537826600,7.79982666015625,-1.02197265625,-0.1061553955078125,-0.026092529296875
1751013781547769600,7.80976953125,-1.0163726806640625,-0.1083221435546875,-0.0250396728515625
1751013781557712600,7.819712646484375,-1.014892578125,-0.1063690185546875,-0.01751708984375
1751013781567656400,7.829656494140625,-1.0081024169921875,-0.1106719970703125,-0.010894775390625
1751013781577599500,7.839599609375,-0.9996337890625,-0.1146087646484375,-0.0078125
1751013781587543600,7.84954345703125,-0.99456787109375,-0.1160430908203125,-0.0057373046875
1751013781597486600,7.859486572265625,-0.992767333984375,-0.1164093017578125,-0.005401611328125
1751013781607430400,7.869430419921875,-0.9942169189453125,-0.115753173828125,-0.0074462890625
1751013781617373400,7.87937353515625,-1.0002288818359375,-0.112579345703125,-0.01007080078125
1751013781627317500,7.8893173828125,-1.0052947998046875,-0.1101226806640625,-0.01348876953125
1751013781637260500,7.899260498046875,-1.0084991455078125,-0.1074066162109375,-0.01519775390625
1751013781647203300,7.909203369140625,-1.0107269287109375,-0.102386474609375,-0.0136566162109375
1751013781657147600,7.919147705078125,-1.0112457275390625,-0.1016387939453125,-0.01275634765625
1751013781667090400,7.92909033203125,-1.0088348388671875,-0.102569580078125,-0.0142669677734375
1751013781677033500,7.939033447265625,-1.0076904296875,-0.1033172607421875,-0.0133209228515625
1751013781686976500,7.9489765625,-1.0070953369140625,-0.103759765625,-0.0122833251953125
1751013781696920300,7.95892041015625,-1.00909423828125,-0.10479736328125,-0.0122528076171875
1751013781706863400,7.96886328125,-1.01068115234375,-0.105560302734375,-0.0145263671875
1751013781716807400,7.978807373046875,-1.0122528076171875,-0.1056365966796875,-0.014495849609375
1751013781726750500,7.98875048828125,-1.01483154296875,-0.1070709228515625,-0.0160369873046875
1751013781736693500,7.998693603515625,-1.0128936767578125,-0.1080474853515625,-0.018951416015625
1751013781746637300,8.00863720703125,-1.011016845703125,-0.1057891845703125,-0.0171966552734375
1751013781756580400,8.018580322265626,-1.0080718994140625,-0.1066741943359375,-0.0168609619140625
1751013781766524400,8.0285244140625,-1.0054168701171875,-0.108642578125,-0.0166015625
1751013781776467200,8.03846728515625,-1.0025482177734375,-0.1102294921875,-0.0160675048828125
1751013781786411300,8.048411376953124,-0.9995880126953125,-0.10955810546875,-0.013946533203125
1751013781796354300,8.058354248046875,-1.0017852783203125,-0.1087646484375,-0.01055908203125
1751013781806298400,8.06829833984375,-1.0070343017578125,-0.1058197021484375,-0.0125732421875
1751013781816241200,8.0782412109375,-1.0104522705078125,-0.1072235107421875,-0.0191650390625
1751013781826184200,8.08818408203125,-1.0130462646484375,-0.1077728271484375,-0.0199432373046875
1751013781836128300,8.098128173828124,-1.017059326171875,-0.1073455810546875,-0.020050048828125
1751013781846071300,8.1080712890625,-1.016937255859375,-0.1080169677734375,-0.0203857421875
1751013781856015000,8.11801513671875,-1.0153350830078125,-0.106048583984375,-0.0211944580078125
1751013781865958100,8.127958251953125,-1.011383056640625,-0.10333251953125,-0.01763916015625
1751013781875902500,8.13790234375,-1.00543212890625,-0.1021575927734375,-0.01275634765625
1751013781885845500,8.147845458984374,-0.9990234375,-0.1028289794921875,-0.0142364501953125
1751013781895789300,8.157789306640625,-0.994049072265625,-0.103912353515625,-0.01239013671875
1751013781905732400,8.167732421875,-0.9952545166015625,-0.1057281494140625,-0.0174407958984375
1751013781915675400,8.17767529296875,-0.9913787841796875,-0.1097564697265625,-0.0202484130859375
1751013781925619500,8.187619384765625,-0.9882049560546875,-0.111328125,-0.021484375
1751013781935562500,8.1975625,-0.9892730712890625,-0.1096343994140625,-0.0190582275390625
1751013781945506300,8.20750634765625,-0.9907379150390625,-0.108062744140625,-0.0191650390625
1751013781955449300,8.217449462890626,-0.9969635009765625,-0.107269287109375,-0.021881103515625
1751013781965393400,8.227393310546875,-1.0034942626953125,-0.1063232421875,-0.019805908203125
1751013781975336200,8.237336181640625,-1.0076904296875,-0.1056365966796875,-0.0161590576171875
1751013781985280300,8.2472802734375,-1.0096282958984375,-0.1048431396484375,-0.01318359375
1751013781995223300,8.257223388671875,-1.0125732421875,-0.10455322265625,-0.011962890625
1751013782005166300,8.267166259765625,-1.016387939453125,-0.103729248046875,-0.0124359130859375
1751013782015110100,8.277110107421874,-1.0182952880859375,-0.104736328125,-0.0135955810546875
1751013782025053200,8.28705322265625,-1.0199127197265625,-0.103668212890625,-0.0186004638671875
1751013782034997200,8.296997314453124,-1.0184326171875,-0.103668212890625,-0.0197296142578125
1751013782044940300,8.306940185546875,-1.014739990234375,-0.10302734375,-0.0206756591796875
1751013782054884400,8.31688427734375,-1.0137786865234375,-0.1035308837890625,-0.021240234375
1751013782064827100,8.3268271484375,-1.0131072998046875,-0.1075897216796875,-0.0223388671875
1751013782074771500,8.336771484375,-1.0082550048828125,-0.112548828125,-0.0223846435546875
1751013782084714500,8.346714599609374,-1.006317138671875,-0.114288330078125,-0.01934814453125
1751013782094658300,8.356658203125,-1.0065460205078125,-0.1159515380859375,-0.0190277099609375
1751013782104601300,8.366601318359375,-1.0053253173828125,-0.1163177490234375,-0.0176544189453125
1751013782114544400,8.37654443359375,-1.006500244140625,-0.114044189453125,-0.0157012939453125
1751013782124488400,8.386488525390625,-1.00689697265625,-0.111053466796875,-0.0157928466796875
1751013782134431500,8.396431396484376,-1.004119873046875,-0.109588623046875,-0.0146636962890625
1751013782144375300,8.406375244140625,-1.0040740966796875,-0.1092987060546875,-0.013458251953125
1751013782154318300,8.416318359375,-1.00396728515625,-0.109527587890625,-0.015380859375
1751013782164262400,8.426262451171874,-1.00390625,-0.107391357421875,-0.0218505859375
1751013782174205200,8.436205078125,-1.004302978515625,-0.1063232421875,-0.026336669921875
1751013782184149200,8.446149169921876,-1.0084991455078125,-0.10809326171875,-0.0262603759765625
1751013782194092300,8.45609228515625,-1.01214599609375,-0.104736328125,-0.025543212890625
1751013782204035300,8.466035400390625,-1.018463134765625,-0.1009674072265625,-0.024444580078125
1751013782213979100,8.475979248046874,-1.0226898193359375,-0.09991455078125,-0.0243377685546875
1751013782223922200,8.485922119140625,-1.0256195068359375,-0.09710693359375,-0.0204010009765625
1751013782233866200,8.4958662109375,-1.0273895263671875,-0.095245361328125,-0.01910400390625
1751013782243809300,8.505809326171875,-1.026397705078125,-0.0973052978515625,-0.02166748046875
1751013782253753300,8.51575341796875,-1.02191162109375,-0.1009521484375,-0.0241851806640625
1751013782263696400,8.5256962890625,-1.0200958251953125,-0.100921630859375,-0.0247039794921875
1751013782273640400,8.535640380859375,-1.0194244384765625,-0.0989990234375,-0.0266571044921875
1751013782283583500,8.54558349609375,-1.01641845703125,-0.1031036376953125,-0.0320281982421875
1751013782293526500,8.555526611328125,-1.014495849609375,-0.1069183349609375,-0.0323028564453125
1751013782303470300,8.56547021484375,-1.0123138427734375,-0.10888671875,-0.03021240234375
1751013782313413400,8.575413330078124,-1.0089569091796875,-0.1131439208984375,-0.030303955078125
1751013782323357400,8.585357421875,-1.007659912109375,-0.1169891357421875,-0.032012939453125
1751013782333300500,8.595300537109376,-1.004547119140625,-0.11865234375,-0.033416748046875
1751013782343244300,8.605244384765625,-1.0004425048828125,-0.119781494140625,-0.0325775146484375
1751013782353187300,8.615187255859375,-0.9936676025390625,-0.1192779541015625,-0.0260772705078125
1751013782363131400,8.62513134765625,-0.9911041259765625,-0.11865234375,-0.0232391357421875
1751013782373074200,8.63507421875,-0.9904022216796875,-0.117828369140625,-0.02178955078125
1751013782383018200,8.645018310546876,-0.9905242919921875,-0.11602783203125,-0.020843505859375
1751013782392961300,8.654961181640624,-0.9970703125,-0.112762451171875,-0.0195159912109375
1751013782402904300,8.664904296875,-1.004302978515625,-0.109283447265625,-0.0190582275390625
1751013782412848000,8.67484814453125,-1.011260986328125,-0.1072998046875,-0.0215911865234375
1751013782422791200,8.684791259765625,-1.0159759521484375,-0.104522705078125,-0.02197265625
1751013782432735200,8.6947353515625,-1.0216522216796875,-0.1011505126953125,-0.0214080810546875
1751013782442678300,8.70467822265625,-1.0263671875,-0.0971832275390625,-0.01806640625
1751013782452622300,8.714622314453125,-1.0257415771484375,-0.0954742431640625,-0.0164337158203125
1751013782462565400,8.7245654296875,-1.0244140625,-0.0975494384765625,-0.02117919921875
1751013782472509400,8.734509521484375,-1.0284576416015625,-0.09869384765625,-0.0164794921875
1751013782482452500,8.744452392578125,-1.01806640625,-0.1049957275390625,-0.0116119384765625
1751013782492395500,8.7543955078125,-1.0094146728515625,-0.1134490966796875,-0.0136260986328125
1751013782502339300,8.76433935546875,-1.0202484130859375,-0.1123199462890625,-0.012725830078125
1751013782512282400,8.774282470703126,-1.016845703125,-0.1108856201171875,-0.015655517578125
1751013782522226400,8.784226318359375,-1.0167083740234375,-0.1082000732421875,-0.0164947509765625
1751013782532169200,8.794169189453125,-1.0262908935546875,-0.10101318359375,-0.0159912109375
1751013782542113300,8.80411328125,-1.0254058837890625,-0.0980987548828125,-0.0242767333984375
1751013782552056300,8.814056396484375,-1.021331787109375,-0.0963897705078125,-0.03143310546875
1751013782562000400,8.82400048828125,-1.022552490234375,-0.0917816162109375,-0.0331878662109375
1751013782571943200,8.833943115234375,-1.0167999267578125,-0.091400146484375,-0.0307464599609375
1751013782581887200,8.84388720703125,-1.0061492919921875,-0.0978851318359375,-0.0281524658203125
1751013782591830300,8.853830322265624,-0.9957427978515625,-0.1070709228515625,-0.0281829833984375
1751013782601773300,8.863773193359375,-0.9889068603515625,-0.11767578125,-0.0293121337890625
1751013782611717000,8.873717041015626,-0.984588623046875,-0.1264190673828125,-0.026947021484375
1751013782621660200,8.88366015625,-0.9818878173828125,-0.1295928955078125,-0.0292205810546875
1751013782631604500,8.8936044921875,-0.983428955078125,-0.133056640625,-0.0389251708984375
1751013782641547300,8.90354736328125,-0.994354248046875,-0.1371917724609375,-0.0288543701171875
1751013782651491300,8.9134912109375,-0.986602783203125,-0.139190673828125,-0.0338897705078125
1751013782661434400,8.923434326171876,-0.9955902099609375,-0.130889892578125,-0.041778564453125
1751013782671378400,8.93337841796875,-1.0164031982421875,-0.11016845703125,-0.0374908447265625
1751013782681321700,8.94332177734375,-1.0205535888671875,-0.1007537841796875,-0.050537109375
1751013782691265500,8.953265625,-1.0287017822265625,-0.0940704345703125,-0.053863525390625
1751013782701208600,8.96320849609375,-1.0369873046875,-0.0844573974609375,-0.0623016357421875
1751013782711151600,8.973151611328126,-1.0392913818359375,-0.079498291015625,-0.0648956298828125
1751013782721095700,8.983095703125,-1.039398193359375,-0.08001708984375,-0.0622711181640625
1751013782731038500,8.99303857421875,-1.0338592529296875,-0.08404541015625,-0.051513671875
1751013782740982500,9.002982421875,-1.0228424072265625,-0.0916595458984375,-0.048431396484375
1751013782750925600,9.012925537109375,-1.0063934326171875,-0.105926513671875,-0.047271728515625
1751013782760869400,9.022869384765626,-0.9961395263671875,-0.118011474609375,-0.041351318359375
1751013782770812400,9.0328125,-0.9882965087890625,-0.1273651123046875,-0.0347747802734375
1751013782780756500,9.042756591796875,-0.9801177978515625,-0.1311492919921875,-0.026580810546875
1751013782790699500,9.052699462890626,-0.9767913818359375,-0.12957763671875,-0.023956298828125
1751013782800642600,9.062642578125,-0.9806060791015625,-0.1254730224609375,-0.020599365234375
1751013782810586400,9.07258642578125,-0.9839935302734375,-0.120361328125,-0.0205535888671875
1751013782820529400,9.082529296875,-0.9910125732421875,-0.115509033203125,-0.021026611328125
1751013782830473700,9.0924736328125,-0.9988555908203125,-0.1080474853515625,-0.0227203369140625
1751013782840416800,9.102416748046876,-1.006256103515625,-0.1004791259765625,-0.0277099609375
1751013782850360600,9.112360595703125,-1.007843017578125,-0.0952301025390625,-0.0341033935546875
1751013782860303600,9.1223037109375,-1.0081939697265625,-0.0946502685546875,-0.035736083984375
1751013782870247700,9.13224755859375,-1.0080718994140625,-0.0989990234375,-0.0355377197265625
1751013782880190700,9.142190673828125,-1.00421142578125,-0.108062744140625,-0.035552978515625
1751013782890134500,9.152134521484374,-0.9959869384765625,-0.1164703369140625,-0.035125732421875
1751013782900077600,9.16207763671875,-0.99322509765625,-0.12139892578125,-0.0286865234375
1751013782910020600,9.1720205078125,-0.989471435546875,-0.1247711181640625,-0.02203369140625
1751013782919964700,9.181964599609374,-0.9886932373046875,-0.1248626708984375,-0.0212554931640625
1751013782929907500,9.191907470703125,-0.993621826171875,-0.121795654296875,-0.0241546630859375
1751013782939851500,9.2018515625,-1.0005645751953125,-0.1164398193359375,-0.0344085693359375
1751013782949794600,9.211794677734375,-1.00408935546875,-0.1135101318359375,-0.041748046875
1751013782959738400,9.22173828125,-1.0050201416015625,-0.111785888671875,-0.045196533203125
1751013782969681400,9.231681396484374,-1.0085601806640625,-0.110321044921875,-0.0489959716796875
1751013782979625500,9.24162548828125,-1.013275146484375,-0.1101837158203125,-0.0497894287109375
1751013782989568500,9.251568603515626,-1.01885986328125,-0.1138916015625,-0.049896240234375
1751013782999512600,9.2615126953125,-1.019775390625,-0.1197509765625,-0.0513763427734375
1751013783009455600,9.27145556640625,-1.0141754150390625,-0.1224212646484375,-0.0490264892578125
1751013783019398700,9.281398681640624,-1.0115814208984375,-0.1208343505859375,-0.043670654296875
1751013783029342700,9.2913427734375,-1.0126800537109375,-0.1181488037109375,-0.03839111328125
1751013783039285800,9.30128564453125,-1.0127410888671875,-0.1195220947265625,-0.0382232666015625
1751013783049229600,9.3112294921875,-1.008087158203125,-0.12078857421875,-0.038238525390625
1751013783059172600,9.321172607421875,-1.0082855224609375,-0.1181640625,-0.035430908203125
1751013783069116700,9.33111669921875,-1.010955810546875,-0.11474609375,-0.030853271484375
1751013783079059700,9.341059814453125,-1.012542724609375,-0.1116790771484375,-0.0338287353515625
1751013783089003500,9.35100341796875,-1.0094146728515625,-0.1093597412109375,-0.036773681640625
1751013783098946600,9.360946533203125,-1.0108184814453125,-0.1069183349609375,-0.033416748046875
1751013783108890600,9.370890625,-1.013641357421875,-0.1052703857421875,-0.03363037109375
1751013783118833700,9.380833740234374,-1.013458251953125,-0.107574462890625,-0.0390625
1751013783128776400,9.3907763671875,-1.007415771484375,-0.11187744140625,-0.0390777587890625
1751013783138720500,9.400720458984376,-1.0010986328125,-0.1148223876953125,-0.035003662109375
1751013783148663600,9.41066357421875,-0.99932861328125,-0.1161041259765625,-0.0292816162109375
1751013783158607400,9.420607421875,-0.99505615234375,-0.1196136474609375,-0.027679443359375
1751013783168550400,9.43055029296875,-0.9888458251953125,-0.1197509765625,-0.029510498046875
1751013783178494500,9.440494384765625,-0.989288330078125,-0.1162261962890625,-0.030792236328125
1751013783188437500,9.4504375,-0.9929656982421875,-0.1154937744140625,-0.031341552734375
1751013783198381600,9.460381591796875,-0.9935150146484375,-0.11639404296875,-0.0364532470703125
1751013783208324600,9.47032470703125,-0.9954833984375,-0.1161041259765625,-0.03955078125
1751013783218268700,9.4802685546875,-0.9987335205078125,-0.1122283935546875,-0.0400848388671875
1751013783228211700,9.490211669921875,-1.001495361328125,-0.1102752685546875,-0.0381011962890625
1751013783238155500,9.500155517578126,-1.000152587890625,-0.1102752685546875,-0.03662109375
1751013783248098600,9.5100986328125,-1.0018463134765625,-0.1098175048828125,-0.0363616943359375
1751013783258041600,9.52004150390625,-1.00079345703125,-0.1087646484375,-0.03363037109375
1751013783267985700,9.529985595703126,-1.00177001953125,-0.1102447509765625,-0.033416748046875
1751013783277928700,9.5399287109375,-1.004608154296875,-0.1153411865234375,-0.035125732421875
1751013783287872500,9.54987255859375,-1.0050201416015625,-0.1197052001953125,-0.0363006591796875
1751013783297815600,9.559815673828124,-1.004669189453125,-0.120635986328125,-0.0366668701171875
1751013783307759600,9.569759521484375,-1.006500244140625,-0.120147705078125,-0.0354461669921875
1751013783317702700,9.57970263671875,-1.009979248046875,-0.118988037109375,-0.034759521484375
1751013783327646500,9.589646484375,-1.009918212890625,-0.115203857421875,-0.0369415283203125
1751013783337589500,9.599589599609375,-1.011932373046875,-0.110504150390625,-0.039154052734375
1751013783347533600,9.609533447265624,-1.015716552734375,-0.1070556640625,-0.037689208984375
1751013783357476400,9.619476318359375,-1.0198822021484375,-0.1048736572265625,-0.039764404296875
1751013783367419400,9.62941943359375,-1.0202178955078125,-0.106109619140625,-0.045562744140625
1751013783377363700,9.63936376953125,-1.02130126953125,-0.1077117919921875,-0.04669189453125
1751013783387306500,9.649306396484375,-1.0223541259765625,-0.10894775390625,-0.050506591796875
1751013783397250600,9.65925048828125,-1.0201416015625,-0.112274169921875,-0.0514373779296875
1751013783407193600,9.669193603515625,-1.016510009765625,-0.114013671875,-0.049774169921875
1751013783417137700,9.6791376953125,-1.0139007568359375,-0.1150360107421875,-0.048553466796875
1751013783427080700,9.689080810546875,-1.0114593505859375,-0.1156463623046875,-0.0477294921875
1751013783437024500,9.6990244140625,-1.011444091796875,-0.11614990234375,-0.04852294921875
1751013783446967600,9.708967529296874,-1.01092529296875,-0.118865966796875,-0.0489349365234375
1751013783456911600,9.71891162109375,-1.008575439453125,-0.1209869384765625,-0.0460662841796875
1751013783466854700,9.728854736328126,-1.0050506591796875,-0.1219635009765625,-0.0450592041015625
1751013783476798500,9.738798583984375,-1.00433349609375,-0.121124267578125,-0.0425567626953125
1751013783486741500,9.748741455078125,-1.00396728515625,-0.11981201171875,-0.0421142578125
1751013783496684500,9.7586845703125,-1.0030975341796875,-0.1215362548828125,-0.0436248779296875
1751013783506628600,9.768628662109375,-1.0100250244140625,-0.1199951171875,-0.0499725341796875
1751013783516571600,9.778571533203126,-1.0148468017578125,-0.12152099609375,-0.056549072265625
1751013783526515500,9.788515380859375,-1.0112457275390625,-0.1268310546875,-0.054962158203125
1751013783536458500,9.79845849609375,-1.005889892578125,-0.1247100830078125,-0.040283203125
1751013783546402600,9.808402587890624,-1.002227783203125,-0.1251983642578125,-0.0360107421875
1751013783556345300,9.818345458984375,-0.999847412109375,-0.1290130615234375,-0.0318756103515625
1751013783566289700,9.82828955078125,-0.9967041015625,-0.1316070556640625,-0.0304412841796875
1751013783576232700,9.838232666015625,-0.9917449951171875,-0.1345062255859375,-0.0308074951171875
1751013783586176500,9.848176513671875,-0.98992919921875,-0.1327362060546875,-0.0273590087890625
1751013783596119600,9.85811962890625,-0.9948577880859375,-0.1258544921875,-0.0312652587890625
1751013783606062600,9.8680625,-1.001983642578125,-0.12188720703125,-0.03887939453125
1751013783616006700,9.878006591796876,-1.009368896484375,-0.1175537109375,-0.04534912109375
1751013783625949700,9.88794970703125,-1.01446533203125,-0.1131744384765625,-0.0474700927734375
1751013783635893500,9.8978935546875,-1.0223388671875,-0.1096038818359375,-0.048675537109375
1751013783645836500,9.90783642578125,-1.0260162353515625,-0.107208251953125,-0.0497589111328125
1751013783655780600,9.917780517578125,-1.0257415771484375,-0.1036834716796875,-0.0505523681640625
1751013783665723600,9.9277236328125,-1.0267181396484375,-0.1004486083984375,-0.0497589111328125
1751013783675667000,9.9376669921875,-1.01934814453125,-0.1035003662109375,-0.0496368408203125
1751013783685610000,9.94760986328125,-1.0111541748046875,-0.111541748046875,-0.049102783203125
1751013783695554000,9.957553955078126,-1.0029754638671875,-0.118011474609375,-0.0460052490234375
1751013783705497000,9.9674970703125,-1.0014801025390625,-0.1216888427734375,-0.042938232421875
1751013783715441000,9.97744091796875,-0.9968109130859375,-0.1255035400390625,-0.0411529541015625
1751013783725384000,9.987384033203124,-0.9903717041015625,-0.1274566650390625,-0.0366058349609375
1751013783735327000,9.997326904296875,-0.9862518310546875,-0.1224517822265625,-0.0307464599609375
1751013783745271000,10.00727099609375,-0.9901275634765625,-0.1142425537109375,-0.0277862548828125
1751013783755214000,10.017214111328125,-0.9942474365234375,-0.111907958984375,-0.0274658203125
1751013783765158000,10.027157958984375,-1.002227783203125,-0.11383056640625,-0.0295562744140625
1751013783775101000,10.037100830078124,-1.0035552978515625,-0.1186981201171875,-0.033477783203125
1751013783785045200,10.047045166015625,-1.00726318359375,-0.12213134765625,-0.030059814453125
1751013783794988000,10.056988037109376,-1.0021209716796875,-0.1255645751953125,-0.0343170166015625
1751013783804932000,10.06693212890625,-1.0063323974609375,-0.125274658203125,-0.0272064208984375
1751013783814875100,10.076875244140625,-1.0114288330078125,-0.120147705078125,-0.027862548828125
1751013783824819200,10.086819091796874,-1.0045318603515625,-0.12567138671875,-0.0152587890625
1751013783834762000,10.096761962890625,-1.010040283203125,-0.128021240234375,-0.0350494384765625
1751013783844706000,10.1067060546875,-1.0088348388671875,-0.1150360107421875,-0.025787353515625
1751013783854649000,10.116649169921875,-1.00079345703125,-0.1195831298828125,-0.0302886962890625
1751013783864592100,10.126592041015625,-1.0031890869140625,-0.1265869140625,-0.029693603515625
1751013783874536000,10.136535888671874,-1.001617431640625,-0.1259765625,-0.0284881591796875
1751013783884479000,10.14647900390625,-1.0034942626953125,-0.1211700439453125,-0.022918701171875
1751013783894423000,10.156423095703126,-1.002197265625,-0.1223297119140625,-0.024871826171875
1751013783904366000,10.166365966796874,-1.000244140625,-0.1212615966796875,-0.0266571044921875
1751013783914310000,10.176309814453125,-1,-0.112884521484375,-0.0282135009765625
1751013783924253000,10.1862529296875,-1.0050048828125,-0.110992431640625,-0.0292205810546875
1751013783934197000,10.196197021484375,-1.00457763671875,-0.1116790771484375,-0.02996826171875
1751013783944140000,10.20614013671875,-0.9990234375,-0.1131439208984375,-0.0328521728515625
1751013783954083800,10.216083740234374,-0.9983978271484375,-0.119171142578125,-0.03302001953125
1751013783964027000,10.22602685546875,-1.0018768310546875,-0.1229095458984375,-0.0342864990234375
1751013783973971200,10.23597119140625,-1.0030670166015625,-0.119171142578125,-0.028411865234375
1751013783983914200,10.245914306640625,-1.0020294189453125,-0.116973876953125,-0.0237884521484375
1751013783993858000,10.255858154296876,-1.002960205078125,-0.1142425537109375,-0.023345947265625
1751013784003801000,10.265801025390624,-1.0013885498046875,-0.1098480224609375,-0.0266571044921875
1751013784013744000,10.275744140625,-1.001556396484375,-0.109588623046875,-0.0383453369140625
1751013784023688200,10.285688232421874,-1.0039215087890625,-0.11163330078125,-0.0450439453125
1751013784033631000,10.295630859375,-1.004241943359375,-0.113616943359375,-0.046630859375
1751013784043575000,10.305574951171875,-1.0093841552734375,-0.117584228515625,-0.0491790771484375
1751013784053518000,10.31551806640625,-1.01190185546875,-0.1219024658203125,-0.0533447265625
1751013784063462100,10.325462158203125,-1.0052337646484375,-0.1251068115234375,-0.0513153076171875
1751013784073405000,10.335405029296876,-1.001708984375,-0.1245880126953125,-0.0453948974609375
1751013784083349000,10.345348876953125,-1.0037841796875,-0.123077392578125,-0.0423431396484375
1751013784093292000,10.3552919921875,-1.0014190673828125,-0.121917724609375,-0.0408172607421875
1751013784103235800,10.36523583984375,-0.9997711181640625,-0.123016357421875,-0.0418243408203125
1751013784113179000,10.375178955078125,-1.004547119140625,-0.1231689453125,-0.0483551025390625
1751013784123123000,10.385123046875,-1.01141357421875,-0.1224365234375,-0.05126953125
1751013784133066000,10.39506591796875,-1.01605224609375,-0.1214447021484375,-0.0498046875
1751013784143010000,10.405010009765626,-1.018646240234375,-0.1201171875,-0.049041748046875
1751013784152952800,10.414952880859374,-1.021820068359375,-0.117706298828125,-0.0541839599609375
1751013784162896000,10.424895751953125,-1.0255584716796875,-0.120269775390625,-0.058013916015625
1751013784172840200,10.434840087890626,-1.0257720947265625,-0.1248016357421875,-0.058746337890625
1751013784182783200,10.444783203125,-1.0179443359375,-0.128143310546875,-0.06329345703125
1751013784192727000,10.45472705078125,-1.00970458984375,-0.1316375732421875,-0.0638580322265625
1751013784202670000,10.464670166015624,-1.008331298828125,-0.1324462890625,-0.0597686767578125
1751013784212614100,10.4746142578125,-1.0070648193359375,-0.1280670166015625,-0.0545806884765625
1751013784222557200,10.48455712890625,-1.006103515625,-0.1230316162109375,-0.044525146484375
1751013784232501000,10.4945009765625,-1.00592041015625,-0.1211700439453125,-0.0422515869140625
1751013784242444000,10.504444091796875,-1.0085296630859375,-0.11663818359375,-0.039031982421875
1751013784252388000,10.51438818359375,-1.0101165771484375,-0.111602783203125,-0.03692626953125
1751013784262331100,10.5243310546875,-1.0086669921875,-0.1116485595703125,-0.0362396240234375
1751013784272275000,10.53427490234375,-1.0089874267578125,-0.1111907958984375,-0.0354461669921875
1751013784282218000,10.544218017578125,-1.0082244873046875,-0.111572265625,-0.0387115478515625
1751013784292161000,10.5541611328125,-1.0068206787109375,-0.1122589111328125,-0.0389556884765625
1751013784302104800,10.564104736328124,-1.0114898681640625,-0.113037109375,-0.037017822265625
1751013784312047900,10.5740478515625,-1.011932373046875,-0.115570068359375,-0.0405120849609375
1751013784321992000,10.583991943359376,-1.0093994140625,-0.118988037109375,-0.0467681884765625
1751013784331935000,10.59393505859375,-1.0067138671875,-0.120208740234375,-0.0444793701171875
1751013784341879000,10.603879150390625,-1.007171630859375,-0.1196441650390625,-0.04132080078125
1751013784351822000,10.613822021484374,-1.005035400390625,-0.120025634765625,-0.04052734375
1751013784361766100,10.62376611328125,-1.0023193359375,-0.1208953857421875,-0.04046630859375
1751013784371709200,10.633709228515626,-1.00152587890625,-0.118865966796875,-0.039276123046875
1751013784381653000,10.643653076171875,-1.00164794921875,-0.1164703369140625,-0.034820556640625
1751013784391596000,10.653595947265625,-1.000274658203125,-0.1157073974609375,-0.03033447265625
1751013784401540000,10.6635400390625,-0.9994659423828125,-0.116729736328125,-0.0314483642578125
1751013784411483100,10.673483154296875,-0.999298095703125,-0.1162261962890625,-0.031982421875
1751013784421427000,10.683427001953126,-1.001068115234375,-0.11273193359375,-0.0329132080078125
1751013784431370000,10.693369873046874,-1.00341796875,-0.11260986328125,-0.0359649658203125
1751013784441313000,10.70331298828125,-1.00634765625,-0.113372802734375,-0.039642333984375
1751013784451257000,10.713257080078124,-1.005279541015625,-0.11187744140625,-0.0407562255859375
1751013784461200000,10.723199951171875,-1.0045013427734375,-0.1089630126953125,-0.0374908447265625
1751013784471144000,10.73314404296875,-1.003204345703125,-0.111297607421875,-0.04034423828125
1751013784481087000,10.7430869140625,-0.998779296875,-0.11224365234375,-0.0405120849609375
1751013784491031000,10.753031005859375,-0.9934234619140625,-0.111572265625,-0.0347747802734375
1751013784500973800,10.762973876953126,-0.987457275390625,-0.1130218505859375,-0.027099609375
1751013784510918100,10.772918212890625,-0.988037109375,-0.1136322021484375,-0.0214691162109375
1751013784520861000,10.78286083984375,-0.990325927734375,-0.1104583740234375,-0.0229034423828125
1751013784530805000,10.792804931640624,-0.987457275390625,-0.1074066162109375,-0.0260772705078125
1751013784540748000,10.802748046875,-0.9755096435546875,-0.1052703857421875,-0.0258026123046875
1751013784550692000,10.812692138671874,-1.0026702880859375,-0.1071319580078125,-0.033843994140625
1751013784560635100,10.82263525390625,-1.0192108154296875,-0.1097412109375,-0.0438995361328125
1751013784570579000,10.832578857421876,-1.00762939453125,-0.1121368408203125,-0.051239013671875
1751013784580522000,10.84252197265625,-0.9982147216796875,-0.1104583740234375,-0.0538330078125
1751013784590465000,10.852465087890625,-0.9910430908203125,-0.1070556640625,-0.0482635498046875
