time,seconds_elapsed,z,y,x
1751013467946229500,0.1182294921875,-1.0301513671875,-0.179840087890625,0.014312744140625
1751013467956172500,0.128172607421875,-1.0117645263671875,-0.183197021484375,0.0128173828125
1751013467966116400,0.138116455078125,-1.0005645751953125,-0.182342529296875,0.0159454345703125
1751013467976059400,0.148059326171875,-0.9988250732421875,-0.180694580078125,0.02447509765625
1751013467986002400,0.15800244140625,-0.993499755859375,-0.180572509765625,0.0311431884765625
1751013467995946500,0.167946533203125,-0.9827117919921875,-0.183319091796875,0.0296783447265625
1751013468005889500,0.1778896484375,-0.9746551513671875,-0.185699462890625,0.0265960693359375
1751013468015832300,0.187832275390625,-0.9734649658203125,-0.18646240234375,0.025390625
1751013468025775400,0.197775390625,-0.978973388671875,-0.1894683837890625,0.0248260498046875
1751013468035719400,0.207719482421875,-0.9872894287109375,-0.1951446533203125,0.0251922607421875
1751013468045662500,0.217662353515625,-0.9969940185546875,-0.1977691650390625,0.02392578125
1751013468055605500,0.22760546875,-1.00262451171875,-0.197357177734375,0.0245208740234375
1751013468065549300,0.23754931640625,-1.0030517578125,-0.1936187744140625,0.0225372314453125
1751013468075492400,0.247492431640625,-1.005218505859375,-0.1888885498046875,0.0196685791015625
1751013468085435400,0.257435302734375,-1.011016845703125,-0.1858062744140625,0.0239715576171875
1751013468095378400,0.26737841796875,-1.0135345458984375,-0.1825714111328125,0.0285186767578125
1751013468105322200,0.277322265625,-1.00714111328125,-0.179290771484375,0.0273895263671875
1751013468115265300,0.287265380859375,-1.0023193359375,-0.1768646240234375,0.02880859375
1751013468125208300,0.297208251953125,-0.9946136474609375,-0.1767425537109375,0.0261688232421875
1751013468135152400,0.30715234375,-0.9871368408203125,-0.1802215576171875,0.021728515625
1751013468145095400,0.317095458984375,-0.9855804443359375,-0.18243408203125,0.0215606689453125
1751013468155038500,0.32703857421875,-0.989044189453125,-0.1864471435546875,0.02490234375
1751013468164982300,0.336982177734375,-0.9887847900390625,-0.189239501953125,0.03057861328125
1751013468174925300,0.34692529296875,-0.9862060546875,-0.19085693359375,0.02801513671875
1751013468184868400,0.356868408203125,-0.9805755615234375,-0.196197509765625,0.0196685791015625
1751013468194812400,0.3668125,-0.978179931640625,-0.1988525390625,0.011993408203125
1751013468204755200,0.376755126953125,-0.97833251953125,-0.19976806640625,0.0136260986328125
1751013468214698200,0.3866982421875,-0.9794921875,-0.201171875,0.0223541259765625
1751013468224641300,0.396641357421875,-0.9801177978515625,-0.2002105712890625,0.024749755859375
1751013468234585300,0.40658544921875,-0.9842071533203125,-0.198822021484375,0.024078369140625
1751013468244528400,0.4165283203125,-0.9876251220703125,-0.198455810546875,0.0284271240234375
1751013468254471400,0.426471435546875,-0.983673095703125,-0.1986541748046875,0.03375244140625
1751013468264415500,0.43641552734375,-0.98602294921875,-0.196258544921875,0.036102294921875
1751013468274358500,0.446358642578125,-0.9913177490234375,-0.1975860595703125,0.0355987548828125
1751013468284301300,0.45630126953125,-0.9994049072265625,-0.2008209228515625,0.030120849609375
1751013468294244400,0.466244384765625,-0.9975738525390625,-0.20220947265625,0.0235443115234375
1751013468304188400,0.4761884765625,-0.996612548828125,-0.2027435302734375,0.01971435546875
1751013468314131500,0.48613134765625,-0.997161865234375,-0.205108642578125,0.019195556640625
1751013468324074500,0.496074462890625,-0.9979400634765625,-0.206573486328125,0.0175018310546875
1751013468334018600,0.5060185546875,-0.9979095458984375,-0.2075958251953125,0.01910400390625
1751013468343961600,0.515961669921875,-1.00103759765625,-0.2056121826171875,0.0235748291015625
1751013468353904400,0.525904296875,-1.0005645751953125,-0.204132080078125,0.03228759765625
1751013468363848400,0.535848388671875,-0.9964599609375,-0.2001190185546875,0.0317535400390625
1751013468373791200,0.545791259765625,-1.0026397705078125,-0.1980133056640625,0.0296630859375
1751013468383734300,0.555734375,-0.998687744140625,-0.20343017578125,0.036773681640625
1751013468393677300,0.56567724609375,-0.9894256591796875,-0.2042694091796875,0.044342041015625
1751013468403621000,0.57562109375,-0.9837188720703125,-0.199188232421875,0.0463104248046875
1751013468413564200,0.585564208984375,-0.9816741943359375,-0.2015228271484375,0.044952392578125
1751013468423507200,0.595507080078125,-0.9868316650390625,-0.205169677734375,0.0421600341796875
1751013468433451300,0.605451171875,-0.990325927734375,-0.2042694091796875,0.0407562255859375
1751013468443394300,0.615394287109375,-0.9906768798828125,-0.204437255859375,0.0403289794921875
1751013468453337000,0.625337158203125,-0.992950439453125,-0.203765869140625,0.0380096435546875
1751013468463281200,0.63528125,-0.9942626953125,-0.2022705078125,0.0351715087890625
1751013468473224200,0.64522412109375,-0.9979248046875,-0.2002105712890625,0.03460693359375
1751013468483167200,0.655167236328125,-1.001129150390625,-0.19964599609375,0.034271240234375
1751013468493110300,0.6651103515625,-1.0006103515625,-0.2005767822265625,0.0352783203125
1751013468503054000,0.67505419921875,-0.99884033203125,-0.1987762451171875,0.0356903076171875
1751013468512997000,0.6849970703125,-0.9955291748046875,-0.19622802734375,0.0334014892578125
1751013468522940200,0.694940185546875,-0.992034912109375,-0.1967926025390625,0.0276336669921875
1751013468532884200,0.70488427734375,-0.9895782470703125,-0.1971588134765625,0.0223846435546875
1751013468542827000,0.714826904296875,-0.9919281005859375,-0.1975555419921875,0.01947021484375
1751013468552770000,0.72477001953125,-0.997314453125,-0.20025634765625,0.0211639404296875
1751013468562714000,0.734714111328125,-1.00341796875,-0.2034454345703125,0.0206756591796875
1751013468572657200,0.7446572265625,-1.009246826171875,-0.205718994140625,0.0218658447265625
1751013468582600200,0.75460009765625,-1.0118865966796875,-0.2051849365234375,0.0255126953125
1751013468592543200,0.764543212890625,-1.010894775390625,-0.202392578125,0.0287628173828125
1751013468602487000,0.774487060546875,-1.0042877197265625,-0.1993408203125,0.0297088623046875
1751013468612430000,0.78443017578125,-0.9980621337890625,-0.1983489990234375,0.0279083251953125
1751013468622373000,0.794373046875,-0.994781494140625,-0.19805908203125,0.0282745361328125
1751013468632317200,0.804317138671875,-0.9874267578125,-0.197479248046875,0.0338592529296875
1751013468642260000,0.814260009765625,-0.97845458984375,-0.1994476318359375,0.0377655029296875
1751013468652203000,0.824203125,-0.971710205078125,-0.203369140625,0.0355377197265625
1751013468662147000,0.83414697265625,-0.97076416015625,-0.2092742919921875,0.02947998046875
1751013468672090000,0.844090087890625,-0.9703826904296875,-0.2123260498046875,0.02484130859375
1751013468682033200,0.854033203125,-0.977783203125,-0.21063232421875,0.0228424072265625
1751013468691976200,0.86397607421875,-0.986419677734375,-0.2083740234375,0.0249786376953125
1751013468701920000,0.873919921875,-0.9919281005859375,-0.2059173583984375,0.0269775390625
1751013468711863000,0.883863037109375,-0.9933013916015625,-0.2022247314453125,0.030487060546875
1751013468721806000,0.89380615234375,-0.993316650390625,-0.20184326171875,0.0275115966796875
1751013468731750100,0.903750244140625,-0.983489990234375,-0.2071685791015625,0.0238494873046875
1751013468741693200,0.913693115234375,-0.9837646484375,-0.199981689453125,0.03497314453125
1751013468751636200,0.92363623046875,-0.99139404296875,-0.197662353515625,0.0354461669921875
1751013468761580300,0.933580322265625,-0.99200439453125,-0.2067718505859375,0.034515380859375
1751013468771523300,0.9435234375,-0.9917144775390625,-0.20599365234375,0.0284423828125
1751013468781466400,0.95346630859375,-0.9944610595703125,-0.204345703125,0.02337646484375
1751013468791409200,0.9634091796875,-0.9987335205078125,-0.2058868408203125,0.0227508544921875
1751013468801353200,0.973353271484375,-1.003814697265625,-0.205963134765625,0.025482177734375
1751013468811296300,0.983296142578125,-1.0037689208984375,-0.20513916015625,0.0297698974609375
1751013468821239300,0.9932392578125,-0.996978759765625,-0.20428466796875,0.032257080078125
1751013468831183000,1.00318310546875,-0.9975433349609375,-0.2020416259765625,0.0335540771484375
1751013468841126100,1.013126220703125,-1.004791259765625,-0.20098876953125,0.0286407470703125
1751013468851069200,1.023069091796875,-0.999267578125,-0.2049407958984375,0.0290069580078125
1751013468861013200,1.03301318359375,-0.9990234375,-0.20361328125,0.027679443359375
1751013468870956300,1.042956298828125,-0.995849609375,-0.2019500732421875,0.026153564453125
1751013468880899000,1.052899169921875,-0.997039794921875,-0.2014617919921875,0.02459716796875
1751013468890842000,1.062842041015625,-1.00054931640625,-0.2042236328125,0.0269622802734375
1751013468900786200,1.0727861328125,-1.000640869140625,-0.2057037353515625,0.0266265869140625
1751013468910729200,1.082729248046875,-0.999481201171875,-0.2046661376953125,0.024810791015625
1751013468920672300,1.09267236328125,-0.9986572265625,-0.2063446044921875,0.0245208740234375
1751013468930616000,1.102615966796875,-0.9938507080078125,-0.2086181640625,0.0265655517578125
1751013468940559000,1.11255908203125,-0.989654541015625,-0.208770751953125,0.026275634765625
1751013468950502100,1.122502197265625,-0.9863433837890625,-0.206024169921875,0.0239715576171875
1751013468960446200,1.1324462890625,-0.9878692626953125,-0.2040863037109375,0.024322509765625
1751013468970389200,1.14238916015625,-0.992706298828125,-0.1996307373046875,0.029449462890625
1751013468980332000,1.15233203125,-0.9949951171875,-0.19488525390625,0.032135009765625
1751013468990275000,1.162275146484375,-0.9973907470703125,-0.1917877197265625,0.029541015625
1751013469000219100,1.17221923828125,-1.00238037109375,-0.1910858154296875,0.0223388671875
1751013469010162200,1.182162109375,-1.002288818359375,-0.1886749267578125,0.0176239013671875
1751013469020105200,1.192105224609375,-1.0056304931640625,-0.189117431640625,0.0167083740234375
1751013469030049000,1.202049072265625,-1.010040283203125,-0.1860504150390625,0.0096435546875
1751013469039992000,1.211991943359375,-1.0062255859375,-0.18280029296875,0.00732421875
1751013469049935000,1.22193505859375,-0.9978790283203125,-0.1844635009765625,0.00390625
1751013469059878100,1.231878173828125,-0.98028564453125,-0.19000244140625,0.0017547607421875
1751013469069822000,1.241822021484375,-0.9649200439453125,-0.1984100341796875,0.005279541015625
1751013469079765000,1.251764892578125,-0.95233154296875,-0.2055206298828125,0.01068115234375
1751013469089708000,1.2617080078125,-0.9476470947265625,-0.205352783203125,0.0145721435546875
1751013469099652000,1.271652099609375,-0.952850341796875,-0.2023773193359375,0.0214996337890625
1751013469109595100,1.28159521484375,-0.96875,-0.2076568603515625,0.0326385498046875
1751013469119538200,1.2915380859375,-0.984710693359375,-0.220428466796875,0.042755126953125
1751013469129482000,1.30148193359375,-0.9985198974609375,-0.2301025390625,0.0520172119140625
1751013469139425000,1.311425048828125,-1.00738525390625,-0.234771728515625,0.0599822998046875
1751013469149368000,1.3213681640625,-1.0147247314453125,-0.239227294921875,0.0667724609375
1751013469159311000,1.33131103515625,-1.016265869140625,-0.2408599853515625,0.0743255615234375
1751013469169255200,1.341255126953125,-1.0113067626953125,-0.2335662841796875,0.086761474609375
1751013469179198200,1.3511982421875,-1.00634765625,-0.228271484375,0.096588134765625
1751013469189141000,1.36114111328125,-1.0012969970703125,-0.23095703125,0.0976715087890625
1751013469199085300,1.371085205078125,-1.00347900390625,-0.2315826416015625,0.0923919677734375
1751013469209028400,1.3810283203125,-1.0096588134765625,-0.2269287109375,0.09051513671875
1751013469218971100,1.39097119140625,-1.013031005859375,-0.22064208984375,0.0839080810546875
1751013469228915200,1.400915283203125,-1.013641357421875,-0.215240478515625,0.0711669921875
1751013469238858200,1.410858154296875,-1.0138092041015625,-0.2133636474609375,0.0604400634765625
1751013469248801300,1.42080126953125,-1.0046539306640625,-0.211639404296875,0.0488739013671875
1751013469258744300,1.430744384765625,-0.9947052001953125,-0.2065277099609375,0.0398101806640625
1751013469268688100,1.440688232421875,-0.9838714599609375,-0.2015838623046875,0.0337677001953125
1751013469278631200,1.450631103515625,-0.9811248779296875,-0.1966552734375,0.031341552734375
1751013469288574200,1.46057421875,-0.9828643798828125,-0.191436767578125,0.0242462158203125
1751013469298518300,1.470518310546875,-0.983367919921875,-0.188079833984375,0.01434326171875
1751013469308461300,1.48046142578125,-0.9894866943359375,-0.189666748046875,0.0093536376953125
1751013469318404000,1.490404052734375,-0.9930877685546875,-0.186859130859375,0.0061798095703125
1751013469328348200,1.50034814453125,-0.9984588623046875,-0.1797943115234375,-0.0006256103515625
1751013469338291200,1.510291259765625,-1.0004119873046875,-0.1765899658203125,-0.01116943359375
1751013469348234200,1.520234130859375,-0.99560546875,-0.1783905029296875,-0.01611328125
1751013469358177300,1.53017724609375,-0.9918670654296875,-0.1813201904296875,-0.019134521484375
1751013469368121000,1.54012109375,-0.992156982421875,-0.1840972900390625,-0.0216064453125
1751013469378064400,1.550064453125,-0.989166259765625,-0.18682861328125,-0.023712158203125
1751013469388007400,1.56000732421875,-0.987518310546875,-0.1890106201171875,-0.025543212890625
1751013469397951500,1.569951416015625,-0.9888153076171875,-0.1910247802734375,-0.026458740234375
1751013469407894300,1.579894287109375,-0.9803924560546875,-0.1932373046875,-0.022705078125
1751013469417837300,1.58983740234375,-0.96868896484375,-0.1943817138671875,-0.0170135498046875
1751013469427780400,1.5997802734375,-0.9632110595703125,-0.1989593505859375,-0.0122833251953125
1751013469437724700,1.609724609375,-0.965057373046875,-0.2061614990234375,-0.0103912353515625
1751013469447667700,1.619667724609375,-0.9691162109375,-0.2119598388671875,-0.00830078125
1751013469457610500,1.629610595703125,-0.9726104736328125,-0.21148681640625,-0.00909423828125
1751013469467554600,1.639554443359375,-0.975067138671875,-0.2121124267578125,-0.007904052734375
1751013469477497600,1.64949755859375,-0.9749298095703125,-0.215118408203125,-0.00677490234375
1751013469487440600,1.659440673828125,-0.970367431640625,-0.2138671875,-0.007659912109375
1751013469497384400,1.669384521484375,-0.9714508056640625,-0.20623779296875,-0.0082244873046875
1751013469507327500,1.679327392578125,-0.9798736572265625,-0.2085418701171875,-0.0084075927734375
1751013469517270500,1.6892705078125,-0.9852447509765625,-0.2121734619140625,-0.0050811767578125
1751013469527213600,1.699213623046875,-0.9864501953125,-0.2082061767578125,0.0030975341796875
1751013469537157600,1.70915771484375,-0.986328125,-0.2052459716796875,0.01043701171875
1751013469547100400,1.719100341796875,-0.9890594482421875,-0.20513916015625,0.013946533203125
1751013469557043500,1.72904345703125,-0.996795654296875,-0.2072601318359375,0.01312255859375
1751013469566987500,1.738987548828125,-1.0027923583984375,-0.210693359375,0.0083770751953125
1751013469576930600,1.7489306640625,-0.998199462890625,-0.2104034423828125,0.0018310546875
1751013469586873600,1.75887353515625,-0.9917755126953125,-0.2075347900390625,-0.0006103515625
1751013469596817400,1.7688173828125,-0.9933319091796875,-0.20562744140625,-0.004669189453125
1751013469606760400,1.778760498046875,-0.9951629638671875,-0.206573486328125,-0.0095672607421875
1751013469616703500,1.788703369140625,-0.9938507080078125,-0.2120208740234375,-0.013641357421875
1751013469626646500,1.798646484375,-0.989227294921875,-0.21685791015625,-0.014617919921875
1751013469636590600,1.808590576171875,-0.9888763427734375,-0.216705322265625,-0.011322021484375
1751013469646533400,1.818533447265625,-0.9891815185546875,-0.216766357421875,-0.0087738037109375
1751013469656476400,1.828476318359375,-0.98370361328125,-0.2136688232421875,-0.0059051513671875
1751013469666420500,1.83842041015625,-0.9831695556640625,-0.2086029052734375,-0.0036773681640625
1751013469676363500,1.848363525390625,-0.9877471923828125,-0.20452880859375,-0.0006561279296875
1751013469686306600,1.858306640625,-0.99371337890625,-0.200439453125,0.0014801025390625
1751013469696250400,1.86825048828125,-0.9954376220703125,-0.1982879638671875,0.000823974609375
1751013469706193400,1.878193359375,-0.9966583251953125,-0.1985321044921875,0.0011444091796875
1751013469716136400,1.888136474609375,-0.9977874755859375,-0.1993255615234375,0.0030975341796875
1751013469726079500,1.89807958984375,-0.9983367919921875,-0.198944091796875,0.0048980712890625
1751013469736023600,1.9080234375,-0.995513916015625,-0.197509765625,0.0063629150390625
1751013469745966300,1.91796630859375,-0.9937286376953125,-0.1956939697265625,0.0092315673828125
1751013469755909400,1.927909423828125,-0.9974365234375,-0.1952972412109375,0.0086212158203125
1751013469765853400,1.937853515625,-1.0026397705078125,-0.192230224609375,0.00634765625
1751013469775796500,1.94779638671875,-1.006439208984375,-0.190765380859375,0.0086517333984375
1751013469785739500,1.957739501953125,-1.00701904296875,-0.191864013671875,0.0159149169921875
1751013469795682300,1.967682373046875,-1.0049896240234375,-0.1910552978515625,0.01995849609375
1751013469805626400,1.97762646484375,-0.9996185302734375,-0.1895904541015625,0.0196685791015625
1751013469815569400,1.9875693359375,-0.99591064453125,-0.1894073486328125,0.02203369140625
1751013469825512400,1.997512451171875,-0.996551513671875,-0.1895294189453125,0.023651123046875
1751013469835456300,2.007456298828125,-0.995880126953125,-0.189483642578125,0.0250396728515625
1751013469845399300,2.0173994140625,-1.0006256103515625,-0.1876983642578125,0.023101806640625
1751013469855342300,2.02734228515625,-1.0018768310546875,-0.18701171875,0.021087646484375
1751013469865286700,2.03728662109375,-0.997344970703125,-0.186981201171875,0.0210113525390625
1751013469875229700,2.047229736328125,-0.99444580078125,-0.1870880126953125,0.0162506103515625
1751013469885172500,2.05717236328125,-0.992706298828125,-0.186920166015625,0.012481689453125
1751013469895115300,2.067115234375,-0.9918212890625,-0.1894073486328125,0.0160064697265625
1751013469905059600,2.0770595703125,-0.9928436279296875,-0.191558837890625,0.0198516845703125
1751013469915002600,2.087002685546875,-0.992340087890625,-0.1920318603515625,0.024688720703125
1751013469924945700,2.096945556640625,-0.9928131103515625,-0.1924896240234375,0.02435302734375
1751013469934889500,2.106889404296875,-0.9949493408203125,-0.1953125,0.0201873779296875
1751013469944832500,2.11683251953125,-0.9969024658203125,-0.1976318359375,0.0193939208984375
1751013469954775600,2.126775634765625,-0.990997314453125,-0.198577880859375,0.0160369873046875
1751013469964719600,2.1367197265625,-0.9881134033203125,-0.1993408203125,0.0162506103515625
1751013469974662700,2.14666259765625,-0.9903411865234375,-0.1981658935546875,0.02008056640625
1751013469984605400,2.15660546875,-0.9933929443359375,-0.1969451904296875,0.0243682861328125
1751013469994548500,2.166548583984375,-0.99603271484375,-0.1941070556640625,0.0286712646484375
1751013470004492500,2.176492431640625,-0.998504638671875,-0.19378662109375,0.0307769775390625
1751013470014435600,2.186435546875,-1.0009918212890625,-0.19281005859375,0.028533935546875
1751013470024378600,2.196378662109375,-1.00225830078125,-0.1898956298828125,0.0260162353515625
1751013470034322400,2.206322509765625,-1.0023956298828125,-0.188385009765625,0.025543212890625
1751013470044265500,2.216265380859375,-1.00299072265625,-0.1882476806640625,0.026580810546875
1751013470054208500,2.22620849609375,-1.002105712890625,-0.18817138671875,0.026458740234375
1751013470064151600,2.236151611328125,-1.002044677734375,-0.1880950927734375,0.02545166015625
1751013470074095400,2.246095458984375,-1.0030364990234375,-0.1903228759765625,0.02349853515625
1751013470084038400,2.256038330078125,-1.000823974609375,-0.1896514892578125,0.0248565673828125
1751013470093981400,2.2659814453125,-1.0009002685546875,-0.1880645751953125,0.0273895263671875
1751013470103925500,2.275925537109375,-0.9995880126953125,-0.188629150390625,0.03045654296875
1751013470113868500,2.28586865234375,-1.000396728515625,-0.1870269775390625,0.029510498046875
1751013470123811600,2.2958115234375,-1.0032196044921875,-0.184814453125,0.0285491943359375
1751013470133755400,2.30575537109375,-1.01263427734375,-0.1826171875,0.020782470703125
1751013470143698400,2.315698486328125,-1.0102691650390625,-0.17266845703125,0.0145111083984375
1751013470153641500,2.325641357421875,-1.005401611328125,-0.1674041748046875,0.0147857666015625
1751013470163584500,2.33558447265625,-1.0037841796875,-0.1636810302734375,0.0067291259765625
1751013470173528300,2.3455283203125,-1.00311279296875,-0.16864013671875,0.0075225830078125
1751013470183471400,2.355471435546875,-0.9992523193359375,-0.17633056640625,0.013885498046875
1751013470193414400,2.365414306640625,-0.9967041015625,-0.17303466796875,0.0252685546875
1751013470203358500,2.3753583984375,-0.9954986572265625,-0.162353515625,0.03753662109375
1751013470213301500,2.385301513671875,-1.0019683837890625,-0.1507415771484375,0.0275115966796875
1751013470223244500,2.39524462890625,-1.00115966796875,-0.1468505859375,0.0189056396484375
1751013470233187300,2.405187255859375,-1.004638671875,-0.1465606689453125,0.0167083740234375
1751013470243131400,2.41513134765625,-1.02105712890625,-0.144195556640625,0.013214111328125
1751013470253074400,2.425074462890625,-1.020294189453125,-0.15814208984375,0.0205841064453125
1751013470263017500,2.435017578125,-1.0125732421875,-0.1710968017578125,0.02862548828125
1751013470272961300,2.444961181640625,-0.9999847412109375,-0.1759033203125,0.033905029296875
1751013470282904300,2.454904296875,-0.98992919921875,-0.170135498046875,0.0263214111328125
1751013470292847400,2.464847412109375,-0.9820098876953125,-0.16546630859375,0.02252197265625
1751013470302791700,2.474791748046875,-0.9802093505859375,-0.1665496826171875,0.02020263671875
1751013470312734500,2.484734375,-0.985260009765625,-0.1664886474609375,0.015838623046875
1751013470322677200,2.49467724609375,-0.99359130859375,-0.1668853759765625,0.0116729736328125
1751013470332620300,2.504620361328125,-0.9997711181640625,-0.1669464111328125,0.0110626220703125
1751013470342564600,2.514564697265625,-0.9985809326171875,-0.165802001953125,0.0129852294921875
1751013470352507600,2.524507568359375,-0.9936370849609375,-0.1623382568359375,0.0138702392578125
1751013470362450700,2.53445068359375,-0.9965667724609375,-0.1558837890625,0.0106353759765625
1751013470372394500,2.54439453125,-0.9999542236328125,-0.15496826171875,0.009002685546875
1751013470382337800,2.554337890625,-1.0035552978515625,-0.1554718017578125,0.0061492919921875
1751013470392280800,2.56428076171875,-1.0019683837890625,-0.156646728515625,0.0035552978515625
1751013470402225000,2.574224853515625,-0.9956512451171875,-0.1549072265625,0.0030670166015625
1751013470412167700,2.584167724609375,-0.993316650390625,-0.151947021484375,0.00201416015625
1751013470422110700,2.59411083984375,-0.9977569580078125,-0.1510009765625,-0.001739501953125
1751013470432053800,2.6040537109375,-1.001373291015625,-0.1598052978515625,-0.0041961669921875
1751013470441997800,2.613997802734375,-1.006866455078125,-0.1702423095703125,-0.0011138916015625
1751013470451940900,2.62394091796875,-1.0092010498046875,-0.1712493896484375,0.002655029296875
1751013470461884000,2.6338837890625,-1.0106658935546875,-0.16864013671875,0.00439453125
1751013470471827700,2.64382763671875,-1.01300048828125,-0.16766357421875,0.004150390625
1751013470481770800,2.653770751953125,-1.0093231201171875,-0.1658935546875,0.0021209716796875
1751013470491713800,2.6637138671875,-1.0023345947265625,-0.1665496826171875,0.0002593994140625
1751013470501656800,2.67365673828125,-0.994110107421875,-0.1742095947265625,0.001312255859375
1751013470511601000,2.683600830078125,-0.9960174560546875,-0.1835784912109375,0.0032501220703125
1751013470521543700,2.693543701171875,-0.9990997314453125,-0.1843109130859375,0.0030975341796875
1751013470531486700,2.70348681640625,-1.0001373291015625,-0.1851043701171875,0.0001983642578125
1751013470541431000,2.71343115234375,-0.9995269775390625,-0.186126708984375,-0.0012969970703125
1751013470551374000,2.7233740234375,-0.9987030029296875,-0.187347412109375,-0.002044677734375
1751013470561316900,2.73331689453125,-0.997711181640625,-0.1853790283203125,-0.0030364990234375
1751013470571261000,2.743260986328125,-0.9965667724609375,-0.1808624267578125,-0.0003814697265625
1751013470581204000,2.753203857421875,-0.9977874755859375,-0.18084716796875,0.0013427734375
1751013470591147000,2.76314697265625,-0.9956512451171875,-0.1837158203125,0.001007080078125
1751013470601090000,2.773090087890625,-0.9927825927734375,-0.1873779296875,0.00146484375
1751013470611033900,2.783033935546875,-0.994110107421875,-0.1840667724609375,0.0008087158203125
1751013470620977000,2.792976806640625,-0.9907989501953125,-0.1796417236328125,0.0027618408203125
1751013470630920000,2.802919921875,-0.9882049560546875,-0.179595947265625,0.0003662109375
1751013470640864000,2.812864013671875,-0.992034912109375,-0.1815032958984375,-0.0043182373046875
1751013470650806800,2.822806884765625,-0.998443603515625,-0.1832733154296875,-0.00762939453125
1751013470660749800,2.832749755859375,-1.0003662109375,-0.1850433349609375,-0.0092315673828125
1751013470670694000,2.84269384765625,-1.0016021728515625,-0.18377685546875,-0.00750732421875
1751013470680637000,2.852636962890625,-0.9977569580078125,-0.1822509765625,-0.0024261474609375
1751013470690580000,2.862580078125,-0.996337890625,-0.181732177734375,0.0018463134765625
1751013470700523000,2.87252294921875,-0.99945068359375,-0.1824798583984375,0.005950927734375
1751013470710466800,2.882466796875,-0.9979705810546875,-0.1815643310546875,0.0066070556640625
1751013470720409900,2.892409912109375,-0.9952392578125,-0.1792144775390625,0.00762939453125
1751013470730353000,2.902352783203125,-0.997772216796875,-0.176116943359375,0.0079193115234375
1751013470740297000,2.912296875,-0.995086669921875,-0.177886962890625,0.006561279296875
1751013470750239700,2.92223974609375,-0.996551513671875,-0.1815032958984375,0.0025787353515625
1751013470760182800,2.932182861328125,-0.9971771240234375,-0.1850738525390625,0.0001983642578125
1751013470770125800,2.942125732421875,-0.9962005615234375,-0.1857757568359375,0.0023193359375
1751013470780070000,2.95206982421875,-0.9960784912109375,-0.1879730224609375,0.0071868896484375
1751013470790013000,2.962012939453125,-0.9928436279296875,-0.1921234130859375,0.0108184814453125
1751013470799956000,2.9719560546875,-0.986541748046875,-0.19189453125,0.012939453125
1751013470809899800,2.981899658203125,-0.9835205078125,-0.1909942626953125,0.0140533447265625
1751013470819842800,2.9918427734375,-0.98638916015625,-0.191558837890625,0.01312255859375
1751013470829785900,3.001785888671875,-0.989349365234375,-0.19342041015625,0.011474609375
1751013470839729700,3.011729736328125,-0.9913330078125,-0.1937103271484375,0.011505126953125
1751013470849672700,3.021672607421875,-0.9923858642578125,-0.197784423828125,0.00872802734375
1751013470859615700,3.03161572265625,-0.9887542724609375,-0.1989593505859375,0.0050048828125
1751013470869558800,3.041558837890625,-0.99102783203125,-0.1956939697265625,0.00274658203125
1751013470879502800,3.0515029296875,-0.9909515380859375,-0.19415283203125,-0.0003662109375
1751013470889446000,3.06144580078125,-0.9936676025390625,-0.19293212890625,0.0001373291015625
1751013470899388700,3.071388671875,-0.9975128173828125,-0.1922454833984375,0.001373291015625
1751013470909332700,3.081332763671875,-1.0020904541015625,-0.19586181640625,-0.002349853515625
1751013470919275800,3.09127587890625,-1.00140380859375,-0.1987762451171875,-0.0026702880859375
1751013470929218800,3.10121875,-0.999542236328125,-0.2012939453125,-0.0024566650390625
1751013470939163000,3.111162841796875,-0.99908447265625,-0.203582763671875,-0.0040435791015625
1751013470949105700,3.121105712890625,-0.996826171875,-0.205474853515625,-0.0095977783203125
1751013470959048700,3.131048583984375,-0.994384765625,-0.207611083984375,-0.0117950439453125
1751013470968991700,3.14099169921875,-0.9923248291015625,-0.2078704833984375,-0.0099639892578125
1751013470978936000,3.15093603515625,-1.0007171630859375,-0.2061920166015625,-0.0103302001953125
1751013470988878800,3.16087890625,-1.00213623046875,-0.2115325927734375,-0.004638671875
1751013470998822000,3.17082177734375,-1.0003204345703125,-0.214141845703125,-0.0026397705078125
1751013471008766000,3.180765869140625,-0.995452880859375,-0.2105560302734375,-0.0028533935546875
1751013471018709000,3.190708984375,-0.991302490234375,-0.209259033203125,-0.00140380859375
1751013471028652000,3.200652099609375,-0.99005126953125,-0.2093505859375,-0.0013885498046875
1751013471038595000,3.210594970703125,-0.9866943359375,-0.2081756591796875,-0.00091552734375
1751013471048539000,3.220538818359375,-0.9870758056640625,-0.20654296875,0.0032806396484375
1751013471058482000,3.23048193359375,-0.9849090576171875,-0.2062530517578125,0.00689697265625
1751013471068425000,3.240425048828125,-0.9855499267578125,-0.2064971923828125,0.0095977783203125
1751013471078369000,3.250369140625,-0.988677978515625,-0.208038330078125,0.0145111083984375
1751013471088311800,3.260311767578125,-0.9870758056640625,-0.207061767578125,0.01641845703125
1751013471098254800,3.2702548828125,-0.98260498046875,-0.2053070068359375,0.013641357421875
1751013471108199000,3.280198974609375,-0.984283447265625,-0.2021484375,0.0182952880859375
1751013471118142000,3.290141845703125,-0.989990234375,-0.1999053955078125,0.021636962890625
1751013471128085000,3.3000849609375,-0.9925689697265625,-0.199859619140625,0.0224151611328125
1751013471138028000,3.310028076171875,-0.995513916015625,-0.1990814208984375,0.0229949951171875
1751013471147971800,3.319971923828125,-0.9970245361328125,-0.197052001953125,0.0205535888671875
1751013471157915000,3.329914794921875,-0.99810791015625,-0.1969757080078125,0.0169677734375
1751013471167858000,3.33985791015625,-0.998504638671875,-0.1992340087890625,0.015380859375
1751013471177801700,3.3498017578125,-0.99737548828125,-0.1981201171875,0.0159912109375
1751013471187744800,3.359744873046875,-0.9969329833984375,-0.195770263671875,0.0170440673828125
1751013471197687800,3.369687744140625,-0.999725341796875,-0.19647216796875,0.0190887451171875
1751013471207630800,3.379630859375,-0.99725341796875,-0.1992340087890625,0.016571044921875
1751013471217575000,3.389574951171875,-0.99578857421875,-0.2023468017578125,0.0147247314453125
1751013471227518000,3.39951806640625,-0.9937896728515625,-0.2038116455078125,0.01361083984375
1751013471237460700,3.409460693359375,-0.9944000244140625,-0.204620361328125,0.014129638671875
1751013471247404800,3.41940478515625,-0.9937744140625,-0.2048187255859375,0.016632080078125
1751013471257347800,3.429347900390625,-0.995635986328125,-0.2031707763671875,0.0193328857421875
1751013471267291000,3.439290771484375,-0.9978790283203125,-0.202850341796875,0.0213623046875
1751013471277234700,3.449234619140625,-0.99688720703125,-0.203948974609375,0.022552490234375
1751013471287177700,3.459177734375,-0.999298095703125,-0.2027130126953125,0.023284912109375
1751013471297120800,3.469120849609375,-1.000640869140625,-0.201690673828125,0.0219268798828125
1751013471307063800,3.479063720703125,-1.002105712890625,-0.2017974853515625,0.0195770263671875
1751013471317008000,3.4890078125,-0.999725341796875,-0.2010955810546875,0.0187530517578125
1751013471326951000,3.498950927734375,-0.9986114501953125,-0.1999664306640625,0.0172576904296875
1751013471336893700,3.508893798828125,-0.996002197265625,-0.1987762451171875,0.0176544189453125
1751013471346837800,3.518837646484375,-0.9957733154296875,-0.200164794921875,0.01763916015625
1751013471356780800,3.52878076171875,-0.990020751953125,-0.2004241943359375,0.019744873046875
1751013471366723800,3.538723876953125,-0.98651123046875,-0.199188232421875,0.0213165283203125
1751013471376667400,3.54866748046875,-0.983795166015625,-0.19927978515625,0.0229339599609375
1751013471386610400,3.5586103515625,-0.9807281494140625,-0.1993408203125,0.0233306884765625
1751013471396553500,3.568553466796875,-0.9788665771484375,-0.197021484375,0.0238037109375
1751013471406496500,3.57849658203125,-0.9850616455078125,-0.192169189453125,0.0253448486328125
1751013471416440800,3.58844091796875,-0.997161865234375,-0.1881103515625,0.026519775390625
1751013471426383600,3.598383544921875,-1.0011138916015625,-0.187744140625,0.0279541015625
1751013471436326400,3.608326416015625,-0.9992218017578125,-0.1860809326171875,0.0274200439453125
1751013471446270700,3.618270751953125,-0.9964447021484375,-0.182525634765625,0.0292816162109375
1751013471456213800,3.6282138671875,-0.9967041015625,-0.1811370849609375,0.032806396484375
1751013471466156800,3.63815673828125,-0.994842529296875,-0.182586669921875,0.032012939453125
1751013471476099600,3.648099609375,-0.9911346435546875,-0.182342529296875,0.0290679931640625
1751013471486043600,3.658043701171875,-0.994293212890625,-0.1800689697265625,0.0279083251953125
1751013471495986700,3.667986572265625,-1.00018310546875,-0.17657470703125,0.0280609130859375
1751013471505929700,3.6779296875,-1.0062408447265625,-0.1757965087890625,0.0284576416015625
1751013471515873800,3.687873779296875,-1.009429931640625,-0.176544189453125,0.0290679931640625
1751013471525816600,3.697816650390625,-1.010345458984375,-0.1775970458984375,0.0287628173828125
1751013471535759600,3.707759521484375,-1.0068359375,-0.1754913330078125,0.0280914306640625
1751013471545703700,3.71770361328125,-1.0027313232421875,-0.1740570068359375,0.0290679931640625
1751013471555646700,3.727646728515625,-1.001708984375,-0.17462158203125,0.0311431884765625
1751013471565589800,3.73758984375,-0.9968414306640625,-0.176727294921875,0.030517578125
1751013471575532800,3.74753271484375,-0.9921417236328125,-0.1787261962890625,0.0298919677734375
1751013471585476600,3.7574765625,-0.994873046875,-0.1798248291015625,0.0282135009765625
1751013471595419600,3.767419677734375,-0.9982147216796875,-0.1798553466796875,0.0273895263671875
1751013471605362700,3.77736279296875,-0.9987335205078125,-0.1780242919921875,0.0278778076171875
1751013471615306500,3.787306396484375,-1.0009613037109375,-0.1753997802734375,0.0291595458984375
1751013471625249500,3.79724951171875,-1.0001983642578125,-0.175750732421875,0.030242919921875
1751013471635192600,3.807192626953125,-0.994873046875,-0.1746063232421875,0.0301971435546875
1751013471645135600,3.817135498046875,-0.987060546875,-0.1731109619140625,0.0301666259765625
1751013471655079700,3.82707958984375,-0.983245849609375,-0.1722412109375,0.027679443359375
1751013471665022700,3.837022705078125,-0.983795166015625,-0.1724395751953125,0.024810791015625
1751013471674965500,3.846965576171875,-0.9841156005859375,-0.1723480224609375,0.022430419921875
1751013471684909600,3.85690966796875,-0.986480712890625,-0.172332763671875,0.022613525390625
1751013471694852600,3.8668525390625,-0.9884796142578125,-0.1738433837890625,0.02362060546875
1751013471704795600,3.876795654296875,-0.9910888671875,-0.17510986328125,0.021759033203125
1751013471714739500,3.886739501953125,-0.99554443359375,-0.17633056640625,0.0221405029296875
1751013471724682500,3.8966826171875,-0.999420166015625,-0.1770477294921875,0.021209716796875
1751013471734625500,3.90662548828125,-1.00347900390625,-0.1764068603515625,0.0204010009765625
1751013471744568600,3.916568603515625,-1.0058746337890625,-0.1747589111328125,0.01971435546875
1751013471754512600,3.9265126953125,-1.0080718994140625,-0.174163818359375,0.0221099853515625
1751013471764455700,3.93645556640625,-1.0113525390625,-0.17242431640625,0.0262298583984375
1751013471774398500,3.9463984375,-1.0094451904296875,-0.1727294921875,0.0257720947265625
1751013471784342500,3.956342529296875,-1.0048675537109375,-0.17498779296875,0.025482177734375
1751013471794285600,3.96628564453125,-0.9987945556640625,-0.175323486328125,0.02508544921875
1751013471804228600,3.976228515625,-0.9973602294921875,-0.174560546875,0.0245819091796875
1751013471814172400,3.98617236328125,-0.9959564208984375,-0.17449951171875,0.0250701904296875
1751013471824115500,3.996115478515625,-0.9962310791015625,-0.1739654541015625,0.0240325927734375
1751013471834058500,4.00605859375,-0.999969482421875,-0.171966552734375,0.0241546630859375
1751013471844001500,4.01600146484375,-1.0028076171875,-0.1724853515625,0.0270538330078125
1751013471853945600,4.025945556640625,-1.005767822265625,-0.174224853515625,0.0299835205078125
1751013471863888400,4.035888427734375,-1.00396728515625,-0.171905517578125,0.0273895263671875
1751013471873831400,4.04583154296875,-1.0012359619140625,-0.1673431396484375,0.02532958984375
1751013471883775700,4.055775634765625,-1.00164794921875,-0.166046142578125,0.024993896484375
1751013471893718800,4.06571875,-1.0005950927734375,-0.1665191650390625,0.023681640625
1751013471903661600,4.07566162109375,-0.997528076171875,-0.1672821044921875,0.0248260498046875
1751013471913604600,4.0856044921875,-0.997100830078125,-0.167724609375,0.026092529296875
1751013471923548700,4.095548583984375,-0.9974365234375,-0.17010498046875,0.029937744140625
1751013471933491700,4.10549169921875,-0.9978485107421875,-0.1720123291015625,0.030487060546875
1751013471943434800,4.115434814453125,-0.9945220947265625,-0.171722412109375,0.02740478515625
1751013471953378600,4.125378662109375,-0.9897308349609375,-0.17169189453125,0.0288238525390625
1751013471963321600,4.135321533203125,-0.9901885986328125,-0.172119140625,0.029937744140625
1751013471973264600,4.1452646484375,-0.99359130859375,-0.1731109619140625,0.029266357421875
1751013471983208700,4.155208740234375,-0.9944915771484375,-0.1734466552734375,0.0295562744140625
1751013471993151700,4.16515185546875,-0.9946746826171875,-0.1713409423828125,0.0293731689453125
1751013472003094800,4.1750947265625,-0.995269775390625,-0.1678466796875,0.02886962890625
1751013472013037600,4.18503759765625,-0.9972381591796875,-0.1667022705078125,0.0301971435546875
1751013472022981600,4.194981689453125,-0.9969482421875,-0.1656951904296875,0.0287628173828125
1751013472032924700,4.204924560546875,-0.9944915771484375,-0.1670379638671875,0.0260162353515625
1751013472042867700,4.21486767578125,-0.993377685546875,-0.16961669921875,0.02398681640625
1751013472052811500,4.2248115234375,-0.997406005859375,-0.1707916259765625,0.022430419921875
1751013472062754600,4.234754638671875,-0.9986724853515625,-0.1698150634765625,0.020843505859375
1751013472072697600,4.244697509765625,-1.0024871826171875,-0.1683197021484375,0.0221099853515625
1751013472082641700,4.2546416015625,-1.00836181640625,-0.168304443359375,0.0250396728515625
1751013472092584700,4.264584716796875,-1.0127410888671875,-0.169677734375,0.0280914306640625
1751013472102527700,4.27452783203125,-1.01434326171875,-0.1685638427734375,0.0311431884765625
1751013472112470500,4.284470458984375,-1.0111541748046875,-0.167205810546875,0.0308837890625
1751013472122414600,4.29441455078125,-1.0064239501953125,-0.1685791015625,0.0294952392578125
1751013472132357600,4.304357666015625,-1.003662109375,-0.1692047119140625,0.0251007080078125
1751013472142300700,4.31430078125,-1.0016632080078125,-0.17010498046875,0.0220489501953125
1751013472152244500,4.324244384765625,-1.0044097900390625,-0.17108154296875,0.0196533203125
1751013472162187500,4.3341875,-1.0083770751953125,-0.1747589111328125,0.01837158203125
1751013472172130600,4.344130615234375,-1.01129150390625,-0.173980712890625,0.0218963623046875
1751013472182074600,4.35407470703125,-1.0143585205078125,-0.17254638671875,0.0226593017578125
1751013472192017700,4.364017578125,-1.0140380859375,-0.1712646484375,0.0224456787109375
1751013472201960400,4.37396044921875,-1.0109710693359375,-0.172515869140625,0.0251312255859375
1751013472211903500,4.383903564453125,-1.0084381103515625,-0.17218017578125,0.0249786376953125
1751013472221847600,4.39384765625,-1.00665283203125,-0.1710662841796875,0.0250091552734375
1751013472231790600,4.40379052734375,-1.00457763671875,-0.17242431640625,0.0263519287109375
1751013472241733600,4.413733642578125,-1.001068115234375,-0.175872802734375,0.0253448486328125
1751013472251677400,4.423677490234375,-0.9963836669921875,-0.176971435546875,0.0254669189453125
1751013472261620500,4.433620361328125,-0.99578857421875,-0.1770782470703125,0.0283203125
1751013472271563500,4.4435634765625,-0.9957733154296875,-0.17718505859375,0.0316619873046875
1751013472281506600,4.453506591796875,-0.9962310791015625,-0.1789093017578125,0.0332183837890625
1751013472291450600,4.46345068359375,-0.9909820556640625,-0.18084716796875,0.0372772216796875
1751013472301393400,4.473393310546875,-0.99053955078125,-0.1771240234375,0.0288238525390625
1751013472311336400,4.48333642578125,-0.9947052001953125,-0.178314208984375,0.019561767578125
1751013472321280800,4.49328076171875,-0.99676513671875,-0.1806182861328125,0.0246429443359375
1751013472331223600,4.5032236328125,-1.0008544921875,-0.179779052734375,0.0274810791015625
1751013472341166600,4.51316650390625,-1.002777099609375,-0.1771087646484375,0.029937744140625
1751013472351110700,4.523110595703125,-1.004852294921875,-0.177490234375,0.032012939453125
1751013472361053700,4.5330537109375,-1.011566162109375,-0.17279052734375,0.0342559814453125
1751013472370996700,4.542996826171875,-1.0131988525390625,-0.1711273193359375,0.0330810546875
1751013472380940000,4.55293994140625,-1.0117034912109375,-0.1715240478515625,0.031829833984375
1751013472390883800,4.5628837890625,-1.01226806640625,-0.1714935302734375,0.03277587890625
1751013472400827000,4.572826904296875,-1.01409912109375,-0.1710205078125,0.0345001220703125
1751013472410770000,4.58277001953125,-1.0138397216796875,-0.1683349609375,0.0350189208984375
1751013472420714000,4.5927138671875,-1.010040283203125,-0.1676483154296875,0.03125
1751013472430657000,4.602656982421875,-1.00579833984375,-0.1680450439453125,0.0278778076171875
1751013472440599800,4.612599853515625,-1.007415771484375,-0.16943359375,0.026947021484375
1751013472450543900,4.6225439453125,-1.0057220458984375,-0.1702880859375,0.0275421142578125
1751013472460487000,4.63248681640625,-0.9969482421875,-0.1695404052734375,0.023406982421875
1751013472470430000,4.642429931640625,-0.985321044921875,-0.1697235107421875,0.0193328857421875
1751013472480373000,4.652373046875,-0.977935791015625,-0.1715545654296875,0.0113372802734375
1751013472490316800,4.66231689453125,-0.9781646728515625,-0.1646270751953125,0.0070648193359375
1751013472500259800,4.672259765625,-0.9828033447265625,-0.16351318359375,0.0072479248046875
1751013472510203000,4.682202880859375,-0.9888916015625,-0.1664581298828125,0.011016845703125
1751013472520147000,4.69214697265625,-0.9958648681640625,-0.16375732421875,0.018768310546875
1751013472530089700,4.70208984375,-1.0017852783203125,-0.1644287109375,0.02496337890625
1751013472540032800,4.71203271484375,-1.001190185546875,-0.1649169921875,0.02642822265625
1751013472549975800,4.721975830078125,-0.99951171875,-0.1673736572265625,0.0264892578125
1751013472559919900,4.731919921875,-0.9935150146484375,-0.1703338623046875,0.0331268310546875
1751013472569863000,4.74186279296875,-0.990142822265625,-0.1750335693359375,0.0404510498046875
1751013472579806000,4.751805908203125,-0.988555908203125,-0.1814727783203125,0.0451202392578125
1751013472589749800,4.761749755859375,-0.9851226806640625,-0.185638427734375,0.048248291015625
1751013472599692800,4.77169287109375,-0.9852294921875,-0.1881256103515625,0.050445556640625
1751013472609635800,4.7816357421875,-0.982940673828125,-0.1892547607421875,0.053924560546875
1751013472619580000,4.791579833984375,-0.98236083984375,-0.1902313232421875,0.055999755859375
1751013472629522700,4.801522705078125,-0.9852142333984375,-0.1922149658203125,0.05926513671875
1751013472639465700,4.8114658203125,-0.9860382080078125,-0.19427490234375,0.056121826171875
1751013472649408800,4.82140869140625,-0.9818115234375,-0.1970977783203125,0.0526123046875
1751013472659352800,4.831352783203125,-0.9785919189453125,-0.1988372802734375,0.0489654541015625
1751013472669295900,4.8412958984375,-0.9803009033203125,-0.1988067626953125,0.0456390380859375
1751013472679239000,4.851239013671875,-0.9839019775390625,-0.200408935546875,0.0438995361328125
1751013472689182700,4.8611826171875,-0.99212646484375,-0.203826904296875,0.0450897216796875
1751013472699125800,4.871125732421875,-0.995208740234375,-0.203826904296875,0.046234130859375
1751013472709068800,4.88106884765625,-0.9893951416015625,-0.20343017578125,0.0517120361328125
1751013472719012900,4.891012939453125,-0.98736572265625,-0.2003936767578125,0.0532073974609375
1751013472728955600,4.90095556640625,-0.98516845703125,-0.1992645263671875,0.0506134033203125
1751013472738898700,4.910898681640625,-0.9790496826171875,-0.197174072265625,0.0453948974609375
1751013472748841700,4.920841796875,-0.9805908203125,-0.1932525634765625,0.0399932861328125
1751013472758786000,4.9307861328125,-0.9835968017578125,-0.1944427490234375,0.035400390625
1751013472768729000,4.94072900390625,-0.98699951171875,-0.19580078125,0.0295257568359375
1751013472778671600,4.950671630859375,-0.9911041259765625,-0.1964263916015625,0.0258941650390625
1751013472788616000,4.960615966796875,-0.9883880615234375,-0.1955413818359375,0.0231781005859375
1751013472798559000,4.97055908203125,-0.98675537109375,-0.192535400390625,0.0198516845703125
1751013472808502000,4.980501953125,-0.9932708740234375,-0.19073486328125,0.01751708984375
1751013472818445000,4.990445068359375,-0.999603271484375,-0.1897125244140625,0.0155029296875
1751013472828388900,5.000388916015625,-0.999969482421875,-0.1869659423828125,0.018951416015625
1751013472838332000,5.010331787109375,-0.9954376220703125,-0.180694580078125,0.0217742919921875
1751013472848275000,5.02027490234375,-0.9886474609375,-0.176116943359375,0.0263671875
1751013472858219000,5.030218994140625,-0.986175537109375,-0.1725616455078125,0.0308990478515625
1751013472868161800,5.040161865234375,-0.9839935302734375,-0.17083740234375,0.0323028564453125
1751013472878104800,5.050104736328125,-0.988525390625,-0.1709747314453125,0.032806396484375
1751013472888049000,5.060048828125,-0.99749755859375,-0.1818695068359375,0.0318603515625
1751013472897992000,5.069991943359375,-1.0097198486328125,-0.21588134765625,0.0140533447265625
1751013472907935000,5.07993505859375,-1.026580810546875,-0.18695068359375,0.00762939453125
1751013472917878000,5.0898779296875,-1.01025390625,-0.1768951416015625,0.011993408203125
1751013472927821800,5.09982177734375,-0.999267578125,-0.1813201904296875,0.02099609375
1751013472937764900,5.109764892578125,-0.993927001953125,-0.1767120361328125,0.0325927734375
1751013472947708000,5.1197080078125,-0.985443115234375,-0.17913818359375,0.0378265380859375
1751013472957652000,5.12965185546875,-0.9849700927734375,-0.1840057373046875,0.032501220703125
1751013472967594800,5.1395947265625,-0.987823486328125,-0.1873931884765625,0.0228271484375
1751013472977537800,5.149537841796875,-0.9938507080078125,-0.187774658203125,0.02191162109375
1751013472987481900,5.15948193359375,-0.999267578125,-0.18701171875,0.0167236328125
1751013472997425000,5.1694248046875,-0.993896484375,-0.185211181640625,0.02001953125
1751013473007368000,5.179367919921875,-0.9864501953125,-0.186676025390625,0.03155517578125
1751013473017311000,5.18931103515625,-0.9836578369140625,-0.1887969970703125,0.0323028564453125
1751013473027254800,5.1992548828125,-0.9842987060546875,-0.1910247802734375,0.0239105224609375
1751013473037197800,5.20919775390625,-0.9886932373046875,-0.1916046142578125,0.0187225341796875
1751013473047140900,5.219140869140625,-0.998504638671875,-0.1901397705078125,0.0233917236328125
1751013473057084700,5.229084716796875,-1.006866455078125,-0.185577392578125,0.03118896484375
1751013473067027700,5.23902783203125,-1.007659912109375,-0.1818084716796875,0.032501220703125
1751013473076970800,5.248970703125,-1.007080078125,-0.183746337890625,0.030670166015625
1751013473086913800,5.258913818359375,-1.0079803466796875,-0.1860198974609375,0.02935791015625
1751013473096857900,5.26885791015625,-1.00885009765625,-0.185577392578125,0.0269775390625
1751013473106801000,5.27880078125,-1.003387451171875,-0.18280029296875,0.0272064208984375
1751013473116743700,5.28874365234375,-1.00262451171875,-0.1803131103515625,0.0283966064453125
1751013473126687700,5.298687744140625,-1.002166748046875,-0.1805877685546875,0.0313262939453125
1751013473136630800,5.308630859375,-1.001312255859375,-0.1793212890625,0.026611328125
1751013473146573800,5.31857373046875,-1.00299072265625,-0.179779052734375,0.020233154296875
1751013473156517600,5.328517578125,-1.00823974609375,-0.1788787841796875,0.0328216552734375
1751013473166460700,5.338460693359375,-1.00244140625,-0.181304931640625,0.0360107421875
1751013473176403700,5.34840380859375,-0.9938812255859375,-0.1834869384765625,0.0306243896484375
1751013473186346800,5.3583466796875,-0.9910430908203125,-0.18353271484375,0.02838134765625
1751013473196291000,5.368291015625,-0.99249267578125,-0.1849212646484375,0.03021240234375
1751013473206233900,5.37823388671875,-0.990325927734375,-0.1849517822265625,0.0301055908203125
1751013473216176600,5.3881767578125,-0.988189697265625,-0.182952880859375,0.0247802734375
1751013473226121000,5.398120849609375,-0.9895782470703125,-0.181365966796875,0.0222625732421875
1751013473236064000,5.40806396484375,-0.9956512451171875,-0.181304931640625,0.02532958984375
1751013473246007000,5.418007080078125,-0.99322509765625,-0.17950439453125,0.02294921875
1751013473255950800,5.427950927734375,-0.9946441650390625,-0.1760711669921875,0.0227508544921875
1751013473265894000,5.437893798828125,-0.9987945556640625,-0.1743011474609375,0.0237579345703125
1751013473275837000,5.4478369140625,-1.0016326904296875,-0.1749267578125,0.02313232421875
1751013473285780000,5.457780029296875,-1.0048828125,-0.1746826171875,0.0198822021484375
1751013473295724000,5.46772412109375,-1.00604248046875,-0.1742095947265625,0.0174713134765625
1751013473305666800,5.477666748046875,-1.002471923828125,-0.173858642578125,0.017578125
1751013473315609900,5.48760986328125,-1.001007080078125,-0.173126220703125,0.0189666748046875
1751013473325554000,5.497553955078125,-1.0022735595703125,-0.1742706298828125,0.0214691162109375
1751013473335497000,5.5074970703125,-0.9996795654296875,-0.17724609375,0.023468017578125
1751013473345440000,5.51743994140625,-0.999420166015625,-0.1796112060546875,0.02349853515625
1751013473355383000,5.527383056640625,-1.0024566650390625,-0.1796875,0.020904541015625
1751013473365326800,5.537326904296875,-1.007293701171875,-0.179168701171875,0.0205230712890625
1751013473375270000,5.547269775390625,-1.008026123046875,-0.1801605224609375,0.02069091796875
1751013473385216500,5.557216552734375,-1.0039215087890625,-0.17974853515625,0.0211181640625
1751013473395160300,5.567160400390625,-1.0037689208984375,-0.1772613525390625,0.0217742919921875
1751013473405103400,5.577103271484375,-1.006072998046875,-0.17901611328125,0.025115966796875
1751013473415046400,5.58704638671875,-1.0049896240234375,-0.1809844970703125,0.026611328125
1751013473424990500,5.596990478515625,-1.0058746337890625,-0.1788177490234375,0.0269317626953125
1751013473434933500,5.60693359375,-1.0082855224609375,-0.1771392822265625,0.02789306640625
1751013473444876500,5.61687646484375,-1.0093841552734375,-0.17724609375,0.0285797119140625
1751013473454819300,5.6268193359375,-1.011138916015625,-0.1751251220703125,0.0318756103515625
1751013473464763400,5.636763427734375,-1.0105743408203125,-0.172882080078125,0.0333099365234375
1751013473474706400,5.64670654296875,-1.0063629150390625,-0.1708831787109375,0.0324859619140625
1751013473484649500,5.6566494140625,-1.00531005859375,-0.171539306640625,0.0297698974609375
1751013473494593300,5.66659326171875,-1.004425048828125,-0.173675537109375,0.027313232421875
1751013473504536300,5.676536376953125,-1.00372314453125,-0.1744384765625,0.025299072265625
1751013473514479400,5.686479248046875,-0.998779296875,-0.1765289306640625,0.0229339599609375
1751013473524423400,5.69642333984375,-0.9935302734375,-0.1782684326171875,0.023040771484375
1751013473534366500,5.706366455078125,-0.9920654296875,-0.1798858642578125,0.025909423828125
1751013473544309500,5.7163095703125,-0.9958038330078125,-0.182403564453125,0.0267486572265625
1751013473554252300,5.726252197265625,-0.997894287109375,-0.1834869384765625,0.02734375
1751013473564196400,5.7361962890625,-0.99407958984375,-0.1818084716796875,0.02978515625
1751013473574139400,5.746139404296875,-0.9902801513671875,-0.1801605224609375,0.02850341796875
1751013473584082400,5.75608251953125,-0.986724853515625,-0.181671142578125,0.0274810791015625
1751013473594026200,5.766026123046875,-0.9844512939453125,-0.18402099609375,0.02606201171875
1751013473603969300,5.77596923828125,-0.985565185546875,-0.18328857421875,0.02301025390625
1751013473613912300,5.785912353515625,-0.990478515625,-0.181396484375,0.0236663818359375
1751013473623856400,5.7958564453125,-0.99493408203125,-0.1819915771484375,0.02301025390625
1751013473633799400,5.80579931640625,-0.997314453125,-0.1818389892578125,0.0207061767578125
1751013473643742200,5.8157421875,-0.9980926513671875,-0.1806488037109375,0.0207977294921875
1751013473653685200,5.825685302734375,-0.994903564453125,-0.1785736083984375,0.020294189453125
1751013473663629300,5.83562939453125,-0.99212646484375,-0.1765289306640625,0.019134521484375
1751013473673572400,5.845572265625,-0.99383544921875,-0.176849365234375,0.0181884765625
1751013473683515400,5.855515380859375,-0.9953765869140625,-0.1787872314453125,0.018310546875
1751013473693459200,5.865459228515625,-0.9954376220703125,-0.1797332763671875,0.0170440673828125
1751013473703402200,5.87540234375,-0.997528076171875,-0.1828765869140625,0.0169219970703125
1751013473713345300,5.88534521484375,-0.9951171875,-0.18756103515625,0.0156402587890625
1751013473723288300,5.895288330078125,-0.9950103759765625,-0.187652587890625,0.0151214599609375
1751013473733232400,5.905232421875,-0.992156982421875,-0.18670654296875,0.017425537109375
1751013473743175200,5.915175048828125,-0.9943695068359375,-0.18695068359375,0.018585205078125
1751013473753118200,5.9251181640625,-0.9989776611328125,-0.1872711181640625,0.018798828125
1751013473763062300,5.935062255859375,-1.0007476806640625,-0.1880035400390625,0.0201263427734375
1751013473773005300,5.94500537109375,-1.0016326904296875,-0.187225341796875,0.02227783203125
1751013473782948400,5.9549482421875,-1.0007781982421875,-0.1876373291015625,0.0256805419921875
1751013473792892400,5.964892333984375,-1.0006866455078125,-0.186737060546875,0.0253448486328125
1751013473802835500,5.97483544921875,-1.0016326904296875,-0.1885223388671875,0.02276611328125
1751013473812778500,5.984778564453125,-0.9996490478515625,-0.18988037109375,0.0209197998046875
1751013473822721300,5.99472119140625,-0.9952392578125,-0.1900787353515625,0.01922607421875
1751013473832665300,6.004665283203125,-0.9945526123046875,-0.1891937255859375,0.0191802978515625
1751013473842608400,6.0146083984375,-0.9964141845703125,-0.1861724853515625,0.02020263671875
1751013473852551400,6.024551513671875,-0.997528076171875,-0.185302734375,0.0186004638671875
1751013473862495500,6.03449560546875,-1,-0.1851806640625,0.0172119140625
1751013473872438500,6.0444384765625,-1.003204345703125,-0.18438720703125,0.016326904296875
1751013473882381300,6.05438134765625,-1.006683349609375,-0.184478759765625,0.0186614990234375
1751013473892325400,6.064325439453125,-1.0068511962890625,-0.1852874755859375,0.020355224609375
1751013473902268400,6.074268310546875,-1.0029754638671875,-0.18475341796875,0.01702880859375
1751013473912211500,6.08421142578125,-0.997589111328125,-0.1828155517578125,0.0154571533203125
1751013473922154500,6.094154541015625,-0.994476318359375,-0.1839141845703125,0.0145111083984375
1751013473932098300,6.104098388671875,-0.9910736083984375,-0.187408447265625,0.013946533203125
1751013473942041300,6.114041259765625,-0.9893035888671875,-0.190185546875,0.0146026611328125
1751013473951984400,6.123984375,-0.992340087890625,-0.1929779052734375,0.016265869140625
1751013473961928400,6.133928466796875,-0.9971160888671875,-0.193023681640625,0.0210723876953125
1751013473971871500,6.14387158203125,-1.002166748046875,-0.1913604736328125,0.0234832763671875
1751013473981814300,6.153814208984375,-1.002288818359375,-0.188507080078125,0.0227813720703125
1751013473991758300,6.16375830078125,-1.0019073486328125,-0.1851348876953125,0.022216796875
1751013474001701400,6.173701416015625,-0.99951171875,-0.184600830078125,0.0258026123046875
1751013474011644400,6.18364453125,-0.9979400634765625,-0.187042236328125,0.0282745361328125
1751013474021587500,6.19358740234375,-0.9951019287109375,-0.188873291015625,0.0301513671875
1751013474031531300,6.20353125,-0.991790771484375,-0.1901397705078125,0.03143310546875
1751013474041474300,6.213474365234375,-0.992950439453125,-0.1908721923828125,0.0316162109375
1751013474051417300,6.223417236328125,-0.9921722412109375,-0.1913604736328125,0.0277099609375
1751013474061361400,6.233361328125,-0.9867095947265625,-0.1923828125,0.0252532958984375
1751013474071304400,6.243304443359375,-0.986358642578125,-0.193145751953125,0.0235443115234375
1751013474081247200,6.253247314453125,-0.9927825927734375,-0.19573974609375,0.02557373046875
1751013474091190300,6.263190185546875,-0.992767333984375,-0.19708251953125,0.026214599609375
1751013474101134300,6.27313427734375,-0.9931182861328125,-0.1942596435546875,0.0248565673828125
1751013474111077400,6.283077392578125,-0.995086669921875,-0.1939697265625,0.0254669189453125
1751013474121020400,6.2930205078125,-0.998748779296875,-0.1970367431640625,0.028411865234375
1751013474130964200,6.302964111328125,-1.001678466796875,-0.1999969482421875,0.029937744140625
1751013474140907300,6.3129072265625,-1.003265380859375,-0.201812744140625,0.029998779296875
1751013474150850300,6.322850341796875,-1.0009918212890625,-0.20159912109375,0.0278778076171875
1751013474160794400,6.33279443359375,-0.9963226318359375,-0.200592041015625,0.027679443359375
1751013474170737200,6.342737060546875,-0.9951019287109375,-0.201690673828125,0.02862548828125
1751013474180680200,6.35268017578125,-0.9950714111328125,-0.20220947265625,0.02984619140625
1751013474190623200,6.362623291015625,-0.992950439453125,-0.2033233642578125,0.0294189453125
1751013474200567300,6.3725673828125,-0.993438720703125,-0.2037200927734375,0.0301971435546875
1751013474210510300,6.38251025390625,-0.9946136474609375,-0.2041778564453125,0.030792236328125
1751013474220453400,6.392453369140625,-0.9980926513671875,-0.2050323486328125,0.0308837890625
1751013474230397400,6.4023974609375,-0.99725341796875,-0.2034454345703125,0.031463623046875
1751013474240340500,6.412340576171875,-0.993927001953125,-0.201416015625,0.0320281982421875
1751013474250283300,6.422283203125,-0.9919586181640625,-0.201019287109375,0.03167724609375
1751013474260226300,6.432226318359375,-0.9951629638671875,-0.20220947265625,0.0298004150390625
1751013474270170400,6.44217041015625,-0.994384765625,-0.202972412109375,0.0262298583984375
1751013474280113400,6.452113525390625,-0.99188232421875,-0.2019195556640625,0.022308349609375
1751013474290056400,6.462056396484375,-0.9939727783203125,-0.2008056640625,0.02056884765625
1751013474300000500,6.47200048828125,-0.992584228515625,-0.2000885009765625,0.01947021484375
1751013474309943600,6.481943603515625,-0.9941558837890625,-0.2003936767578125,0.021270751953125
1751013474319886300,6.49188623046875,-0.9943695068359375,-0.2019500732421875,0.0217132568359375
1751013474329830400,6.501830322265625,-0.9947357177734375,-0.203216552734375,0.021881103515625
1751013474339773400,6.5117734375,-0.9943084716796875,-0.20208740234375,0.0203704833984375
1751013474349716500,6.521716552734375,-0.99285888671875,-0.1997833251953125,0.02154541015625
1751013474359659500,6.531659423828125,-0.9933624267578125,-0.1986083984375,0.0249481201171875
1751013474369603300,6.541603271484375,-0.990692138671875,-0.1995086669921875,0.0289154052734375
1751013474379546400,6.55154638671875,-0.9888153076171875,-0.199249267578125,0.0278778076171875
1751013474389484800,6.56148486328125,-0.987762451171875,-0.1986846923828125,0.0256500244140625
1751013474399428900,6.571428955078125,-0.9854736328125,-0.200531005859375,0.024993896484375
1751013474409372000,6.581371826171875,-0.98468017578125,-0.201751708984375,0.0260162353515625
1751013474419315000,6.59131494140625,-0.9863128662109375,-0.2042083740234375,0.0277557373046875
1751013474429258800,6.6012587890625,-0.9893951416015625,-0.20458984375,0.0299530029296875
1751013474439201800,6.611201904296875,-0.9921417236328125,-0.20526123046875,0.0323638916015625
1751013474449144800,6.621144775390625,-0.99432373046875,-0.205413818359375,0.0346527099609375
1751013474459088000,6.631087890625,-0.9893646240234375,-0.2024993896484375,0.0337982177734375
1751013474469032000,6.641031982421875,-0.982940673828125,-0.19854736328125,0.030975341796875
1751013474478974700,6.650974609375,-0.983306884765625,-0.1990509033203125,0.030609130859375
1751013474488917800,6.660917724609375,-0.9844970703125,-0.2006072998046875,0.029083251953125
1751013474498861800,6.67086181640625,-0.986846923828125,-0.202362060546875,0.0256500244140625
1751013474508804900,6.680804931640625,-0.9877166748046875,-0.204345703125,0.0274200439453125
1751013474518748000,6.690747802734375,-0.989532470703125,-0.2051239013671875,0.027984619140625
1751013474528691700,6.700691650390625,-0.9911346435546875,-0.205596923828125,0.0260009765625
1751013474538634800,6.710634765625,-0.9905853271484375,-0.2056427001953125,0.0271148681640625
1751013474548577800,6.720577880859375,-0.9924774169921875,-0.2049102783203125,0.0303802490234375
1751013474558521900,6.73052197265625,-0.99371337890625,-0.204193115234375,0.030303955078125
1751013474568464600,6.740464599609375,-0.9930877685546875,-0.201324462890625,0.028472900390625
1751013474578407700,6.75040771484375,-0.9947967529296875,-0.201080322265625,0.02874755859375
1751013474588350700,6.760350830078125,-0.9969482421875,-0.202117919921875,0.02886962890625
1751013474598295000,6.770294921875,-0.996734619140625,-0.201171875,0.0279998779296875
1751013474608237800,6.78023779296875,-0.9979705810546875,-0.1992034912109375,0.0285797119140625
1751013474618180900,6.790180908203125,-1.0008544921875,-0.1990509033203125,0.0286407470703125
1751013474628125000,6.800125,-0.9997100830078125,-0.2004547119140625,0.0310516357421875
1751013474638068000,6.81006787109375,-0.9983978271484375,-0.2006683349609375,0.0316619873046875
1751013474648011000,6.820010986328125,-0.9963836669921875,-0.1988372802734375,0.031097412109375
1751013474657953800,6.829953857421875,-0.9947662353515625,-0.2002105712890625,0.0301055908203125
1751013474667897900,6.83989794921875,-0.9931182861328125,-0.2047119140625,0.02850341796875
1751013474677841000,6.8498408203125,-0.991790771484375,-0.20623779296875,0.02801513671875
1751013474687784000,6.859783935546875,-0.992034912109375,-0.2066497802734375,0.0280914306640625
1751013474697728000,6.86972802734375,-0.992523193359375,-0.207855224609375,0.028228759765625
1751013474707671000,6.879671142578125,-0.992279052734375,-0.2071990966796875,0.0262298583984375
1751013474717613800,6.88961376953125,-0.9917755126953125,-0.20751953125,0.0256500244140625
1751013474727558000,6.899557861328125,-0.989959716796875,-0.2086181640625,0.0265655517578125
1751013474737501000,6.9095009765625,-0.98895263671875,-0.208648681640625,0.024505615234375
1751013474747444000,6.91944384765625,-0.9910125732421875,-0.2068939208984375,0.0223388671875
1751013474757387800,6.9293876953125,-0.9914398193359375,-0.20953369140625,0.0223388671875
1751013474767330800,6.939330810546875,-0.9873046875,-0.209320068359375,0.0234527587890625
1751013474777273900,6.94927392578125,-0.98443603515625,-0.206207275390625,0.0245361328125
1751013474787217000,6.959216796875,-0.9853668212890625,-0.2066192626953125,0.0268402099609375
1751013474797161000,6.969160888671875,-0.989593505859375,-0.208221435546875,0.0279541015625
1751013474807104000,6.97910400390625,-0.990142822265625,-0.2075347900390625,0.0285797119140625
1751013474817046800,6.989046875,-0.9875335693359375,-0.2054443359375,0.0276336669921875
1751013474826990800,6.998990966796875,-0.9837799072265625,-0.2041473388671875,0.024200439453125
1751013474836934000,7.008933837890625,-0.9853668212890625,-0.2028656005859375,0.0255584716796875
1751013474846877000,7.018876953125,-0.98870849609375,-0.203094482421875,0.026519775390625
1751013474856820700,7.02882080078125,-0.9882659912109375,-0.2029266357421875,0.0267791748046875
1751013474866763800,7.038763671875,-0.99200439453125,-0.201995849609375,0.0257568359375
1751013474876706800,7.048706787109375,-0.992401123046875,-0.20281982421875,0.0251922607421875
1751013474886649900,7.05864990234375,-0.9895782470703125,-0.205413818359375,0.023712158203125
1751013474896594000,7.068593994140625,-0.994720458984375,-0.2075347900390625,0.02362060546875
1751013474906536700,7.07853662109375,-1.0010223388671875,-0.20928955078125,0.024200439453125
1751013474916479700,7.088479736328125,-0.9982757568359375,-0.2094573974609375,0.025665283203125
1751013474926423800,7.098423828125,-0.9948272705078125,-0.2074737548828125,0.0261688232421875
1751013474936366800,7.108366943359375,-0.99554443359375,-0.2085113525390625,0.0263671875
1751013474946310000,7.118309814453125,-0.99444580078125,-0.2106781005859375,0.0233612060546875
1751013474956253700,7.128253662109375,-0.99176025390625,-0.2139739990234375,0.02117919921875
1751013474966196700,7.13819677734375,-0.9872283935546875,-0.2146453857421875,0.018585205078125
1751013474976139800,7.148139892578125,-0.984954833984375,-0.2135772705078125,0.018218994140625
1751013474986082800,7.158082763671875,-0.9879913330078125,-0.2120361328125,0.0196990966796875
1751013474996027000,7.16802685546875,-0.9936065673828125,-0.209930419921875,0.02239990234375
1751013475005969700,7.1779697265625,-1.000030517578125,-0.2069091796875,0.024261474609375
1751013475015912700,7.18791259765625,-1.0003662109375,-0.2045135498046875,0.024261474609375
1751013475025857000,7.19785693359375,-0.99749755859375,-0.20330810546875,0.0232696533203125
1751013475035799800,7.2077998046875,-0.9949188232421875,-0.2011871337890625,0.0257720947265625
1751013475045742800,7.217742919921875,-0.9935455322265625,-0.2010345458984375,0.024169921875
1751013475055687000,7.22768701171875,-0.9917449951171875,-0.2015380859375,0.0219879150390625
1751013475065630000,7.2376298828125,-0.9916229248046875,-0.204071044921875,0.021759033203125
1751013475075573000,7.247572998046875,-0.99310302734375,-0.2057342529296875,0.0220489501953125
1751013475085515800,7.257515869140625,-0.99200439453125,-0.2076416015625,0.0232696533203125
1751013475095459800,7.2674599609375,-0.9907073974609375,-0.2076263427734375,0.0238189697265625
1751013475105403000,7.27740283203125,-0.99163818359375,-0.20697021484375,0.026153564453125
1751013475115346000,7.287345947265625,-0.99261474609375,-0.2057647705078125,0.030242919921875
1751013475125290000,7.2972900390625,-0.9913482666015625,-0.2033233642578125,0.031524658203125
1751013475135233000,7.30723291015625,-0.99224853515625,-0.2001495361328125,0.0323638916015625
1751013475145175800,7.31717578125,-0.9956207275390625,-0.19879150390625,0.03076171875
1751013475155119900,7.327119873046875,-0.9949493408203125,-0.2011871337890625,0.031097412109375
1751013475165063000,7.33706298828125,-0.9904937744140625,-0.203338623046875,0.029205322265625
1751013475175006000,7.347005859375,-0.984771728515625,-0.2045745849609375,0.0240936279296875
1751013475184949800,7.35694970703125,-0.9814300537109375,-0.2058868408203125,0.023468017578125
1751013475194892800,7.366892822265625,-0.9836883544921875,-0.2087554931640625,0.024505615234375
1751013475204835800,7.3768359375,-0.986968994140625,-0.209869384765625,0.025848388671875
1751013475214779000,7.38677880859375,-0.9879150390625,-0.2065582275390625,0.02911376953125
1751013475224723000,7.396722900390625,-0.989959716796875,-0.2038726806640625,0.0315399169921875
1751013475234666000,7.406666015625,-0.9925689697265625,-0.2032012939453125,0.0299530029296875
1751013475244608800,7.41660888671875,-0.9912261962890625,-0.2014312744140625,0.029327392578125
1751013475254552800,7.426552734375,-0.98944091796875,-0.201263427734375,0.03192138671875
1751013475264495900,7.436495849609375,-0.989715576171875,-0.2014007568359375,0.035064697265625
1751013475274439000,7.44643896484375,-0.9888458251953125,-0.2028656005859375,0.03509521484375
1751013475284382700,7.4563828125,-0.9885406494140625,-0.2034149169921875,0.0326995849609375
1751013475294325800,7.46632568359375,-0.9921722412109375,-0.2044677734375,0.031463623046875
1751013475304268800,7.476268798828125,-0.994384765625,-0.2039031982421875,0.029754638671875
1751013475314211800,7.4862119140625,-0.9974822998046875,-0.2018280029296875,0.0295257568359375
1751013475324156000,7.496156005859375,-0.9976348876953125,-0.201324462890625,0.0302734375
1751013475334098700,7.5060986328125,-0.99676513671875,-0.20068359375,0.0316925048828125
1751013475344041700,7.516041748046875,-0.99676513671875,-0.199066162109375,0.0326385498046875
1751013475353985800,7.52598583984375,-0.9948577880859375,-0.19769287109375,0.033782958984375
1751013475363928800,7.5359287109375,-0.9919281005859375,-0.198272705078125,0.035247802734375
1751013475373871900,7.545871826171875,-0.989501953125,-0.19769287109375,0.0344390869140625
1751013475383819800,7.55581982421875,-0.9896240234375,-0.1974945068359375,0.034454345703125
1751013475393762800,7.5657626953125,-0.9900970458984375,-0.19775390625,0.034088134765625
1751013475403705900,7.575705810546875,-0.989471435546875,-0.198089599609375,0.0328826904296875
1751013475413649000,7.58564892578125,-0.98834228515625,-0.2003631591796875,0.0320892333984375
1751013475423592700,7.5955927734375,-0.9876556396484375,-0.20166015625,0.031097412109375
1751013475433535700,7.60553564453125,-0.985595703125,-0.2021636962890625,0.0288543701171875
1751013475443478800,7.615478759765625,-0.9854278564453125,-0.2016448974609375,0.0281829833984375
1751013475453422800,7.6254228515625,-0.986541748046875,-0.202301025390625,0.030181884765625
1751013475463366000,7.635365966796875,-0.986480712890625,-0.201446533203125,0.02960205078125
1751013475473309000,7.645308837890625,-0.986083984375,-0.1988067626953125,0.02880859375
1751013475483252700,7.655252685546875,-0.9893646240234375,-0.1966400146484375,0.0314178466796875
1751013475493195800,7.66519580078125,-0.996002197265625,-0.1967926025390625,0.031036376953125
1751013475503138800,7.675138916015625,-0.99700927734375,-0.1960296630859375,0.030853271484375
1751013475513081900,7.685081787109375,-0.9971160888671875,-0.1959381103515625,0.0316925048828125
1751013475523025700,7.695025634765625,-0.9974212646484375,-0.1983489990234375,0.031524658203125
1751013475532968700,7.70496875,-0.9957733154296875,-0.2020721435546875,0.0286102294921875
1751013475542911700,7.714911865234375,-0.9905242919921875,-0.203704833984375,0.0269775390625
1751013475552856000,7.72485595703125,-0.991668701171875,-0.2020416259765625,0.0272216796875
1751013475562798800,7.734798828125,-0.996795654296875,-0.201019287109375,0.0314178466796875
1751013475572741600,7.74474169921875,-1.0040283203125,-0.19921875,0.0344696044921875
1751013475582686000,7.75468603515625,-1.0035552978515625,-0.1962432861328125,0.0349578857421875
1751013475592629000,7.76462890625,-1.000213623046875,-0.194915771484375,0.03570556640625
1751013475602572000,7.774572021484375,-0.9966888427734375,-0.1953277587890625,0.0356903076171875
1751013475612515000,7.78451513671875,-0.9955596923828125,-0.19683837890625,0.0346221923828125
1751013475622459000,7.794458984375,-0.9892578125,-0.1983184814453125,0.03045654296875
1751013475632402000,7.80440185546875,-0.9876556396484375,-0.198486328125,0.027191162109375
1751013475642345000,7.814344970703125,-0.988189697265625,-0.1988677978515625,0.0279388427734375
1751013475652289000,7.8242890625,-0.9891815185546875,-0.2001800537109375,0.0299072265625
1751013475662231800,7.834231689453125,-0.993988037109375,-0.1998291015625,0.0314483642578125
1751013475672174800,7.8441748046875,-0.9959716796875,-0.1979827880859375,0.0307464599609375
1751013475682119000,7.854118896484375,-0.9962615966796875,-0.1946258544921875,0.0303955078125
1751013475692062000,7.86406201171875,-0.99920654296875,-0.19329833984375,0.0341033935546875
1751013475702005000,7.8740048828125,-1.0021514892578125,-0.19085693359375,0.0379791259765625
1751013475711948800,7.88394873046875,-1.0004730224609375,-0.18963623046875,0.038360595703125
1751013475721891800,7.893891845703125,-1.0001220703125,-0.191314697265625,0.0400543212890625
1751013475731835000,7.9038349609375,-0.998321533203125,-0.1910400390625,0.035736083984375
1751013475741778000,7.91377783203125,-0.9954376220703125,-0.1921539306640625,0.0302734375
1751013475751722000,7.923721923828125,-0.9941558837890625,-0.1938934326171875,0.02801513671875
1751013475761664800,7.933664794921875,-0.9949951171875,-0.196197509765625,0.0291595458984375
1751013475771607800,7.94360791015625,-0.993927001953125,-0.1977386474609375,0.031890869140625
1751013475781551900,7.9535517578125,-0.9944000244140625,-0.19720458984375,0.0328521728515625
1751013475791495000,7.963494873046875,-0.9925537109375,-0.1977996826171875,0.0355987548828125
1751013475801438000,7.97343798828125,-0.98931884765625,-0.1984100341796875,0.0349578857421875
1751013475811381800,7.9833818359375,-0.9864501953125,-0.1971588134765625,0.0347442626953125
1751013475821324800,7.99332470703125,-0.9893798828125,-0.195892333984375,0.0373382568359375
1751013475831267800,8.003267822265625,-0.9911651611328125,-0.1954193115234375,0.0374908447265625
1751013475841211000,8.0132109375,-0.9952239990234375,-0.1933441162109375,0.034027099609375
1751013475851154700,8.02315478515625,-0.9968719482421875,-0.1939697265625,0.03387451171875
1751013475861097700,8.03309765625,-0.996673583984375,-0.1937103271484375,0.0351409912109375
1751013475871040800,8.043040771484375,-0.9963531494140625,-0.192718505859375,0.0346527099609375
1751013475880984800,8.05298486328125,-0.9962615966796875,-0.1919403076171875,0.0323944091796875
1751013475890927900,8.062927978515624,-0.997283935546875,-0.191741943359375,0.0331878662109375
1751013475900871000,8.072870849609375,-0.9984588623046875,-0.1906890869140625,0.033294677734375
1751013475910813700,8.082813720703125,-0.997894287109375,-0.1898956298828125,0.033233642578125
1751013475920757800,8.0927578125,-0.9989166259765625,-0.1900787353515625,0.0332794189453125
1751013475930700800,8.10270068359375,-0.9970703125,-0.1910552978515625,0.03424072265625
1751013475940643800,8.112643798828126,-0.99481201171875,-0.191436767578125,0.0338897705078125
1751013475950587600,8.122587646484375,-0.9930877685546875,-0.19219970703125,0.033721923828125
1751013475960530700,8.13253076171875,-0.9909820556640625,-0.1919708251953125,0.0345306396484375
1751013475970473700,8.1424736328125,-0.988861083984375,-0.1923980712890625,0.035552978515625
1751013475980418000,8.15241796875,-0.990966796875,-0.1918182373046875,0.03656005859375
1751013475990361000,8.162361083984376,-0.99420166015625,-0.192626953125,0.039154052734375
1751013476000303900,8.172303955078124,-0.996795654296875,-0.1943511962890625,0.040863037109375
1751013476010246700,8.18224658203125,-0.998260498046875,-0.1955718994140625,0.03997802734375
1751013476020191000,8.19219091796875,-0.997100830078125,-0.1961212158203125,0.037017822265625
1751013476030134000,8.202134033203125,-0.9990997314453125,-0.1946258544921875,0.035919189453125
1751013476040077000,8.2120771484375,-1.0036163330078125,-0.1937408447265625,0.0368804931640625
1751013476050020900,8.222020751953124,-1.0052490234375,-0.1942138671875,0.0375823974609375
1751013476059964000,8.2319638671875,-1.004241943359375,-0.192108154296875,0.03802490234375
1751013476069907000,8.241906982421876,-1.0020599365234375,-0.1906585693359375,0.0379791259765625
1751013476079851000,8.25185107421875,-1.0041351318359375,-0.1929473876953125,0.035400390625
1751013476089794000,8.2617939453125,-1.0015869140625,-0.1974639892578125,0.0310516357421875
1751013476099736800,8.27173681640625,-0.997100830078125,-0.196502685546875,0.029693603515625
1751013476109681000,8.281680908203125,-0.99658203125,-0.194732666015625,0.0302581787109375
1751013476119624000,8.2916240234375,-0.998748779296875,-0.1932525634765625,0.03411865234375
1751013476129567000,8.30156689453125,-0.996795654296875,-0.192535400390625,0.0386199951171875
1751013476139510000,8.311510009765625,-0.9953155517578125,-0.1905364990234375,0.0377197265625
1751013476149453800,8.321453857421876,-0.9904327392578125,-0.1891021728515625,0.0360260009765625
1751013476159396900,8.33139697265625,-0.989715576171875,-0.19146728515625,0.04034423828125
1751013476169340000,8.34133984375,-0.9892425537109375,-0.18817138671875,0.0378265380859375
1751013476179284000,8.351283935546874,-0.98272705078125,-0.18798828125,0.03472900390625
1751013476189226800,8.361226806640625,-0.980987548828125,-0.192108154296875,0.0319671630859375
1751013476199169800,8.371169677734375,-0.982940673828125,-0.19500732421875,0.0333251953125
1751013476209112800,8.38111279296875,-0.982513427734375,-0.1940460205078125,0.032928466796875
1751013476219057000,8.391056884765625,-0.983642578125,-0.1934051513671875,0.0317230224609375
1751013476229000000,8.401,-0.9872589111328125,-0.1927490234375,0.032379150390625
1751013476238943000,8.41094287109375,-0.989959716796875,-0.1942291259765625,0.0329742431640625
1751013476248886800,8.42088671875,-0.9922027587890625,-0.19427490234375,0.0348663330078125
1751013476258829800,8.430829833984374,-0.9936065673828125,-0.19140625,0.0374908447265625
1751013476268772900,8.44077294921875,-0.9903106689453125,-0.1905364990234375,0.036376953125
1751013476278717000,8.450717041015626,-0.992431640625,-0.1909332275390625,0.035247802734375
1751013476288659700,8.46065966796875,-0.99542236328125,-0.1915740966796875,0.035736083984375
1751013476298602800,8.470602783203125,-0.994232177734375,-0.192657470703125,0.0355682373046875
1751013476308545800,8.4805458984375,-0.995147705078125,-0.19134521484375,0.03704833984375
1751013476318489900,8.49048974609375,-0.9986572265625,-0.191802978515625,0.0415802001953125
1751013476328433000,8.500432861328125,-0.9997406005859375,-0.1936492919921875,0.0421905517578125
1751013476338375700,8.510375732421876,-0.996429443359375,-0.1941680908203125,0.039794921875
1751013476348319700,8.52031982421875,-0.99481201171875,-0.1924285888671875,0.039520263671875
1751013476358262800,8.5302626953125,-0.9995880126953125,-0.197906494140625,0.036895751953125
1751013476368205800,8.540205810546874,-0.991180419921875,-0.1952972412109375,0.038421630859375
1751013476378149600,8.550149658203125,-0.9923553466796875,-0.1885833740234375,0.03765869140625
1751013476388089000,8.560089111328125,-0.993988037109375,-0.1902923583984375,0.0382232666015625
1751013476398032100,8.5700322265625,-0.9981536865234375,-0.193756103515625,0.0386505126953125
1751013476407976400,8.5799765625,-1.00128173828125,-0.1911773681640625,0.0390777587890625
1751013476417919200,8.589919189453125,-1.000732421875,-0.185882568359375,0.0382232666015625
1751013476427862300,8.5998623046875,-0.99859619140625,-0.189117431640625,0.03521728515625
1751013476437805000,8.60980517578125,-0.9979705810546875,-0.19219970703125,0.03350830078125
1751013476447749400,8.619749267578126,-1.00042724609375,-0.1938018798828125,0.033477783203125
1751013476457692400,8.6296923828125,-0.9976654052734375,-0.1944122314453125,0.032745361328125
1751013476467635200,8.63963525390625,-0.99603271484375,-0.195709228515625,0.034088134765625
1751013476477579300,8.649579345703126,-0.993988037109375,-0.195343017578125,0.0345306396484375
1751013476487522300,8.659522216796875,-0.9935760498046875,-0.19451904296875,0.0359039306640625
1751013476497465300,8.66946533203125,-0.9915008544921875,-0.1935272216796875,0.0358734130859375
1751013476507408400,8.679408447265626,-0.9875030517578125,-0.1920623779296875,0.0351104736328125
1751013476517352400,8.6893525390625,-0.98602294921875,-0.191741943359375,0.034576416015625
1751013476527295200,8.699295166015625,-0.9890899658203125,-0.1941070556640625,0.033966064453125
1751013476537238300,8.70923828125,-0.992706298828125,-0.1943206787109375,0.0345611572265625
1751013476547182300,8.719182373046875,-0.9931182861328125,-0.194427490234375,0.035064697265625
1751013476557125400,8.72912548828125,-0.9948883056640625,-0.1929779052734375,0.0359344482421875
1751013476567068400,8.739068359375,-0.9980316162109375,-0.1919403076171875,0.03759765625
1751013476577012200,8.74901220703125,-0.9969482421875,-0.19342041015625,0.0383453369140625
1751013476586955300,8.758955322265624,-0.9934844970703125,-0.1920318603515625,0.0367889404296875
1751013476596898300,8.768898193359375,-0.9942626953125,-0.18798828125,0.034881591796875
1751013476606842400,8.77884228515625,-0.999053955078125,-0.1853179931640625,0.0376129150390625
1751013476616785400,8.788785400390625,-1.001800537109375,-0.1874847412109375,0.0388031005859375
1751013476626728200,8.798728271484375,-0.9960174560546875,-0.18646240234375,0.0363006591796875
1751013476636671200,8.808671142578126,-0.995849609375,-0.1855621337890625,0.0345611572265625
1751013476646615300,8.818615234375,-0.99554443359375,-0.1888885498046875,0.0323333740234375
1751013476656558300,8.828558349609375,-0.9920501708984375,-0.1930084228515625,0.033203125
1751013476666501400,8.83850146484375,-0.984405517578125,-0.1943817138671875,0.034820556640625
1751013476676445200,8.848445068359375,-0.9788970947265625,-0.1956787109375,0.03533935546875
1751013476686388200,8.85838818359375,-0.980499267578125,-0.1955718994140625,0.03717041015625
1751013476696331300,8.868331298828124,-0.9871978759765625,-0.1923065185546875,0.0399932861328125
1751013476706274300,8.8782744140625,-0.9937896728515625,-0.1896820068359375,0.042144775390625
1751013476716218000,8.888218017578126,-0.9991302490234375,-0.1880950927734375,0.0439605712890625
1751013476726161200,8.8981611328125,-1.000335693359375,-0.1882171630859375,0.0453948974609375
1751013476736104200,8.908104248046875,-0.9973297119140625,-0.1872406005859375,0.0444793701171875
1751013476746048300,8.91804833984375,-0.99560546875,-0.186798095703125,0.042236328125
1751013476755991300,8.9279912109375,-0.9951171875,-0.1894378662109375,0.0408782958984375
1751013476765934300,8.937934326171876,-0.9974365234375,-0.1923980712890625,0.0386962890625
1751013476775878100,8.947878173828125,-1.0000762939453125,-0.193756103515625,0.0381622314453125
1751013476785821200,8.9578212890625,-1.000823974609375,-0.19317626953125,0.039459228515625
1751013476795764200,8.96776416015625,-1.0052642822265625,-0.19171142578125,0.039825439453125
1751013476805707300,8.977707275390625,-1.0101165771484375,-0.1892242431640625,0.041656494140625
1751013476815651000,8.987651123046875,-1.0107421875,-0.185882568359375,0.0441131591796875
1751013476825594000,8.997593994140624,-1.0102386474609375,-0.1827392578125,0.0461273193359375
1751013476835537200,9.007537109375,-1.0115966796875,-0.1807708740234375,0.0469818115234375
1751013476845481200,9.017481201171876,-1.0078582763671875,-0.1821136474609375,0.0465087890625
1751013476855424300,9.02742431640625,-1.0044403076171875,-0.1815185546875,0.047149658203125
1751013476865367300,9.0373671875,-0.99957275390625,-0.1809234619140625,0.046417236328125
1751013476875311400,9.047311279296874,-0.99505615234375,-0.1809234619140625,0.045257568359375
1751013476885254400,9.05725439453125,-0.9931793212890625,-0.18365478515625,0.0445098876953125
1751013476895197400,9.067197509765625,-0.9923248291015625,-0.1862945556640625,0.0453948974609375
1751013476905140200,9.07714013671875,-0.9917449951171875,-0.1870269775390625,0.0451202392578125
1751013476915084300,9.087084228515625,-0.99114990234375,-0.1855316162109375,0.0444488525390625
1751013476925027300,9.09702734375,-0.990081787109375,-0.1844024658203125,0.0473785400390625
1751013476934970400,9.106970458984375,-0.9904022216796875,-0.184234619140625,0.0490264892578125
1751013476944914400,9.11691455078125,-0.9928741455078125,-0.184600830078125,0.049713134765625
1751013476954857500,9.126857421875,-0.9901885986328125,-0.186370849609375,0.0475006103515625
1751013476964800300,9.13680029296875,-0.98748779296875,-0.18841552734375,0.04498291015625
1751013476974744300,9.146744384765626,-0.9866943359375,-0.188873291015625,0.0437774658203125
1751013476984687400,9.156687255859374,-0.9873046875,-0.188629150390625,0.043182373046875
1751013476994630400,9.16663037109375,-0.9912872314453125,-0.1891021728515625,0.0426177978515625
1751013477004573400,9.176573486328126,-0.9954681396484375,-0.1887359619140625,0.0415802001953125
1751013477014517200,9.186517333984375,-0.998931884765625,-0.1870574951171875,0.041534423828125
1751013477024460300,9.196460205078125,-1.00048828125,-0.1847381591796875,0.0427703857421875
1751013477034403300,9.2064033203125,-1.0030975341796875,-0.1833038330078125,0.0417327880859375
1751013477044347400,9.216347412109375,-1.0033721923828125,-0.1834869384765625,0.041473388671875
1751013477054290200,9.226290283203125,-1.0010833740234375,-0.1831817626953125,0.0399322509765625
1751013477064233200,9.236233154296874,-1.001373291015625,-0.182464599609375,0.039306640625
1751013477074176300,9.24617626953125,-1.00146484375,-0.1812591552734375,0.04119873046875
1751013477084120300,9.256120361328126,-1.0010833740234375,-0.1808624267578125,0.0441741943359375
1751013477094063400,9.2660634765625,-1.0007781982421875,-0.1798095703125,0.0430755615234375
1751013477104006400,9.27600634765625,-1.00225830078125,-0.18115234375,0.0411224365234375
1751013477113950200,9.2859501953125,-1.0002899169921875,-0.18438720703125,0.0391082763671875
1751013477123893200,9.295893310546875,-0.9933624267578125,-0.186309814453125,0.0396881103515625
1751013477133836300,9.305836181640625,-0.9864959716796875,-0.1876068115234375,0.0393218994140625
1751013477143780400,9.3157802734375,-0.984100341796875,-0.18975830078125,0.0377960205078125
1751013477153723100,9.32572314453125,-0.9825439453125,-0.192291259765625,0.037353515625
1751013477163666200,9.335666259765626,-0.9822998046875,-0.191650390625,0.0381317138671875
1751013477173610200,9.3456103515625,-0.984710693359375,-0.18975830078125,0.0414581298828125
1751013477183553300,9.35555322265625,-0.99090576171875,-0.190093994140625,0.043121337890625
1751013477193496300,9.365496337890624,-0.9929046630859375,-0.1898193359375,0.0409698486328125
1751013477203439400,9.375439453125,-0.9942169189453125,-0.1852264404296875,0.039703369140625
1751013477213383200,9.385383056640626,-0.995391845703125,-0.182769775390625,0.0390625
1751013477223326200,9.395326171875,-0.996307373046875,-0.1841583251953125,0.03631591796875
1751013477233269200,9.405269287109375,-0.9959564208984375,-0.1862640380859375,0.034423828125
1751013477243213000,9.415213134765626,-0.99493408203125,-0.1870269775390625,0.0352935791015625
1751013477253156000,9.425156005859375,-0.9952545166015625,-0.1890869140625,0.0392913818359375
1751013477263099100,9.43509912109375,-0.9973907470703125,-0.1895599365234375,0.0417022705078125
1751013477273042200,9.445042236328124,-1.001556396484375,-0.1879425048828125,0.042755126953125
1751013477282986200,9.454986328125,-1.004302978515625,-0.1847991943359375,0.04315185546875
1751013477292929300,9.46492919921875,-1.0070648193359375,-0.1829833984375,0.04400634765625
1751013477302872000,9.4748720703125,-1.0031585693359375,-0.1812744140625,0.0463104248046875
1751013477312816400,9.48481640625,-0.9999237060546875,-0.180419921875,0.04852294921875
1751013477322759400,9.494759521484376,-0.9970550537109375,-0.1815643310546875,0.047088623046875
1751013477332702200,9.5047021484375,-0.9953460693359375,-0.182861328125,0.044464111328125
1751013477342646300,9.514646240234375,-0.994384765625,-0.1851806640625,0.0423583984375
1751013477352589300,9.52458935546875,-0.9936065673828125,-0.187744140625,0.0404510498046875
1751013477362532400,9.534532470703125,-0.9939727783203125,-0.1878509521484375,0.0374908447265625
1751013477372475400,9.544475341796876,-0.9979705810546875,-0.186859130859375,0.034576416015625
1751013477382419500,9.55441943359375,-1.0013275146484375,-0.1851043701171875,0.0333099365234375
1751013477392362200,9.5643623046875,-1.0079345703125,-0.1812286376953125,0.0343475341796875
1751013477402305300,9.57430517578125,-1.00994873046875,-0.1809234619140625,0.0376129150390625
1751013477412249300,9.584249267578125,-1.0082244873046875,-0.181640625,0.0409393310546875
1751013477422192400,9.5941923828125,-1.0004119873046875,-0.180206298828125,0.0396575927734375
1751013477432135400,9.604135498046874,-0.990631103515625,-0.179534912109375,0.038726806640625
1751013477442079200,9.614079345703125,-0.9860382080078125,-0.1796112060546875,0.03839111328125
1751013477452022300,9.624022216796876,-0.98455810546875,-0.18255615234375,0.038330078125
1751013477461965300,9.63396533203125,-0.9871673583984375,-0.18597412109375,0.03961181640625
1751013477471908400,9.643908447265625,-0.988922119140625,-0.187591552734375,0.0406036376953125
1751013477481852400,9.653852294921874,-0.991302490234375,-0.18682861328125,0.0401153564453125
1751013477491795200,9.663795166015625,-0.99151611328125,-0.1866302490234375,0.0388336181640625
1751013477501738200,9.67373828125,-0.9924774169921875,-0.187652587890625,0.0368804931640625
1751013477511682600,9.6836826171875,-0.99261474609375,-0.186126708984375,0.0347137451171875
1751013477521625300,9.693625244140625,-0.9910125732421875,-0.1848602294921875,0.035247802734375
1751013477531568400,9.703568359375,-0.9911041259765625,-0.1885986328125,0.03582763671875
1751013477541512400,9.713512451171875,-0.9931640625,-0.189971923828125,0.0344085693359375
1751013477551455500,9.72345556640625,-0.99310302734375,-0.19012451171875,0.034332275390625
1751013477561398500,9.7333984375,-0.9923553466796875,-0.1902618408203125,0.035003662109375
1751013477571341600,9.743341552734375,-0.995574951171875,-0.188995361328125,0.03826904296875
1751013477581285400,9.753285400390626,-0.999481201171875,-0.189178466796875,0.0373992919921875
1751013477591228400,9.763228515625,-1.0001068115234375,-0.1905364990234375,0.0364837646484375
1751013477601171500,9.77317138671875,-0.9993896484375,-0.1914215087890625,0.0361328125
1751013477611115500,9.783115478515626,-0.9965057373046875,-0.1918487548828125,0.0356292724609375
1751013477621058600,9.79305859375,-0.9950103759765625,-0.19146728515625,0.03594970703125
1751013477631001600,9.803001708984375,-0.9945526123046875,-0.190582275390625,0.035675048828125
1751013477640944400,9.8129443359375,-0.9945068359375,-0.1899871826171875,0.0341033935546875
1751013477650888400,9.822888427734375,-0.9987335205078125,-0.1893310546875,0.0329742431640625
1751013477660831500,9.83283154296875,-1.000335693359375,-0.1900482177734375,0.0307464599609375
1751013477670774500,9.8427744140625,-1.0003204345703125,-0.1903076171875,0.03082275390625
1751013477680718300,9.85271826171875,-1.0000152587890625,-0.19061279296875,0.032989501953125
1751013477690661400,9.862661376953126,-0.9995880126953125,-0.18975830078125,0.03680419921875
1751013477700604400,9.8726044921875,-0.99603271484375,-0.188995361328125,0.0375518798828125
1751013477710548500,9.882548583984375,-0.9932861328125,-0.1875,0.0360260009765625
1751013477720491500,9.892491455078124,-0.9953765869140625,-0.1880950927734375,0.033843994140625
1751013477730434300,9.902434326171875,-0.996337890625,-0.190155029296875,0.0328216552734375
1751013477740377300,9.91237744140625,-0.99554443359375,-0.1917266845703125,0.0327911376953125
1751013477750321400,9.9223212890625,-0.99554443359375,-0.19000244140625,0.0356597900390625
1751013477760264400,9.932264404296875,-0.9985504150390625,-0.1890411376953125,0.0394134521484375
1751013477770207500,9.94220751953125,-0.9997406005859375,-0.19207763671875,0.0407867431640625
1751013477780151300,9.9521513671875,-0.99609375,-0.1942596435546875,0.0379638671875
1751013477790094300,9.96209423828125,-0.9924468994140625,-0.1940155029296875,0.0409393310546875
1751013477800037400,9.972037353515624,-0.989227294921875,-0.193450927734375,0.0411834716796875
1751013477809981400,9.9819814453125,-0.9843597412109375,-0.1937713623046875,0.037994384765625
1751013477819924500,9.991924560546876,-0.9826812744140625,-0.193145751953125,0.04669189453125
1751013477829867300,10.0018671875,-0.9842071533203125,-0.1917877197265625,0.0453948974609375
1751013477839810300,10.011810302734375,-0.9913482666015625,-0.193878173828125,0.0431976318359375
1751013477849754400,10.02175439453125,-0.99212646484375,-0.19415283203125,0.0455474853515625
1751013477859697400,10.031697509765625,-0.994049072265625,-0.1923065185546875,0.044403076171875
1751013477869640400,10.041640380859375,-0.9916229248046875,-0.1917877197265625,0.04449462890625
1751013477879584300,10.051584228515624,-0.991485595703125,-0.192718505859375,0.0431976318359375
1751013477889527300,10.06152734375,-0.9891815185546875,-0.1912689208984375,0.0394744873046875
1751013477899470300,10.07147021484375,-0.98468017578125,-0.19085693359375,0.0379638671875
1751013477909414400,10.081414306640625,-0.9839019775390625,-0.191314697265625,0.036041259765625
1751013477919357200,10.091357177734375,-0.98602294921875,-0.190216064453125,0.035614013671875
1751013477929300200,10.10130029296875,-0.992889404296875,-0.18963623046875,0.038330078125
1751013477939243300,10.1112431640625,-0.9980621337890625,-0.18841552734375,0.039459228515625
1751013477949187600,10.1211875,-1.0004425048828125,-0.1859130859375,0.0411224365234375
1751013477959130400,10.13113037109375,-1.0023651123046875,-0.1841278076171875,0.0420379638671875
1751013477969073400,10.141073486328125,-1.002777099609375,-0.18182373046875,0.0460052490234375
1751013477979017500,10.151017578125,-1.0023956298828125,-0.179046630859375,0.0466461181640625
1751013477988960500,10.16096044921875,-1.0064544677734375,-0.1788787841796875,0.0441436767578125
1751013477998903600,10.170903564453125,-1.0042266845703125,-0.180877685546875,0.041778564453125
1751013478008847400,10.180847412109374,-1.0003204345703125,-0.1818389892578125,0.0410919189453125
1751013478018790400,10.190790283203125,-0.99810791015625,-0.1824798583984375,0.044097900390625
1751013478028733400,10.2007333984375,-0.998291015625,-0.1849212646484375,0.0461578369140625
1751013478038676500,10.210676513671874,-1.0022735595703125,-0.1859893798828125,0.04595947265625
1751013478048620500,10.22062060546875,-1.0034332275390625,-0.1864471435546875,0.0461578369140625
1751013478058563600,10.2305634765625,-1.002532958984375,-0.187652587890625,0.04571533203125
1751013478068506400,10.24050634765625,-1.0042266845703125,-0.18768310546875,0.043487548828125
1751013478078450400,10.250450439453125,-1.0069427490234375,-0.188568115234375,0.0447235107421875
1751013478088393500,10.2603935546875,-1.0062713623046875,-0.188690185546875,0.04681396484375
1751013478098336500,10.27033642578125,-1.002838134765625,-0.1886444091796875,0.047332763671875
1751013478108279600,10.280279541015625,-1.000885009765625,-0.189849853515625,0.0444488525390625
1751013478118223400,10.290223388671874,-1.002777099609375,-0.19171142578125,0.043426513671875
1751013478128166400,10.30016650390625,-0.9978179931640625,-0.1933746337890625,0.0449066162109375
1751013478138109400,10.310109375,-0.99346923828125,-0.1925048828125,0.045440673828125
1751013478148053500,10.320053466796875,-0.994873046875,-0.1929931640625,0.0429229736328125
1751013478157996500,10.32999658203125,-0.9939727783203125,-0.193389892578125,0.0401611328125
1751013478167939300,10.339939208984376,-0.995819091796875,-0.1922607421875,0.038787841796875
1751013478177883400,10.34988330078125,-0.9962158203125,-0.18914794921875,0.0388946533203125
1751013478187826400,10.359826416015625,-0.9943389892578125,-0.1869964599609375,0.0416259765625
1751013478197769500,10.36976953125,-0.9930572509765625,-0.185455322265625,0.0436553955078125
1751013478207712500,10.37971240234375,-0.9942169189453125,-0.18536376953125,0.0420684814453125
1751013478217656300,10.38965625,-0.9925537109375,-0.18426513671875,0.04168701171875
1751013478227599400,10.399599365234375,-0.9861907958984375,-0.1867218017578125,0.0434417724609375
1751013478237542400,10.40954248046875,-0.9735260009765625,-0.1855010986328125,0.0406036376953125
1751013478247486500,10.419486572265624,-0.9935150146484375,-0.178466796875,0.0284576416015625
1751013478257429200,10.42942919921875,-0.990997314453125,-0.1888427734375,0.0322113037109375
1751013478267372300,10.439372314453125,-0.9887847900390625,-0.1880340576171875,0.0360107421875
1751013478277316400,10.44931640625,-0.985687255859375,-0.182373046875,0.0405426025390625
1751013478287259400,10.45925927734375,-0.9827423095703125,-0.1809234619140625,0.0399017333984375
1751013478297202400,10.469202392578126,-0.9839935302734375,-0.18304443359375,0.036376953125
1751013478307145500,10.4791455078125,-0.9885406494140625,-0.1842193603515625,0.03271484375
1751013478317089300,10.48908935546875,-0.991119384765625,-0.1819610595703125,0.02935791015625
1751013478327032300,10.4990322265625,-0.99334716796875,-0.1826324462890625,0.033447265625
1751013478336975400,10.508975341796875,-0.9953460693359375,-0.1823883056640625,0.041107177734375
1751013478346919400,10.51891943359375,-0.9948272705078125,-0.18035888671875,0.0446929931640625
1751013478356862200,10.5288623046875,-1.0027313232421875,-0.1849822998046875,0.0408782958984375
1751013478366805200,10.53880517578125,-0.99810791015625,-0.18646240234375,0.03851318359375
1751013478376749600,10.54874951171875,-0.9981842041015625,-0.181671142578125,0.0377044677734375
1751013478386692900,10.55869287109375,-1.0016326904296875,-0.1817626953125,0.039794921875
1751013478396635600,10.5686357421875,-1.00152587890625,-0.1846160888671875,0.0421600341796875
1751013478406578400,10.578578369140626,-0.9980621337890625,-0.1814117431640625,0.0431976318359375
1751013478416522800,10.588522705078125,-0.9964599609375,-0.1823272705078125,0.049713134765625
1751013478426465800,10.5984658203125,-0.9972991943359375,-0.1862335205078125,0.0557403564453125
1751013478436408800,10.608408935546874,-0.9608612060546875,-0.1872100830078125,0.0609588623046875
1751013478446352600,10.6183525390625,-0.9814300537109375,-0.1888580322265625,0.0669708251953125
1751013478456295700,10.628295654296876,-1.0083770751953125,-0.198822021484375,0.05511474609375
1751013478466238700,10.63823876953125,-1.001708984375,-0.2063751220703125,0.041351318359375
1751013478476182800,10.648182861328126,-1.012359619140625,-0.20074462890625,0.0432281494140625
1751013478486125800,10.658125732421874,-1.01873779296875,-0.1948089599609375,0.0468292236328125
1751013478496068600,10.668068603515625,-1.01007080078125,-0.194061279296875,0.046142578125
1751013478506011600,10.67801171875,-1.004302978515625,-0.194580078125,0.044586181640625
1751013478515955700,10.687955810546875,-1.0030059814453125,-0.19775390625,0.039764404296875
1751013478525898800,10.697898681640625,-1.0032196044921875,-0.2024383544921875,0.0358123779296875
1751013478535841800,10.707841796875,-0.9993896484375,-0.2041015625,0.0371246337890625
1751013478545785600,10.71778564453125,-0.98760986328125,-0.1969757080078125,0.051422119140625
