time,seconds_elapsed,z,y,x
1751013682969422800,0.1184228515625,0.05823560804128647,0.19797486066818237,-0.20307081937789917
1751013682979367000,0.128366943359375,0.054182279855012894,0.19770722091197968,-0.2113889455795288
1751013682989310000,0.13831005859375,0.04960110783576965,0.17470122873783112,-0.20063616335391998
1751013682999254000,0.14825390625,0.0469515286386013,0.1576135903596878,-0.16638551652431488
1751013683009197000,0.158197021484375,0.045109156519174576,0.13600844144821167,-0.1114029586315155
1751013683019140900,0.168140869140625,0.05516258627176285,0.12758991122245789,-0.035296738147735596
1751013683029084000,0.178083984375,0.07074687629938126,0.13637036085128784,0.04508864879608154
1751013683039027000,0.18802685546875,0.08447040617465973,0.13745293021202087,0.11632607877254486
1751013683048971000,0.197970947265625,0.09997986257076263,0.12178688496351242,0.16375857591629028
1751013683058914000,0.2079140625,0.11373881250619888,0.09119755029678345,0.18313919007778168
1751013683068857900,0.21785791015625,0.12397094815969467,0.056713081896305084,0.1745758056640625
1751013683078801000,0.22780078125,0.12315309047698975,0.02304752916097641,0.14099334180355072
1751013683088745000,0.237744873046875,0.11228765547275543,-0.007074953522533178,0.0957329198718071
1751013683098688000,0.24768798828125,0.10398472100496292,-0.03068068064749241,0.03446290269494057
1751013683108630800,0.257630859375,0.09339679032564163,-0.033848509192466736,-0.023395603522658348
1751013683118574800,0.267574951171875,0.07742714881896973,-0.02671709842979908,-0.0686538964509964
1751013683128518000,0.277517822265625,0.06094883754849434,0.0020509003661572933,-0.0856560468673706
1751013683138462000,0.2874619140625,0.04825861006975174,0.03473134711384773,-0.08126742392778397
1751013683148404700,0.29740478515625,0.028902487829327583,0.0549231693148613,-0.06338376551866531
1751013683158347800,0.30734765625,0.014738199301064014,0.06722430884838104,-0.03383572772145271
1751013683168291800,0.317291748046875,-0.007801463827490807,0.07378314435482025,-0.004013916477560997
1751013683178235000,0.32723486328125,-0.017410416156053543,0.07056204974651337,0.0033039175905287266
1751013683188179000,0.337178955078125,-0.030535005033016205,0.06688448786735535,-0.004010720644146204
1751013683198122000,0.3471220703125,-0.030842600390315056,0.058035604655742645,-0.0317121222615242
1751013683208066000,0.357066162109375,-0.03142822906374931,0.045034054666757584,-0.07014499604701996
1751013683218009000,0.367009033203125,-0.02570243366062641,0.03663364425301552,-0.10751394182443619
1751013683227952000,0.3769521484375,-0.017192302271723747,0.03984781354665756,-0.13409149646759033
1751013683237896000,0.38689599609375,-0.010133061558008194,0.04171442240476608,-0.1493426114320755
1751013683247839000,0.3968388671875,-0.006368949543684721,0.03364318236708641,-0.14285461604595184
1751013683257783000,0.406782958984375,0.0019558256026357412,0.035348936915397644,-0.1234031617641449
1751013683267725800,0.416725830078125,0.012425776571035385,0.047694817185401917,-0.08479291945695877
1751013683277670000,0.426669921875,0.0182836651802063,0.06374835222959518,-0.04176156222820282
1751013683287613000,0.436613037109375,0.024455009028315544,0.0771602988243103,0.005373193882405758
1751013683297556000,0.446555908203125,0.02924097515642643,0.07375491410493851,0.04261749982833862
1751013683307499800,0.456499755859375,0.02966601587831974,0.07023448497056961,0.07015565037727356
1751013683317442800,0.46644287109375,0.03202930465340614,0.07011543959379196,0.07166353613138199
1751013683327387000,0.476386962890625,0.03859053552150726,0.052389439195394516,0.05210501328110695
1751013683337330000,0.486329833984375,0.03683338314294815,0.039326634258031845,0.02684253267943859
1751013683347273700,0.496273681640625,0.041072335094213486,0.030542729422450066,0.004868524614721537
1751013683357216800,0.506216796875,0.0405689962208271,0.026432938873767853,-0.01697711832821369
1751013683367159800,0.516159912109375,0.03600300848484039,0.020434701815247536,-0.023634755983948708
1751013683377104000,0.526103759765625,0.033423736691474915,0.026510968804359436,-0.016865532845258713
1751013683387047000,0.536046875,0.03448260948061943,0.031010380014777184,0.003947869874536991
1751013683396991000,0.545990966796875,0.032813072204589844,0.03394491598010063,0.03140319511294365
1751013683406934000,0.55593408203125,0.02515435591340065,0.034515101462602615,0.05506591498851776
1751013683416878000,0.565878173828125,0.01678084395825863,0.03948908671736717,0.0735919252038002
1751013683426821000,0.575821044921875,0.010201238095760345,0.03881717100739479,0.08076994866132736
1751013683436764000,0.585763916015625,0.00330311874859035,0.038833681493997574,0.07449926435947418
1751013683446708000,0.5957080078125,-0.0021968416403979063,0.04472299665212631,0.057260893285274506
1751013683456651000,0.605651123046875,0.0020743361674249172,0.05643424764275551,0.03376169130206108
1751013683466594800,0.6155947265625,0.008986304514110088,0.0656176283955574,0.021442707628011703
1751013683476537900,0.625537841796875,0.014164288528263569,0.07392056286334991,0.007272560149431229
1751013683486481000,0.63548095703125,0.01684928685426712,0.07050985097885132,-0.0067910607904195786
1751013683496425000,0.645425048828125,0.020232833921909332,0.04161695018410683,-0.017971543595194817
1751013683506368000,0.655367919921875,0.019576897844672203,0.020325778052210808,-0.027213245630264282
1751013683516311800,0.665311767578125,0.015327024273574352,0.0001371527905575931,-0.032643698155879974
1751013683526254800,0.6752548828125,0.015157114714384079,-0.008115717209875584,-0.03719237446784973
1751013683536199000,0.685198974609375,0.014169348403811455,-0.001336107961833477,-0.03290894627571106
1751013683546142000,0.695141845703125,0.012819658033549786,0.007439274340867996,-0.021042434498667717
1751013683556085000,0.7050849609375,0.01185133308172226,0.01738458313047886,-0.006726345978677273
1751013683566028800,0.71502880859375,0.013194631785154343,0.0247839093208313,0.005889314226806164
1751013683575971800,0.724971923828125,0.017777398228645325,0.031925175338983536,0.01629588194191456
1751013683585911600,0.73491162109375,0.0232336837798357,0.041539985686540604,0.016497749835252762
1751013683595854600,0.7448544921875,0.03555959090590477,0.05450718477368355,0.01127875316888094
1751013683605798700,0.754798583984375,0.041498441249132156,0.05926252529025078,-0.004771585576236248
1751013683615741700,0.76474169921875,0.04795527458190918,0.05173217132687569,-0.018459700047969818
1751013683625684700,0.774684814453125,0.051607534289360046,0.039566051214933395,-0.031064175069332123
1751013683635628800,0.78462890625,0.05090365931391716,0.02846572920680046,-0.03694683313369751
1751013683645571600,0.794571533203125,0.05251007899641991,0.020803282037377357,-0.03967204689979553
1751013683655515600,0.804515625,0.05859912931919098,0.022012891247868538,-0.03164341300725937
1751013683665458700,0.814458740234375,0.0645182728767395,0.022895196452736855,-0.013411146588623524
1751013683675402800,0.82440283203125,0.06683549284934998,0.0224981177598238,0.00854155607521534
1751013683685345500,0.834345458984375,0.06682243943214417,0.033419474959373474,0.022550849243998528
1751013683695288600,0.84428857421875,0.0701489970088005,0.04958273097872734,0.03200134262442589
1751013683705232600,0.854232666015625,0.07064221054315567,0.05120140314102173,0.029684925451874733
1751013683715175700,0.86417578125,0.06331265717744827,0.04736591875553131,0.019056782126426697
1751013683725119500,0.874119384765625,0.0629131868481636,0.047139547765254974,-0.000284159294096753
1751013683735062500,0.8840625,0.05981166660785675,0.0466734953224659,-0.018924688920378685
1751013683745005600,0.894005615234375,0.053459495306015015,0.04823756963014603,-0.03374571353197098
1751013683754949600,0.90394970703125,0.04320472851395607,0.05344751104712486,-0.039625708013772964
1751013683764892700,0.913892578125,0.03846510127186775,0.05939355120062828,-0.037405163049697876
1751013683774836500,0.92383642578125,0.03628796711564064,0.06185218319296837,-0.023257918655872345
1751013683784779500,0.933779541015625,0.03400776907801628,0.06073924899101257,-0.008142614737153053
1751013683794723600,0.9437236328125,0.03550153598189354,0.052131377160549164,0.0068238177336752415
1751013683804666600,0.95366650390625,0.040585242211818695,0.04647242650389671,0.016327841207385063
1751013683814609400,0.963609375,0.041258491575717926,0.04909723997116089,0.029166407883167267
1751013683824553700,0.9735537109375,0.04671637341380119,0.047751810401678085,0.03441895917057991
1751013683834496800,0.983496826171875,0.04887699335813522,0.04481620714068413,0.03605573996901512
1751013683844440600,0.993440673828125,0.04869483411312103,0.04017271846532822,0.0284659955650568
1751013683854383600,1.003383544921875,0.050516702234745026,0.03496064618229866,0.015835687518119812
1751013683864327700,1.01332763671875,0.049797650426626205,0.02533544972538948,0.0021843246649950743
1751013683874270700,1.023270751953125,0.04815847426652908,0.01840510591864586,-0.004788363818079233
1751013683884213800,1.0332138671875,0.04692063853144646,0.003175287041813135,-0.006089583970606327
1751013683894157600,1.043157470703125,0.04381486028432846,-0.006514358334243298,0.006463491823524237
1751013683904100600,1.0531005859375,0.04764661565423012,-0.010251039639115334,0.027836425229907036
1751013683914044700,1.063044677734375,0.05354684963822365,-0.012486230581998825,0.04523112624883652
1751013683923987700,1.07298779296875,0.062311578541994095,-0.008131695911288261,0.05967584624886513
1751013683933931500,1.082931640625,0.06772471964359283,0.002264752285555005,0.05922950059175491
1751013683943874600,1.09287451171875,0.0729687511920929,0.015607722103595734,0.04873238503932953
1751013683953817600,1.102817626953125,0.07571712881326675,0.03015630505979061,0.028491295874118805
1751013683963761700,1.11276171875,0.0802072212100029,0.033186450600624084,0.007543137297034264
1751013683973704700,1.12270458984375,0.07918403297662735,0.03535958752036095,-0.00820866134017706
1751013683983648500,1.1326484375,0.07719225436449051,0.025467542931437492,-0.024872859939932823
1751013683993591600,1.142591552734375,0.07008028775453568,0.01913134939968586,-0.024808144196867943
1751013684003535600,1.15253564453125,0.06216004490852356,0.01392913144081831,-0.02051273174583912
1751013684013478400,1.162478515625,0.05645634979009628,0.014163223095238209,-0.005592105444520712
1751013684023421400,1.17242138671875,0.05681188404560089,0.015458851121366024,0.016649017110466957
1751013684033365800,1.18236572265625,0.05486670881509781,0.015370700508356094,0.04043051227927208
1751013684043308800,1.192308837890625,0.06011207401752472,0.027054520323872566,0.062487080693244934
1751013684053252600,1.202252685546875,0.06691431999206543,0.025743180885910988,0.07740318030118942
1751013684063195600,1.212195556640625,0.07342441380023956,0.028677184134721756,0.07518423348665237
1751013684073139700,1.2221396484375,0.07473123073577881,0.02731364592909813,0.06047799065709114
1751013684083082800,1.232082763671875,0.07804446667432785,0.021756693720817566,0.040593232959508896
1751013684093025800,1.24202587890625,0.07596560567617416,0.014519288204610348,0.01575739122927189
1751013684102969600,1.251969482421875,0.07383454591035843,0.007188670802861452,0.002572613535448909
1751013684112912600,1.26191259765625,0.06632256507873535,0.007611314300447702,-0.009799634106457233
1751013684122856700,1.271856689453125,0.062011703848838806,0.006115949247032404,-0.004741225857287645
1751013684132799700,1.2817998046875,0.05535300448536873,0.004795554094016552,-0.00446958327665925
1751013684142743600,1.29174365234375,0.05059899389743805,0.010416422039270401,0.002245843643322587
1751013684152686600,1.3016865234375,0.0463978573679924,0.007708786055445671,0.009682721458375454
1751013684162629600,1.311629638671875,0.04192188382148743,0.010355435311794281,0.012287292629480362
1751013684172573400,1.321573486328125,0.04136155545711517,0.014222345314919949,0.02153565175831318
1751013684182516500,1.3315166015625,0.03786695376038551,0.021196898072957993,0.0219082273542881
1751013684192460500,1.34146044921875,0.04096793755888939,0.030336599797010422,0.021099692210555077
1751013684202403600,1.351403564453125,0.04544204846024513,0.043587423861026764,0.014051103964447975
1751013684212347400,1.361347412109375,0.04409715533256531,0.05546405911445618,0.006960970349609852
1751013684222290400,1.37129052734375,0.043595146387815475,0.06520936638116837,0.0014029532903805375
1751013684232233500,1.3812333984375,0.04269819334149361,0.06794602423906326,0.0015158712631091475
1751013684242177800,1.391177734375,0.03947816789150238,0.059894759207963943,0.001883387565612793
1751013684252120800,1.401120849609375,0.040049415081739426,0.050633616745471954,0.008195611648261547
1751013684262064600,1.411064697265625,0.0343763493001461,0.03573083132505417,0.008988169021904469
1751013684272007700,1.421007568359375,0.03253130987286568,0.02467099204659462,0.013344567269086838
1751013684281951700,1.43095166015625,0.02467685006558895,0.009346630424261093,0.01392779964953661
1751013684291894800,1.440894775390625,0.02075188420712948,0.011775699444115162,0.02003522776067257
1751013684301837600,1.450837646484375,0.013998373411595821,0.009404687210917473,0.026571955531835556
1751013684311781600,1.46078173828125,0.015144331380724907,0.0181659534573555,0.028966404497623444
1751013684321724700,1.470724609375,0.016919860616326332,0.024090688675642014,0.04019695520401001
1751013684331668700,1.480668701171875,0.024711471050977707,0.02653174288570881,0.041193507611751556
1751013684341611500,1.490611572265625,0.02562839724123478,0.028183434158563614,0.04354667663574219
1751013684351555600,1.5005556640625,0.03254089877009392,0.029816750437021255,0.04047631844878197
1751013684361498600,1.51049853515625,0.03670128807425499,0.03200666978955269,0.030550718307495117
1751013684371441700,1.520441650390625,0.04067499190568924,0.03612018749117851,0.01702372543513775
1751013684381385500,1.530385498046875,0.042088065296411514,0.04153226315975189,0.006226470693945885
1751013684391328500,1.54032861328125,0.03953302651643753,0.039201997220516205,-0.010083526372909546
1751013684401272600,1.5502724609375,0.03226099908351898,0.0433804951608181,-0.015270299278199673
1751013684411215600,1.560215576171875,0.03009132295846939,0.03831862658262253,-0.019887154921889305
1751013684421159400,1.570159423828125,0.0216554943472147,0.019183814525604248,-0.02419082447886467
1751013684431102500,1.5801025390625,0.012150672264397144,0.009122125804424286,-0.022112758830189705
1751013684441045500,1.59004541015625,0.009369000792503357,0.0017057546647265553,-0.011229751631617546
1751013684450989800,1.59998974609375,0.0035137746017426252,-0.002745985286310315,-0.008287224918603897
1751013684460932600,1.6099326171875,-0.0026053704787045717,-0.0018748653819784522,-0.0026197514962404966
1751013684470876700,1.619876708984375,-0.0020184097811579704,0.006705040577799082,-0.0028879318851977587
1751013684480819700,1.62981982421875,-0.002907373011112213,0.021866416558623314,-0.00697854720056057
1751013684490762800,1.6397626953125,0.0029848709236830473,0.03299310430884361,-0.010696852579712868
1751013684500706600,1.64970654296875,0.0029292108956724405,0.039251796901226044,-0.018739333376288414
1751013684510649600,1.659649658203125,0.009914948605000973,0.04709640517830849,-0.02587207779288292
1751013684520593700,1.66959375,0.011924037709832191,0.04700346291065216,-0.02996162697672844
1751013684530536700,1.67953662109375,0.011276889592409134,0.04045288264751434,-0.032940108329057693
1751013684540480500,1.68948046875,0.013680658303201199,0.0341302715241909,-0.02634505368769169
1751013684550423600,1.699423583984375,0.01152695994824171,0.023394005373120308,-0.02052977681159973
1751013684560367600,1.70936767578125,0.012643356807529926,0.013699566945433617,-0.007995075546205044
1751013684570310700,1.719310546875,0.012510998174548149,0.007448062766343355,-0.0054331147111952305
1751013684580253700,1.729253662109375,0.014327007345855236,0.005540973041206598,0.006589725613594055
1751013684590197500,1.739197509765625,0.011917113326489925,0.004968659486621618,0.017841314896941185
1751013684600140500,1.749140625,0.011048123240470886,0.0065255435183644295,0.023975906893610954
1751013684610084600,1.759084716796875,0.012431369163095951,0.0011227887589484453,0.02841193415224552
1751013684620027600,1.769027587890625,0.008986837230622768,-0.0019291938515380025,0.02653147652745247
1751013684629970400,1.778970458984375,0.008341020904481411,-0.005288771353662014,0.013705692254006863
1751013684639914500,1.78891455078125,0.011805793270468712,-0.004391818773001432,-0.00027563716867007315
1751013684649857500,1.798857421875,0.006938333623111248,-0.00541473925113678,-0.012477708980441093
1751013684659801600,1.808801513671875,0.006412891671061516,-0.011800733394920826,-0.02833603322505951
1751013684669744400,1.818744384765625,0.00538544449955225,-0.007224090863019228,-0.034993670880794525
1751013684679688400,1.8286884765625,0.005511411931365728,0.0003448793722782284,-0.037160150706768036
1751013684689631500,1.838631591796875,0.004085022956132889,-0.0038578552193939686,-0.033902574330568314
1751013684699574500,1.848574462890625,0.0012482235906645656,-0.004436293616890907,-0.03225727379322052
1751013684709518300,1.858518310546875,0.0009827064350247383,-0.0010823087068274617,-0.0348980613052845
1751013684719461400,1.86846142578125,-0.00024767397553659976,-0.0019558256026357412,-0.027766650542616844
1751013684729405400,1.878405517578125,0.002406165935099125,-0.0006580671179108322,-0.02214924432337284
1751013684739348500,1.888348388671875,0.007783088367432356,0.0016788567882031202,-0.012151737697422504
1751013684749292500,1.89829248046875,0.011973571963608265,0.0007337008719332516,-0.0015001586871221662
1751013684759235300,1.9082353515625,0.013551228679716587,-0.004101800732314587,0.015146994963288307
1751013684769178400,1.918178466796875,0.018307367339730263,-0.005678392015397549,0.026077406480908394
1751013684779122700,1.928122802734375,0.011474495753645897,-0.006252569612115622,0.029153358191251755
1751013684789065500,1.9380654296875,0.010175406001508236,-0.005784385837614536,0.023679496720433235
1751013684799009500,1.948009521484375,0.008084824308753014,-0.0024767396971583366,0.017004549503326416
1751013684808952600,1.95795263671875,0.008826514706015587,0.005720736458897591,0.009793508797883987
1751013684818896600,1.967896728515625,0.010173008777201176,0.009532252326607704,0.004841094370931387
1751013684828839400,1.97783935546875,0.010440124198794365,0.009908024221658707,-0.0026849990244954824
1751013684838782500,1.987782470703125,0.011637480929493904,0.014029266312718391,-0.01161511056125164
1751013684848726500,1.9977265625,0.015136342495679855,0.015785355120897293,-0.023085078224539757
1751013684858669600,2.007669677734375,0.013315805234014988,0.014289723709225655,-0.03544933721423149
1751013684868613400,2.01761328125,0.009495766833424568,0.012316587381064892,-0.046722233295440674
1751013684878556400,2.027556396484375,0.004991296678781509,0.005397428758442402,-0.05085066333413124
1751013684888500500,2.03750048828125,-0.0001573928166180849,-0.0017739315517246723,-0.05380251258611679
1751013684898443500,2.047443603515625,0.00010839065362233669,0.0033872744534164667,-0.04878751188516617
1751013684908386600,2.057386474609375,0.0009680590592324734,0.008250206708908081,-0.037340182811021805
1751013684918330400,2.067330322265625,0.0027236149180680513,0.0038181741256266832,-0.024105869233608246
1751013684928273400,2.0772734375,0.00478543434292078,0.0024732777383178473,-0.015066035091876984
1751013684938217500,2.087217529296875,0.013043363578617573,0.003772634081542492,-0.00959616806358099
1751013684948160500,2.097160400390625,0.011857724748551846,0.010802047327160835,-0.021197430789470673
1751013684958104600,2.1071044921875,0.009563411585986614,0.01679282821714878,-0.04205930233001709
1751013684968047400,2.11704736328125,0.006743656471371651,0.01926024630665779,-0.06410734355449677
1751013684977990400,2.126990478515625,0.006422479171305895,0.021740183234214783,-0.08214972913265228
1751013684987934500,2.1369345703125,-0.002519350266084075,0.024689100682735443,-0.0839199349284172
1751013684997877500,2.14687744140625,-0.0054608117789030075,0.02298387885093689,-0.07722528278827667
1751013685007821600,2.156821533203125,-0.00612340634688735,0.014581605792045593,-0.05549681559205055
1751013685017764600,2.1667646484375,-0.0059838565066456795,0.006729275453835726,-0.026202576234936714
1751013685027708400,2.17670849609375,-0.0036461339332163334,0.011287808418273926,0.006835002917796373
1751013685037651500,2.1866513671875,-0.0009813748765736818,0.021758824586868286,0.030473753809928894
1751013685047594500,2.196594482421875,0.005319397896528244,0.028534704819321632,0.04108884558081627
1751013685057538600,2.20653857421875,0.011664645746350288,0.035283155739307404,0.03392467647790909
1751013685067481600,2.216481689453125,0.016476977616548538,0.036433909088373184,0.015309980139136314
1751013685077425400,2.22642529296875,0.023838752880692482,0.03362507000565529,-0.01648044027388096
1751013685087368400,2.236368408203125,0.02334420382976532,0.03142290562391281,-0.05018487200140953
1751013685097312500,2.2463125,0.018630942329764366,0.033257823437452316,-0.0760745257139206
1751013685107255600,2.256255615234375,0.01543514896184206,0.025557557120919228,-0.08012013882398605
1751013685117198600,2.266198486328125,0.011895807459950447,0.017186177894473076,-0.06281731277704239
1751013685127142400,2.276142333984375,0.00818096473813057,0.01798352785408497,-0.040474455803632736
1751013685137085400,2.28608544921875,0.00538491178303957,0.013176522217690945,-0.01455976814031601
1751013685147029500,2.296029541015625,0.002746518002822995,0.012197543866932392,-0.001107076066546142
1751013685156972300,2.30597216796875,0.006100769154727459,0.011562113650143147,0.011740013025701046
1751013685166916600,2.31591650390625,0.009287508204579353,0.021073326468467712,0.008213987573981285
1751013685176859400,2.325859375,0.014781342819333076,0.0196679774671793,0.005008607171475887
1751013685186802400,2.335802490234375,0.021465077996253967,0.022828882560133934,-0.0021547635551542044
1751013685196746500,2.34574658203125,0.02774188295006752,0.02720552124083042,-0.012557869777083397
1751013685206689500,2.355689453125,0.0232858806848526,0.03163888677954674,-0.025408420711755753
1751013685216633600,2.365633544921875,0.020967599004507065,0.03309483453631401,-0.04078871011734009
1751013685226576600,2.37557666015625,0.01661066897213459,0.030953921377658844,-0.05962418019771576
1751013685236520400,2.3855205078125,0.006962035782635212,0.021326327696442604,-0.07154129445552826
1751013685246463500,2.39546337890625,0.0036336169578135014,0.011318434961140156,-0.08165651559829712
1751013685256406500,2.405406494140625,0.0035633095540106297,0.01985333301126957,-0.07459833472967148
1751013685266350600,2.4153505859375,0.006836866959929466,0.02755439653992653,-0.05680922046303749
1751013685276293600,2.425293701171875,0.010118148289620876,0.036078110337257385,-0.0359974168241024
1751013685286237400,2.435237548828125,0.017114805057644844,0.042885150760412216,-0.009689644910395145
1751013685296180500,2.445180419921875,0.022562300786376,0.04602501541376114,0.007663778495043516
1751013685306124500,2.45512451171875,0.027768779546022415,0.04753449559211731,0.015440741553902626
1751013685316067600,2.465067626953125,0.030225280672311783,0.047696683555841446,0.016716396436095238
1751013685326010400,2.47501025390625,0.03798067197203636,0.05108395591378212,0.015387478284537792
1751013685335954400,2.484954345703125,0.040763407945632935,0.04830627888441086,0.007534881588071585
1751013685345897500,2.4948974609375,0.03880465403199196,0.04117752984166145,-0.0030056436080485582
1751013685355841300,2.50484130859375,0.03724271059036255,0.037163615226745605,-0.020132165402173996
1751013685365784300,2.514784423828125,0.035295937210321426,0.02702575922012329,-0.03344211354851723
1751013685375728600,2.524728759765625,0.029149096459150314,0.02255750633776188,-0.04818031191825867
1751013685385671400,2.53467138671875,0.02527020312845707,0.028627118095755577,-0.04964371770620346
1751013685395614500,2.544614501953125,0.02389148436486721,0.03106098063290119,-0.04344947263598442
1751013685405558500,2.55455859375,0.020894363522529602,0.033239979296922684,-0.022178804501891136
1751013685415501600,2.56450146484375,0.01865704171359539,0.03051023930311203,0.004218447022140026
1751013685425445600,2.574445556640625,0.017717745155096054,0.02545609138906002,0.025500832125544548
1751013685435388700,2.584388671875,0.01884319633245468,0.01260873582214117,0.039148733019828796
1751013685445332500,2.59433251953125,0.019180351868271828,-0.0023166837636381388,0.03214701637625694
1751013685455275500,2.604275634765625,0.018914569169282913,-0.02514982782304287,-0.0006548712844960392
1751013685465218600,2.614218505859375,0.015924904495477676,-0.05116917937994003,-0.05937837064266205
1751013685475162600,2.62416259765625,0.0071178306825459,-0.04814542457461357,-0.11056113243103027
1751013685485105400,2.63410546875,0.0018913770327344537,-0.031069502234458923,-0.14092622697353363
1751013685495049500,2.644049560546875,0.0006916229031048715,-0.018872223794460297,-0.13413383066654205
1751013685504992500,2.653992431640625,-0.005081044975668192,-0.010248109698295593,-0.10157882422208786
1751013685514936300,2.663936279296875,-0.007391337305307388,0.0030000510159879923,-0.0632743090391159
1751013685524879400,2.67387939453125,-0.007613977417349815,0.023183083161711693,-0.01937662810087204
1751013685534822400,2.683822509765625,0.0026900589000433683,0.028542961925268173,0.011200723238289356
1751013685544766500,2.693766357421875,0.01028832420706749,0.027786890044808388,0.03789518401026726
1751013685554709500,2.70370947265625,0.019964121282100677,0.030107036232948303,0.05275535583496094
1751013685564653300,2.7136533203125,0.028903553262352943,0.028244154527783394,0.04809455946087837
1751013685574596400,2.723596435546875,0.03235527500510216,0.02190716378390789,0.039935965090990067
1751013685584544300,2.733544189453125,0.03656440228223801,0.013032178394496441,0.021201690658926964
1751013685594487300,2.7434873046875,0.03843953460454941,0.022434735670685768,-0.003561711637303233
1751013685604430000,2.75343017578125,0.03394438326358795,0.030826356261968613,-0.028731513768434525
1751013685614374100,2.7633740234375,0.027306722477078438,0.040470194071531296,-0.05104400962591171
1751013685624317200,2.773317138671875,0.02749713882803917,0.043424706906080246,-0.06305433064699173
1751013685634261200,2.78326123046875,0.02225763536989689,0.03942064195871353,-0.0683489665389061
1751013685644204000,2.7932041015625,0.020326577126979828,0.03170706331729889,-0.06013764068484306
1751013685654148000,2.803148193359375,0.018341457471251488,0.023546604439616203,-0.04585377499461174
1751013685664091100,2.813091064453125,0.015490276739001274,0.025069134309887886,-0.028804218396544456
1751013685674034200,2.8230341796875,0.0203420240432024,0.02521427720785141,-0.014317953027784824
1751013685683978000,2.83297802734375,0.015529957599937916,0.02503398060798645,-0.007845140062272549
1751013685693921000,2.842921142578125,0.02046612650156021,0.02388642355799675,-0.004001665860414505
1751013685703865000,2.852864990234375,0.014630608260631561,0.01624794490635395,-0.0075852153822779655
1751013685713808100,2.86280810546875,0.01636113040149212,0.007768707349896431,-0.018336929380893707
1751013685723752000,2.872751953125,0.012588229961693287,0.00213638786226511,-0.03003353253006935
1751013685733695000,2.882695068359375,0.01552463136613369,0.007084807381033897,-0.03664403036236763
1751013685743638000,2.892637939453125,0.013360812328755856,0.019172362983226776,-0.039502400904893875
1751013685753582300,2.902582275390625,0.014751515351235867,0.0297834612429142,-0.031255658715963364
1751013685763525000,2.912525146484375,0.017114538699388504,0.03585094213485718,-0.020797690376639366
1751013685773469200,2.92246923828125,0.015967248007655144,0.03616386279463768,-0.005615541245788336
1751013685783412200,2.932412109375,0.018583005294203758,0.036612074822187424,0.017237309366464615
1751013685793356300,2.942356201171875,0.019405655562877655,0.03726028650999069,0.029734725132584572
1751013685803299000,2.952299072265625,0.02053057588636875,0.034262098371982574,0.03201785311102867
1751013685813242000,2.9622421875,0.019905798137187958,0.03195207566022873,0.028724588453769684
1751013685823186200,2.972186279296875,0.019894080236554146,0.021314077079296112,0.014301707968115807
1751013685833129200,2.982129150390625,0.019405122846364975,0.01619175262749195,0.0014290522085502744
1751013685843073000,2.992072998046875,0.02172793261706829,0.010274475440382957,-0.007667240686714649
1751013685853016000,3.00201611328125,0.019715115427970886,0.007821171544492245,-0.011780226603150368
1751013685862960000,3.011960205078125,0.019155584275722504,0.015408516861498356,-0.013260412029922009
1751013685872903200,3.021903076171875,0.022824356332421303,0.017345434054732323,-0.007723433431237936
1751013685882846200,3.03184619140625,0.022050706669688225,0.01726793684065342,0.00015046859334688634
1751013685892790000,3.0417900390625,0.020748421549797058,0.011003116145730019,0.002040247665718198
1751013685902733000,3.051733154296875,0.017424795776605606,0.008319448679685593,0.0011227887589484453
1751013685912677000,3.061677001953125,0.014896657317876816,0.013009275309741497,-0.007601460441946983
1751013685922620200,3.0716201171875,0.014345383271574974,0.01690601371228695,-0.02076706290245056
1751013685932564000,3.08156396484375,0.020503943786025047,0.016150208190083504,-0.020389428362250328
1751013685942507000,3.091507080078125,0.01287798210978508,0.03430444374680519,-0.028750954195857048
1751013685952450000,3.101449951171875,0.01185213215649128,0.041912294924259186,-0.04062758758664131
1751013685962394000,3.11139404296875,0.00404534162953496,0.026741866022348404,-0.06460482627153397
1751013685972337000,3.1213369140625,-0.0025571673177182674,-0.005302087403833866,-0.09041405469179153
1751013685982281200,3.13128125,-0.011207113973796368,-0.03404451906681061,-0.10617650300264359
1751013685992224300,3.141224365234375,-0.021930333226919174,-0.09880966693162918,-0.10546224564313889
1751013686002168000,3.15116796875,0.005877596326172352,-0.10822207480669022,-0.07055220007896423
1751013686012111000,3.161111083984375,0.04402711242437363,-0.20731617510318756,-0.006704507861286402
1751013686022054100,3.17105419921875,0.04574165493249893,-0.1649889498949051,0.04531102254986763
1751013686031998200,3.180998291015625,0.07481032609939575,-0.11317102611064911,0.0871460884809494
1751013686041941200,3.190941162109375,0.1126682236790657,-0.04219379276037216,0.10024750977754593
1751013686051885000,3.200885009765625,0.1384793221950531,0.020235763862729073,0.08109325170516968
1751013686061828000,3.210828125,0.14352573454380035,0.07184383273124695,0.040293093770742416
1751013686071772200,3.220772216796875,0.14063380658626556,0.09672707319259644,-0.01474512368440628
1751013686081715200,3.230715087890625,0.13532081246376038,0.10900664329528809,-0.06707384437322617
1751013686091658200,3.240658203125,0.12173335999250412,0.0988786444067955,-0.1055152416229248
1751013686101602000,3.25060205078125,0.11316277086734772,0.06337950378656387,-0.11659505218267441
1751013686111545000,3.260545166015625,0.0955909714102745,0.02383049763739109,-0.09716036915779114
1751013686121489200,3.2704892578125,0.03427621349692345,0.013401559554040432,-0.048596564680337906
1751013686131432000,3.280431884765625,-0.02371305227279663,0.006946855690330267,0.017896708101034164
1751013686141376000,3.2903759765625,-0.04011226445436478,0.01119086891412735,0.08819164335727692
1751013686151319000,3.300319091796875,-0.02479030191898346,0.01955745555460453,0.1393003612756729
1751013686161262000,3.310261962890625,-0.0023015039041638374,0.020713267847895622,0.17374329268932343
1751013686171206100,3.3202060546875,0.022764168679714203,0.020174777135252953,0.18833501636981964
1751013686181149000,3.33014892578125,0.0437978133559227,0.021459752693772316,0.18094101548194885
1751013686191093200,3.34009326171875,0.06964592635631561,0.01967756450176239,0.1462874412536621
1751013686201036300,3.350036376953125,0.05877703055739403,0.025170600041747093,0.1020539328455925
1751013686210979300,3.359979248046875,0.01619148626923561,0.0164780430495739,0.05173936113715172
1751013686220923100,3.369923095703125,-0.011188206262886524,-0.006213687360286713,0.0046538738533854485
1751013686230866200,3.3798662109375,-0.010542389005422592,-0.029872411862015724,-0.032769396901130676
1751013686240810200,3.389810302734375,-0.006247509736567736,-0.04734381288290024,-0.05377854406833649
1751013686250753300,3.399753173828125,-0.006139917764812708,-0.056105345487594604,-0.05468881130218506
1751013686260697000,3.409697021484375,-0.006189718842506409,-0.04952627420425415,-0.045878008008003235
1751013686270640000,3.41964013671875,-0.0020178770646452904,-0.03659209981560707,-0.02937040477991104
1751013686280583200,3.429583251953125,0.009132245555520058,-0.02901087887585163,-0.0067726848646998405
1751013686290527200,3.43952734375,0.01817713864147663,-0.03213609755039215,0.007685350254178047
1751013686300470000,3.449469970703125,0.023960726335644722,-0.029636455699801445,0.011660384014248848
1751013686310414000,3.4594140625,0.02257135510444641,-0.033614952117204666,0.013206882402300835
1751013686320357000,3.469357177734375,-0.03916444629430771,-0.010497381910681725,0.011678493581712246
1751013686330301000,3.479301025390625,-0.09194563329219818,0.02990357019007206,0.007446198258548975
1751013686340244000,3.489243896484375,-0.10914566367864609,0.05192657932639122,-0.002275671111419797
1751013686350187000,3.49918701171875,-0.10713790357112885,0.07450272887945175,-0.007223824504762888
1751013686360131000,3.509131103515625,-0.1044907197356224,0.12045104801654816,-0.008084025233983994
1751013686370074000,3.51907421875,-0.08816368132829666,0.10944979637861252,-0.012431635521352291
1751013686380018200,3.52901806640625,-0.06899211555719376,0.047023434191942215,-0.002680471632629633
1751013686389961000,3.5389609375,-0.0336567647755146,-0.011207646690309048,0.01714436523616314
1751013686399905300,3.5489052734375,-0.005243497900664806,-0.03544481098651886,0.05374179035425186
1751013686409848300,3.558848388671875,0.021454159170389175,-0.046190664172172546,0.08012785762548447
1751013686419792100,3.568792236328125,0.025545839220285416,-0.04111308231949806,0.11051718890666962
1751013686429735200,3.578735107421875,0.014255101792514324,-0.0338868610560894,0.12671826779842377
1751013686439678200,3.58867822265625,-0.012575446628034115,-0.030170418322086334,0.12676966190338135
1751013686449622300,3.598622314453125,-0.028378112241625786,-0.0234035924077034,0.11493644118309021
1751013686459565000,3.60856494140625,-0.03741954267024994,-0.024538632482290268,0.09182020276784897
1751013686469509000,3.618509033203125,-0.041424404829740524,-0.03612711280584335,0.0622045174241066
1751013686479452200,3.6284521484375,-0.04014688730239868,-0.0471227690577507,0.02215457148849964
1751013686489395200,3.638395263671875,-0.03473587706685066,-0.03876843303442001,-0.006750580854713917
1751013686499339000,3.648339111328125,-0.025659823790192604,-0.018027469515800476,-0.021761488169431686
1751013686509282000,3.658281982421875,-0.010584467090666294,0.012050537392497063,-0.026864903047680855
1751013686519226000,3.66822607421875,0.004050667863339186,0.040763143450021744,-0.021016068756580353
1751013686529169200,3.678169189453125,0.006968693342059851,0.06472226977348328,-0.007631820626556873
1751013686539113000,3.688113037109375,0.0029963224660605192,0.06945470720529556,0.004566522315144539
1751013686549056000,3.698055908203125,-0.009671535342931747,0.06481654942035675,0.01044411864131689
1751013686558999000,3.7079990234375,-0.024264326319098473,0.062247660011053085,0.013996775262057781
1751013686568943000,3.717943115234375,-0.03573669120669365,0.051426973193883896,0.011875567957758904
1751013686578886100,3.72788623046875,-0.046064428985118866,0.041079793125391006,0.008157795295119286
1751013686588830500,3.73783056640625,-0.050645601004362106,0.03217524662613869,0.0031875374261289835
1751013686598773500,3.7477734375,-0.04525749385356903,0.02653387188911438,-0.002082858234643936
1751013686608717600,3.757717529296875,-0.03551831468939781,0.027938423678278923,-0.0076057217083871365
1751013686618660400,3.767660400390625,-0.025658491998910904,0.02304300107061863,-0.020871460437774658
1751013686628603400,3.777603271484375,-0.02387896738946438,0.018373414874076843,-0.031991489231586456
1751013686638547500,3.78754736328125,-0.02142246812582016,0.013361345045268536,-0.04760267212986946
1751013686648490500,3.797490478515625,-0.019769709557294846,0.01848153956234455,-0.05585181340575218
1751013686658434300,3.807434326171875,-0.021260546520352364,0.018123876303434372,-0.060390640050172806
1751013686668377300,3.81737744140625,-0.02274552546441555,0.00646801944822073,-0.06055202707648277
1751013686678321400,3.8273212890625,-0.02539537101984024,-0.005943909287452698,-0.05510399863123894
1751013686688264400,3.837264404296875,-0.021556956693530083,-0.010120278224349022,-0.04543645679950714
1751013686698207500,3.84720751953125,-0.013003150001168251,-0.0073444657027721405,-0.02882738783955574
1751013686708151300,3.8571513671875,-0.0003275688213761896,0.009379919618368149,-0.013029515743255615
1751013686718094300,3.86709423828125,0.014281467534601688,0.021620607003569603,-0.0003129214164800942
1751013686728038400,3.877038330078125,0.02394687756896019,0.025241706520318985,0.00902758352458477
1751013686737981400,3.8869814453125,0.02605610154569149,0.01733984239399433,0.017119331285357475
1751013686747925200,3.89692529296875,0.02142539620399475,-0.0035332157276570797,0.0060264673084020615
1751013686757868300,3.906868408203125,0.009384446777403355,-0.034633077681064606,-0.000919323181733489
1751013686767811300,3.916811279296875,0.0026754115242511034,-0.05343472957611084,-0.013807691633701324
1751013686777755100,3.926755126953125,-0.0002868224401026964,-0.05825664848089218,-0.021497301757335663
1751013686787698200,3.9366982421875,0.002433330286294222,-0.05794186145067215,-0.023560985922813416
1751013686797642500,3.946642578125,0.010977017693221569,-0.046545930206775665,-0.01702665351331234
1751013686807585500,3.95658544921875,0.018563564866781235,-0.0191316157579422,-0.016052469611167908
1751013686817529300,3.966529296875,0.029280923306941986,0.0008807073463685811,-0.013489710167050362
1751013686827472400,3.976472412109375,0.03644882142543793,0.020547885447740555,-0.012403139844536781
1751013686837415400,3.98641552734375,0.03841210529208183,0.03756175562739372,-0.018556373193860054
1751013686847359500,3.996359375,0.03720249608159065,0.03609062731266022,-0.03531431406736374
1751013686857302500,4.006302490234375,0.030073214322328568,0.022189725190401077,-0.050103913992643356
1751013686867246300,4.016246337890625,0.024561535567045212,0.014422348700463772,-0.05692746490240097
1751013686877189400,4.026189453125,0.027127224951982498,0.007216633763164282,-0.05404166504740715
1751013686887133400,4.036133544921875,0.025111744180321693,-0.0070640346966683865,-0.041790325194597244
1751013686897076500,4.046076416015625,0.028356807306408882,-0.01471476349979639,-0.027729365974664688
1751013686907019300,4.056019287109375,0.02736903913319111,-0.012442022562026978,-0.006294913589954376
1751013686916963300,4.06596337890625,0.03147856518626213,-0.011785020120441914,0.006159359123557806
1751013686926906400,4.07590625,0.03533215820789337,-0.01019617822021246,0.015809856355190277
1751013686936850400,4.085850341796875,0.03410497307777405,-0.003373958868905902,0.015180816873908043
1751013686946793200,4.095793212890625,0.0284646637737751,0.0029254823457449675,0.0073202308267354965
1751013686956737300,4.1057373046875,0.019356120377779007,0.007166566327214241,0.0010351707460358739
1751013686966680300,4.115680419921875,0.008101602084934711,0.011498996987938881,-0.004530036821961403
1751013686976623400,4.125623291015625,0.005643771030008793,0.012514459900557995,-0.009272594004869461
1751013686986567200,4.135567138671875,0.0043931505642831326,0.010671818628907204,-0.012960805557668209
1751013686996510200,4.14551025390625,0.0031055121216923,0.0076360818929970264,-0.01618189923465252
1751013687006454500,4.15545458984375,0.00004420847471919842,0.012780243530869484,-0.023205719888210297
1751013687016397600,4.1653974609375,-0.004793157335370779,0.01954866759479046,-0.023309582844376564
1751013687026341400,4.17534130859375,-0.007792941760271788,0.024931982159614563,-0.01979474350810051
1751013687036284400,4.185284423828125,-0.011167433112859726,0.0279765073210001,-0.01727246306836605
1751013687046227500,4.1952275390625,-0.012089420109987259,0.026803916320204735,-0.00589677132666111
1751013687056171500,4.205171630859375,-0.009226521477103233,0.02768009714782238,0.007565508130937815
1751013687066114300,4.2151142578125,-0.0017353157745674253,0.03158988431096077,0.021887455135583878
1751013687076058400,4.225058349609375,0.003102582646533847,0.037821948528289795,0.03199814632534981
1751013687086001400,4.23500146484375,0.003996073268353939,0.04030641168355942,0.039980437606573105
1751013687095945500,4.244945556640625,0.0037438718136399984,0.03777693957090378,0.035292476415634155
1751013687105888300,4.25488818359375,-0.0075631109066307545,0.03569914028048515,0.018558504059910774
1751013687115831300,4.264831298828125,-0.01968368887901306,0.03894446790218353,0.0006572681595571339
1751013687125775400,4.274775390625,-0.03045590966939926,0.03367993235588074,-0.019997676834464073
1751013687135718400,4.284718505859375,-0.03580726683139801,0.03224156051874161,-0.03671300783753395
1751013687145662200,4.294662109375,-0.03323065862059593,0.024650750681757927,-0.03892742469906807
1751013687155605200,4.304605224609375,-0.02592827007174492,0.014306501485407352,-0.0287054143846035
1751013687165549300,4.31454931640625,-0.014630075544118881,0.007514907978475094,-0.01062281709164381
1751013687175492400,4.324492431640625,-0.00862997304648161,0.0062219430692493916,0.01398585643619299
1751013687185435400,4.334435302734375,-0.004729507956653833,0.009651029482483864,0.03275022283196449
1751013687195379200,4.344379150390625,-0.0052381716668605804,0.01582077518105507,0.04752543941140175
1751013687205322200,4.354322265625,0.0008519452530890703,0.02112552523612976,0.04652435705065727
1751013687215266600,4.3642666015625,-0.004257595632225275,0.03117469698190689,0.042382609099149704
1751013687225209600,4.374209716796875,0.000005592638444795739,0.03453400731086731,0.02587234415113926
1751013687235153400,4.3841533203125,-0.00002370213405811228,0.03459100052714348,0.013134710490703583
1751013687245096400,4.394096435546875,0.012269183062016964,0.03645441308617592,0.008098673075437546
1751013687255039500,4.40403955078125,0.024271517992019653,0.04472539201378822,0.011737615801393986
1751013687264983300,4.4139833984375,0.03995460644364357,0.04680079594254494,0.016199210658669472
1751013687274926300,4.42392626953125,0.049617622047662735,0.04355839639902115,0.016439160332083702
1751013687284870400,4.433870361328125,0.04909457638859749,0.03563256189227104,0.018804846331477165
1751013687294813400,4.4438134765625,0.040704552084207535,0.02202034741640091,0.012676646932959557
1751013687304757200,4.45375732421875,0.029342442750930786,0.011776498518884182,0.003245594445616007
1751013687314700300,4.4637001953125,0.011906727217137814,0.004078897647559643,-0.0030977888964116573
1751013687324643300,4.473643310546875,0.0009558085002936423,0.0008583368035033345,-0.01167183555662632
1751013687334587400,4.48358740234375,-0.006345513742417097,-0.003338538808748126,-0.014969894662499428
1751013687344530400,4.493530517578125,-0.0007001450285315514,0.004832039587199688,-0.015457252971827984
1751013687354474200,4.50347412109375,0.009915747679769993,0.01534859649837017,-0.01612037979066372
1751013687364417300,4.513417236328125,0.01679016463458538,0.024633441120386124,-0.020623253658413887
1751013687374361300,4.523361328125,0.022849921137094498,0.03374864161014557,-0.027005517855286598
1751013687384304400,4.533304443359375,0.014566958881914616,0.04333149641752243,-0.03587943688035011
1751013687394247200,4.5432470703125,0.001443166984245181,0.04026353359222412,-0.045939262956380844
1751013687404191200,4.553191162109375,-0.015720106661319733,0.02075827494263649,-0.053213685750961304
1751013687414134300,4.56313427734375,-0.022462964057922363,-0.00358754419721663,-0.05934508144855499
1751013687424078600,4.57307861328125,-0.027514182031154633,-0.020853349938988686,-0.06386446952819824
1751013687434021400,4.583021484375,-0.02737569808959961,-0.02479216456413269,-0.059536829590797424
1751013687443965400,4.59296533203125,-0.019817380234599113,-0.01781574822962284,-0.05580521002411842
1751013687453908500,4.602908447265625,-0.010000436566770077,-0.013005280867218971,-0.04338342696428299
1751013687463851500,4.6128515625,0.0064925202168524265,-0.004122839774936438,-0.030003439635038376
1751013687473795300,4.62279541015625,0.02118677832186222,-0.00264851376414299,-0.017526796087622643
1751013687483738400,4.63273828125,0.025902703404426575,0.006884004920721054,-0.0075937374494969845
1751013687493682400,4.642682373046875,0.02569551020860672,0.0171467624604702,-0.011938684619963169
1751013687503625500,4.65262548828125,0.01601465232670307,0.02363821677863598,-0.019471170380711555
1751013687513569300,4.6625693359375,0.008024103939533234,0.03280162066221237,-0.02797091379761696
1751013687523512300,4.67251220703125,-0.00042051312630064785,0.03303012251853943,-0.04337596893310547
1751013687533455400,4.682455322265625,-0.005221127066761255,0.0246073417365551,-0.052191831171512604
1751013687543399400,4.6923994140625,-0.014172544702887535,0.015357384458184242,-0.062430087476968765
1751013687553342500,4.702342529296875,-0.01900298520922661,0.004482100252062082,-0.06376007199287415
1751013687563286300,4.712286376953125,-0.015541409142315388,-0.002537193475291133,-0.056840114295482635
1751013687573229300,4.722229248046875,-0.0070888022892177105,-0.0009387642494402826,-0.048659149557352066
1751013687583173400,4.73217333984375,-0.006097573786973953,0.00535455159842968,-0.040887776762247086
1751013687593116200,4.7421162109375,-0.005299424286931753,0.013287309557199478,-0.030951790511608124
1751013687603059200,4.75205908203125,-0.0019433086272329092,0.025467276573181152,-0.027904069051146507
1751013687613003300,4.762003173828125,-0.0012250541476532817,0.03248976543545723,-0.027004186064004898
1751013687622946300,4.7719462890625,0.004877313040196896,0.03978922590613365,-0.024447819218039513
1751013687632890400,4.781890380859375,0.009434514679014683,0.03600300848484039,-0.02466912753880024
1751013687642833400,4.79183349609375,0.017426926642656326,0.02237960696220398,-0.025053154677152634
1751013687652776400,4.8017763671875,0.01768738403916359,0.006976416800171137,-0.026440395042300224
1751013687662720500,4.811720458984375,0.01546257920563221,-0.0010596717474982142,-0.02538578398525715
1751013687672663600,4.82166357421875,0.012942962348461151,-0.008158328011631966,-0.025784725323319435
1751013687682607400,4.831607421875,0.010241186246275902,-0.01067821029573679,-0.025191107764840126
1751013687692550400,4.84155029296875,0.004255198873579502,-0.002883138135075569,-0.020435234531760216
1751013687702494500,4.851494384765625,0.00020160128769930452,0.0026490462478250265,-0.01919926144182682
1751013687712437500,4.8614375,-0.0020964404102414846,0.016878582537174225,-0.014634336344897747
1751013687722380300,4.87138037109375,-0.006640592124313116,0.02755279839038849,-0.010039318352937698
1751013687732324400,4.881324462890625,-0.009314672090113163,0.03814658522605896,-0.006426207721233368
1751013687742267400,4.891267333984375,-0.009403089061379433,0.040836647152900696,-0.0022916500456631184
1751013687752211500,4.90121142578125,-0.012323778122663498,0.039086148142814636,-0.005298358853906393
1751013687762154200,4.911154296875,-0.014985607005655766,0.029323799535632133,-0.008610798977315426
1751013687772098300,4.921098388671875,-0.015177088789641857,0.0225034449249506,-0.016021311283111572
1751013687782041300,4.931041259765625,-0.01907995156943798,0.015903599560260773,-0.021736986935138702
1751013687791985200,4.940985107421875,-0.021041369065642357,0.018668226897716522,-0.01829778030514717
1751013687801928200,4.95092822265625,-0.01992177590727806,0.024100808426737785,-0.014719557948410511
1751013687811871200,4.960871337890625,-0.012269715778529644,0.02678074687719345,-0.012211126275360584
1751013687821815300,4.970815185546875,-0.01059112511575222,0.02599751204252243,-0.009898437187075615
1751013687831758300,4.98075830078125,-0.009676596149802208,0.023637153208255768,-0.012263324111700058
1751013687841702400,4.990702392578125,-0.012804212048649788,0.018742794170975685,-0.019062373787164688
1751013687851645400,5.0006455078125,-0.01200792659074068,0.019181683659553528,-0.02347203716635704
1751013687861588500,5.01058837890625,-0.013341105543076992,0.02154337428510189,-0.023504793643951416
1751013687871532500,5.020532470703125,-0.009346097707748413,0.02238786406815052,-0.029436718672513962
1751013687881475300,5.030475341796875,-0.01691080629825592,0.019655726850032806,-0.035000063478946686
1751013687891419400,5.04041943359375,-0.015320632606744766,0.02131061442196369,-0.03232891112565994
1751013687901362400,5.050362548828125,-0.0083071980625391,0.025423867627978325,-0.024771658703684807
1751013687911306500,5.060306396484375,-0.007127950433641672,0.02683507651090622,-0.013882526196539402
1751013687921249300,5.070249267578125,-0.0014088122406974435,0.025294970721006393,-0.013011406175792217
1751013687931192300,5.0801923828125,0.007480819243937731,0.026010828092694283,-0.006428870838135481
1751013687941136400,5.090136474609375,0.006899185013025999,0.03658890351653099,-0.0017566210590302944
1751013687951079400,5.100079345703125,0.0006093312404118478,0.03819745406508446,-0.004196875728666782
1751013687961023200,5.110023193359375,-0.0026668894570320845,0.037278130650520325,-0.0018855180824175477
1751013687970966300,5.11996630859375,-0.0018738001817837358,0.042759448289871216,-0.002368881832808256
1751013687980910300,5.129910400390625,0.003943342715501785,0.04530170187354088,-0.001086037140339613
1751013687990853400,5.139853271484375,0.01709589548408985,0.04814941808581352,-0.0035079156514257193
1751013688000796400,5.14979638671875,0.02653254196047783,0.05100672319531441,-0.00307675008662045
1751013688010740200,5.159740234375,0.025102956220507622,0.0557817742228508,-0.006299707572907209
1751013688020683300,5.169683349609375,0.018191786482930183,0.054133541882038116,-0.006640059407800436
1751013688030627600,5.179627685546875,0.011212174780666828,0.037213414907455444,-0.01101696491241455
1751013688040570400,5.1895703125,0.00529489666223526,0.01744663529098034,-0.014199175871908665
1751013688050514400,5.199514404296875,-0.0008695221040397882,-0.003114833263680339,-0.018450113013386726
1751013688060457500,5.20945751953125,-0.005139101762324572,-0.005216333549469709,-0.019653595983982086
1751013688070400500,5.219400390625,-0.017711352556943893,0.0024642229545861483,-0.022584138438105583
1751013688080344300,5.22934423828125,-0.02935629151761532,0.020354539155960083,-0.023059247061610222
1751013688090287400,5.239287353515625,-0.03543176129460335,0.038777224719524384,-0.02009647898375988
1751013688100231400,5.2492314453125,-0.039268042892217636,0.054313305765390396,-0.02111726999282837
1751013688110174500,5.259174560546875,-0.03746747970581055,0.05199582129716873,-0.020184630528092384
1751013688120118300,5.2691181640625,-0.0404914990067482,0.03670501708984375,-0.022004634141921997
1751013688130061300,5.279061279296875,-0.039675239473581314,0.015356585383415222,-0.015717975795269012
1751013688140004400,5.28900439453125,-0.040948230773210526,0.0027305390685796738,-0.010447581298649311
1751013688149948400,5.298948486328125,-0.040226247161626816,-0.001318264752626419,-0.003040797309949994
1751013688159891500,5.308891357421875,-0.03308524936437607,-0.0035896748304367065,-0.0006620618514716625
1751013688169835300,5.318835205078125,-0.019567841663956642,-0.0009768474847078323,0.0016588830621913075
1751013688179778300,5.3287783203125,-0.004421379882842302,0.011005779728293419,-0.0030983216129243374
1751013688189722400,5.338722412109375,0.004625111818313599,0.03663630783557892,-0.004625111818313599
1751013688199665400,5.34866552734375,0.0103181516751647,0.05511598289012909,-0.015596004202961922
1751013688209608200,5.358608154296875,0.010393518954515457,0.06620512157678604,-0.01992284134030342
1751013688219552300,5.36855224609375,0.006454969756305218,0.06215924397110939,-0.02346298098564148
1751013688229495300,5.378495361328125,0.006530603393912315,0.054482415318489075,-0.031561121344566345
1751013688239439400,5.388439453125,0.005795038305222988,0.037450700998306274,-0.0284646637737751
1751013688249382100,5.398382080078125,0.0016796556301414967,0.020242154598236084,-0.025357021018862724
1751013688259326500,5.408326416015625,-0.001876995898783207,0.004738562274724245,-0.018611501902341843
1751013688269269500,5.41826953125,-0.0029116340447217226,0.0011771172285079956,-0.019530026242136955
1751013688279212500,5.428212646484375,-0.008928514085710049,0.009228119626641273,-0.022534070536494255
1751013688289156400,5.43815625,-0.004816060420125723,0.017162209376692772,-0.029023928567767143
1751013688299099400,5.448099365234375,-0.002046639332547784,0.024505343288183212,-0.03494440019130707
1751013688309043500,5.45804345703125,0.006430734880268574,0.02599591389298439,-0.05044453218579292
1751013688318986500,5.467986572265625,0.008686166256666183,0.029095035046339035,-0.05311435088515282
1751013688328930300,5.477930419921875,0.01272698026150465,0.034814439713954926,-0.054308511316776276
1751013688338873300,5.487873291015625,0.018157698214054108,0.04553685709834099,-0.05145014077425003
1751013688348816400,5.49781640625,0.013738182373344898,0.05146638676524162,-0.0441133975982666
1751013688358760400,5.507760498046875,0.00803262647241354,0.0473099909722805,-0.035705000162124634
1751013688368703500,5.517703369140625,0.004160390235483646,0.04620691016316414,-0.02383103035390377
1751013688378647300,5.527647216796875,0.004320180043578148,0.041436657309532166,-0.011924304068088531
1751013688388590300,5.53759033203125,0.011901932768523693,0.03428526967763901,-0.005483182147145271
1751013688398534400,5.547534423828125,0.020169982686638832,0.030833279713988304,-0.00041438787593506277
1751013688408477200,5.557477294921875,0.0191918034106493,0.03134220838546753,0.0043990095146000385
1751013688418420200,5.567420166015625,0.011027883738279343,0.03416835516691208,-0.0006000102148391306
1751013688428364300,5.5773642578125,-0.003507116809487343,0.03795536980032921,-0.00996448379009962
1751013688438307300,5.587307373046875,-0.013706224970519543,0.042512305080890656,-0.014272945001721382
1751013688448251400,5.59725146484375,-0.006599313113838434,0.043960798531770706,-0.01780376397073269
1751013688458194200,5.607194091796875,0.006175604183226824,0.043593548238277435,-0.022840600460767746
1751013688468138500,5.617138427734375,0.024046214297413826,0.04707536846399307,-0.02009301818907261
1751013688478081500,5.62708154296875,0.03045111708343029,0.0477781742811203,-0.01528920792043209
1751013688488024600,5.637024658203125,0.03140346333384514,0.03742273896932602,-0.015267635695636272
1751013688497968400,5.646968505859375,0.02052631415426731,0.021407287567853928,-0.013891314156353474
1751013688507911400,5.656911376953125,0.00905341561883688,0.016335563734173775,-0.010636133141815662
1751013688517855500,5.66685546875,0.0014796522445976734,0.009340238757431507,-0.009040899574756622
1751013688527798500,5.676798583984375,-0.0029142971616238356,0.004579039290547371,-0.005795038305222988
1751013688537742300,5.686742431640625,0.006449909880757332,0.009160208515822887,-0.009408148936927319
1751013688547685400,5.696685302734375,0.014185327105224133,0.01980379782617092,-0.019047461450099945
1751013688557628400,5.70662841796875,0.016395218670368195,0.025791384279727936,-0.027285683900117874
1751013688567572500,5.716572509765625,0.016690563410520554,0.027546405792236328,-0.0420670248568058
1751013688577515300,5.726515380859375,0.00788695178925991,0.010973022319376469,-0.05287200212478638
1751013688587456800,5.736456787109375,0.0027057717088609934,0.0017869811272248626,-0.05735037475824356
1751013688597399800,5.74639990234375,0.002299373270943761,-0.0019371833186596632,-0.045473210513591766
1751013688607342800,5.7563427734375,0.014124074950814247,-0.007592139765620232,-0.02798076719045639
1751013688617286700,5.76628662109375,0.028415396809577942,-0.002365153282880783,-0.008086688816547394
1751013688627229700,5.776229736328125,0.041247304528951645,0.01890631392598152,0.01287531852722168
1751013688637173800,5.786173828125,0.04556455463171005,0.038829952478408813,0.02652987837791443
1751013688647116500,5.796116455078125,0.04006805643439293,0.03393319994211197,0.02225763536989689
1751013688657060600,5.806060546875,0.02630111202597618,0.016056997701525688,0.002805906580761075
1751013688667003600,5.816003662109375,0.015362444333732128,0.0002511360798962414,-0.019885556772351265
1751013688676946700,5.82594677734375,0.008611331693828106,-0.007705856580287218,-0.038300249725580215
1751013688686890500,5.835890380859375,0.009996707551181316,-0.008268049918115139,-0.05230501666665077
1751013688696833500,5.84583349609375,0.012601279653608799,0.004132693167775869,-0.05499560758471489
1751013688706777600,5.855777587890625,0.03122742846608162,0.018981147557497025,-0.046486008912324905
1751013688716720600,5.865720703125,0.04480874910950661,0.03165752813220024,-0.03151851147413254
1751013688726664400,5.87566455078125,0.06216350570321083,0.03556385263800621,-0.01104519423097372
1751013688736607500,5.885607421875,0.06770315021276474,0.033737458288669586,0.011753861792385578
1751013688746550500,5.895550537109375,0.06355420500040054,0.02213406376540661,0.02310878038406372
1751013688756494600,5.90549462890625,0.053527139127254486,0.00833755824714899,0.031094802543520927
1751013688766437600,5.915437744140625,0.03924300894141197,-0.004733502399176359,0.026617495343089104
1751013688776381700,5.925381591796875,0.033795248717069626,-0.017788052558898926,0.018022943288087845
1751013688786324700,5.93532470703125,0.03187377750873566,-0.01828526332974434,0.00466532539576292
1751013688796268800,5.945268798828125,0.03624109551310539,-0.010152236558496952,-0.013524064794182777
1751013688806211600,5.955211669921875,0.037637922912836075,0.0078584561124444,-0.02688674069941044
1751013688816154600,5.965154541015625,0.03917456790804863,0.024774588644504547,-0.03574414923787117
1751013688826098700,5.9750986328125,0.038908250629901886,0.04160230606794357,-0.03473347797989845
1751013688836041700,5.985041748046875,0.04523618891835213,0.04769854620099068,-0.0229354090988636
1751013688845985500,5.994985595703125,0.044675059616565704,0.03995087742805481,-0.005846970248967409
1751013688855928600,6.004928466796875,0.037165213376283646,0.015046860091388226,0.010059026069939137
1751013688865872600,6.01487255859375,0.03394119068980217,-0.009404687210917473,0.02346830815076828
1751013688875815700,6.024815673828125,0.022651515901088715,-0.018789399415254593,0.030048713088035583
1751013688885758700,6.0347587890625,0.007845939137041569,-0.01805037260055542,0.02599005587399006
1751013688895702500,6.04470263671875,-0.0016247945604845881,-0.015604792162775993,0.01410782989114523
1751013688905645600,6.0546455078125,-0.0032645028550177813,-0.004060521721839905,0.0010250506456941366
1751013688915589600,6.064589599609375,0.002058889716863632,0.02160569280385971,-0.00920415110886097
1751013688925532700,6.07453271484375,0.012174374423921108,0.04062412679195404,-0.020395552739501
1751013688935476500,6.0844765625,0.019666379317641258,0.04928232729434967,-0.019512448459863663
1751013688945419500,6.09441943359375,0.016530772671103477,0.049905773252248764,-0.022040586918592453
1751013688955362600,6.104362548828125,0.0028067054226994514,0.028560804203152657,-0.01383938267827034
1751013688965306600,6.114306640625,-0.004079164005815983,0.005796902813017368,-0.0015049523208290339
1751013688975249400,6.12424951171875,-0.012378105893731117,-0.01458959560841322,0.011172226630151272
1751013688985193700,6.13419384765625,-0.02075694315135479,-0.02990436926484108,0.01992630399763584
1751013688995136800,6.14413671875,-0.02088211290538311,-0.03008839301764965,0.02021179534494877
1751013689005080600,6.15408056640625,-0.018622154369950294,-0.01888820342719555,0.01501303818076849
1751013689015023600,6.164023681640625,-0.01438213512301445,-0.00017337177996523678,0.01005050353705883
1751013689024966700,6.173966552734375,-0.012411928735673428,0.02141501009464264,-0.0038948729634284973
1751013689034910700,6.18391064453125,-0.005146026145666838,0.04039642587304115,-0.015674833208322525
1751013689044853800,6.193853759765625,-0.0038488004356622696,0.04987115412950516,-0.028915803879499435
1751013689054797600,6.203797607421875,-0.002490854589268565,0.05083122104406357,-0.03158775344491005
1751013689064740600,6.21374072265625,0.0006538060260936618,0.04500102996826172,-0.02991502173244953
1751013689074684700,6.2236845703125,0.002782204421237111,0.02888491190969944,-0.017838384956121445
1751013689084627700,6.233627685546875,0.0018319884547963738,0.015050588175654411,-0.0013888385146856308
1751013689094570800,6.24357080078125,0.004009122494608164,0.007340204436331987,0.0169661995023489
1751013689104514600,6.2535146484375,0.004070375580340624,0.0010713896481320262,0.028912873938679695
1751013689114457600,6.26345751953125,0.00697987899184227,-0.0009134642314165831,0.027820711955428123
1751013689124401700,6.273401611328125,0.009016131982207298,0.003644269658252597,0.02610936388373375
1751013689134344700,6.2833447265625,0.01607084460556507,0.011847072280943394,0.006441920530050993
1751013689144288500,6.29328857421875,0.01751081645488739,0.018989136442542076,-0.004150802735239267
1751013689154231600,6.3032314453125,0.013917679898440838,0.03430311381816864,-0.012397547252476215
1751013689164174600,6.313174560546875,0.0048946235328912735,0.032892171293497086,-0.02443130686879158
1751013689174118400,6.323118408203125,-0.005452289711683989,0.013931527733802795,-0.03290681540966034
1751013689184061400,6.3330615234375,-0.013375460170209408,-0.007753527257591486,-0.03780783340334892
1751013689194005800,6.343005859375,-0.019715381786227226,-0.020550549030303955,-0.02900049276649952
1751013689203948800,6.35294873046875,-0.01791961118578911,-0.014108361676335335,-0.015236743725836277
1751013689213892600,6.362892578125,-0.009979397058486938,0.003254382871091366,-0.001189900329336524
1751013689223835600,6.372835693359375,0.0005970807396806777,0.030758976936340332,0.01824158802628517
1751013689233778700,6.38277880859375,0.004008590243756771,0.049982208758592606,0.022485334426164627
1751013689243722800,6.39272265625,0.006954845041036606,0.06157334893941879,0.020721523091197014
1751013689253665800,6.402665771484375,0.006415288895368576,0.053472813218832016,0.006085056811571121
1751013689263609600,6.412609619140625,0.0011078750248998404,0.028918467462062836,-0.017899638041853905
1751013689273552600,6.422552734375,-0.011708054691553116,0.00435986090451479,-0.03225221112370491
1751013689283495700,6.43249560546875,-0.022904517129063606,-0.015425828285515308,-0.04604685306549072
1751013689293439700,6.442439697265625,-0.028840435668826103,-0.0141152860596776,-0.04983759671449661
1751013689303382500,6.452382568359375,-0.02774694189429283,-0.0005387574783526361,-0.04369208589196205
1751013689313326600,6.46232666015625,-0.02124590054154396,0.024811606854200363,-0.028686771169304848
1751013689323269600,6.47226953125,-0.005286374595016241,0.03942596912384033,-0.014079599641263485
1751013689333213400,6.48221337890625,0.01452914159744978,0.05349225178360939,-0.001999767730012536
1751013689343156500,6.492156494140625,0.02634558640420437,0.05371915549039841,0.01056076493114233
1751013689353099500,6.502099609375,0.030581876635551453,0.049256760627031326,0.018398182466626167
1751013689363043600,6.512043701171875,0.028082234784960747,0.03427940979599953,0.022123677656054497
1751013689372986600,6.521986572265625,0.023269636556506157,0.013617008924484253,0.020498616620898247
1751013689382930400,6.531930419921875,0.022589465603232384,-0.005392102058976889,0.008464857004582882
1751013689392873500,6.54187353515625,0.019342804327607155,-0.017895909026265144,0.0013622068800032139
1751013689402817800,6.55181787109375,0.0187824759632349,-0.024530377238988876,-0.00890694186091423
1751013689412760800,6.5617607421875,0.022230204194784164,-0.011896073818206787,-0.016884174197912216
1751013689422703600,6.57170361328125,0.02821858786046505,0.0030573089607059956,-0.026187662035226822
1751013689432647700,6.581647705078125,0.030461236834526062,0.02576421946287155,-0.03286420553922653
1751013689442590700,6.5915908203125,0.025292839854955673,0.04310033097863197,-0.03110172599554062
1751013689452534800,6.60153466796875,0.022702915593981743,0.053882937878370285,-0.027248665690422058
1751013689462477600,6.6114775390625,0.01420583389699459,0.04529744014143944,-0.02185150235891342
1751013689472421600,6.621421630859375,0.007761250250041485,0.023482689633965492,-0.011785020120441914
1751013689482364700,6.63136474609375,0.0046727824956178665,0.0025063008069992065,-0.010567955672740936
1751013689492307700,6.6413076171875,0.006508499383926392,-0.01074079517275095,-0.006398510653525591
1751013689502251500,6.65125146484375,-0.0021174794528633356,-0.009407083503901958,-0.008463792502880096
1751013689512194600,6.661194580078125,-0.008795888163149357,0.0014780544443055987,-0.012824452482163906
1751013689522138600,6.671138671875,-0.02359081245958805,0.011808988638222218,-0.025859827175736427
1751013689532081700,6.68108154296875,-0.03184874355792999,0.023239009082317352,-0.045092642307281494
1751013689542025500,6.691025390625,-0.033015474677085876,0.028085963800549507,-0.059067316353321075
1751013689551968500,6.700968505859375,-0.028895564377307892,0.03111557476222515,-0.07435546070337296
1751013689561911600,6.71091162109375,-0.01750096306204796,0.02274446003139019,-0.0853351354598999
1751013689571855600,6.720855712890625,-0.004715925548225641,0.006131928414106369,-0.07728706300258636
1751013689581798700,6.730798583984375,0.00024980452144518495,-0.0029670277144759893,-0.06252063810825348
1751013689591741700,6.74074169921875,0.0022069616243243217,-0.0033782199025154114,-0.037277329713106155
1751013689601684700,6.750684814453125,-0.0007821703911758959,0.00276116537861526,-0.016044480726122856
1751013689611629000,6.760629150390625,0.001970472978428006,0.010661166161298752,0.00205223192460835
1751013689621572000,6.770572021484375,0.007162571884691715,0.02243952825665474,0.00794580765068531
1751013689631515100,6.78051513671875,0.016149941831827164,0.024639299139380455,0.0028061727061867714
1751013689641459000,6.790458984375,0.01660667359828949,0.027113908901810646,-0.01173495315015316
1751013689651402000,6.800402099609375,0.01338717807084322,0.024710671976208687,-0.03062049299478531
1751013689661346000,6.810345947265625,0.00618066405877471,0.03014272265136242,-0.03957057744264603
1751013689671289000,6.8202890625,0.0066650933586061,0.027954403311014175,-0.04113784804940224
1751013689681233000,6.83023291015625,0.01011202298104763,0.02641536109149456,-0.038771096616983414
1751013689691176000,6.840176025390625,0.019998742267489433,0.022072546184062958,-0.03145619481801987
1751013689701119000,6.850118896484375,0.020981980487704277,0.0176375824958086,-0.021707160398364067
1751013689711062800,6.860062744140625,0.026075541973114014,0.009828396141529083,-0.011924037709832191
1751013689721005800,6.870005859375,0.014599182642996311,0.005372927524149418,-0.00774686923250556
1751013689730950000,6.879949951171875,0.011918445117771626,0.005225121974945068,-0.006156163290143013
1751013689740893000,6.889892822265625,0.01185133308172226,0.00646642129868269,-0.007161506451666355
1751013689750836700,6.899836669921875,0.015860721468925476,0.01564047858119011,-0.005997971165925264
1751013689760779800,6.90977978515625,0.014027668163180351,0.03620487451553345,-0.005117530468851328
1751013689770722800,6.919722900390625,0.00947739090770483,0.06003830209374428,-0.009139969013631344
1751013689780667000,6.9296669921875,0.004700745455920696,0.07166726142168045,-0.012736834585666656
1751013689790610000,6.93960986328125,0.010637996718287468,0.0765211433172226,-0.012434032745659351
1751013689800553700,6.9495537109375,0.015540876425802708,0.08822626620531082,-0.015108378604054451
1751013689810496800,6.959496826171875,0.03461576625704765,0.09481652081012726,-0.018622420728206635
1751013689820441000,6.969441162109375,0.045584261417388916,0.09096745401620865,-0.019391274079680443
1751013689830384000,6.979384033203125,0.043306462466716766,0.07435598969459534,-0.025005483999848366
1751013689840327000,6.989326904296875,0.03242558240890503,0.06688661873340607,-0.0352458730340004
1751013689850271000,6.99927099609375,0.025163942947983742,0.05547444522380829,-0.044851094484329224
1751013689860214000,7.009214111328125,0.0173246618360281,0.04042838141322136,-0.05818367749452591
1751013689870158000,7.019157958984375,0.018373148515820503,0.03736121952533722,-0.07170667499303818
1751013689880100900,7.029100830078125,0.026150910183787346,0.0368320494890213,-0.08507707715034485
1751013689890044000,7.0390439453125,0.030900124460458755,0.032453812658786774,-0.08853599429130554
1751013689899988000,7.048988037109375,0.03051663003861904,0.020536700263619423,-0.09024600684642792
1751013689909931000,7.058930908203125,0.03442827984690666,0.013731790706515312,-0.08499052375555038
1751013689919874800,7.068874755859375,0.03819558769464493,0.011041199788451195,-0.07664044946432114
1751013689929817900,7.07881787109375,0.03792501240968704,-0.0000125168571685208,-0.0676613375544548
1751013689939762000,7.088761962890625,0.031211182475090027,-0.01002280693501234,-0.06493958830833435
1751013689949705000,7.098705078125,0.030000776052474976,-0.012055330909788609,-0.0661502555012703
1751013689959648800,7.108648681640625,0.030229806900024414,-0.021619275212287903,-0.06585650891065598
1751013689969591800,7.118591796875,0.033008817583322525,-0.029162146151065826,-0.06875722855329514
1751013689979534800,7.128534912109375,0.028596224263310432,-0.03142956271767616,-0.07679011672735214
1751013689989479000,7.13847900390625,0.024102939292788506,-0.02965749427676201,-0.08022958785295486
1751013689999422000,7.148421875,0.014030331745743752,-0.02833416871726513,-0.08083972334861755
1751013690009365800,7.15836572265625,0.010013751685619354,-0.024463796988129616,-0.08082614094018936
1751013690019308800,7.168308837890625,0.0004338289436418563,-0.012797021307051182,-0.07962825149297714
1751013690029253000,7.178253173828125,0.003706587478518486,0.005833387840539217,-0.08097421377897263
1751013690039196000,7.18819580078125,-0.00018722022650763392,0.023329824209213257,-0.08024264127016068
1751013690049139000,7.198138916015625,-0.01050110999494791,0.02034868113696575,-0.08303789794445038
1751013690059083000,7.2080830078125,-0.01931537501513958,0.014616759493947029,-0.08113027364015579
1751013690069026000,7.218026123046875,-0.022491993382573128,-0.008421714417636395,-0.07806257903575897
1751013690078969900,7.227969970703125,-0.01739576831459999,-0.0340740792453289,-0.06806187331676483
1751013690088913000,7.237912841796875,-0.01187823060899973,-0.04801999032497406,-0.05074573680758476
1751013690098856000,7.24785595703125,-0.007564176339656115,-0.04665325582027435,-0.03766854852437973
1751013690108800000,7.257800048828125,-0.00765818590298295,-0.030073480680584908,-0.026313096284866333
1751013690118743000,7.267742919921875,-0.006480802316218615,-0.0052136704325675964,-0.018820559605956078
1751013690128686800,7.277686767578125,0.002377670258283615,0.022653114050626755,-0.014899320900440216
1751013690138630000,7.2876298828125,0.007652593310922384,0.03668557479977608,-0.017957162111997604
1751013690148574000,7.297573974609375,0.017116935923695564,0.037694916129112244,-0.02081819623708725
1751013690158517000,7.30751708984375,0.026010561734437943,0.038789473474025726,-0.01498374342918396
1751013690168459800,7.317459716796875,0.034925494343042374,0.04368303343653679,0.0044469465501606464
1751013690178403800,7.32740380859375,0.04309660568833351,0.03646506741642952,0.020771590992808342
1751013690188347000,7.337346923828125,0.04855102300643921,0.030301712453365326,0.04156928136944771
1751013690198291000,7.347291015625,0.05061044543981552,0.030282538384199142,0.055321045219898224
1751013690208233700,7.357233642578125,0.04309394210577011,0.03247138857841492,0.0633092001080513
1751013690218177800,7.367177734375,0.0383167639374733,0.033243972808122635,0.0669872909784317
1751013690228120800,7.377120849609375,0.027641214430332184,0.033483389765024185,0.05668671429157257
1751013690238063900,7.38706396484375,0.01930924877524376,0.030497189611196518,0.048409875482320786
1751013690248008000,7.397008056640625,0.018679944798350334,0.02610723488032818,0.03512629494071007
1751013690257951000,7.406950927734375,0.01625780016183853,0.021683724597096443,0.020006464794278145
1751013690267895000,7.41689501953125,0.011198858730494976,0.01757446676492691,0.014562697149813175
1751013690277838000,7.426838134765625,0.01696486957371235,0.021677331998944283,0.011346397921442986
1751013690287782000,7.436781982421875,0.021393971517682076,0.021268803626298904,0.02130342461168766
1751013690297725000,7.446724853515625,0.027965055778622627,0.028862541541457176,0.024949025362730026
1751013690307668000,7.45666796875,0.02941647730767727,0.01654036156833172,0.03527143597602844
1751013690317612000,7.466612060546875,0.029463615268468857,0.0006628608098253608,0.04162067919969559
1751013690327554800,7.476554931640625,0.03140879049897194,-0.014870026148855686,0.04876274615526199
1751013690337499000,7.486498779296875,0.029648439958691597,-0.014023141004145145,0.049379535019397736
1751013690347442000,7.49644189453125,0.021992916241288185,-0.01293550617992878,0.045943789184093475
1751013690357386000,7.506385986328125,0.009557552635669708,-0.01121883187443018,0.03752527013421059
1751013690367328800,7.516328857421875,-0.00008974852971732616,-0.009699765592813492,0.02209172025322914
1751013690377271800,7.526271728515625,0.003777960315346718,-0.0023606258910149336,0.006650978233665228
1751013690387216000,7.5362158203125,0.008334362879395485,0.009207346476614475,-0.0016708672046661377
1751013690397159000,7.546158935546875,0.018088722601532936,0.029528331011533737,-0.005095692351460457
1751013690407102700,7.556102783203125,0.02901540696620941,0.04343349486589432,-0.00034727618913166225
1751013690417045800,7.566045654296875,0.0345182940363884,0.048777658492326736,0.0072943982668221
1751013690426989800,7.57598974609375,0.02912619337439537,0.02744920179247856,0.01050430629402399
1751013690436932900,7.585932861328125,0.016595222055912018,-0.0013523531379178166,0.011262774467468262
1751013690446876000,7.5958759765625,0.003394198836758733,-0.03220134600996971,0.005499694030731916
1751013690456820000,7.605820068359375,-0.012505405582487583,-0.05102483555674553,-0.0029760824982076883
1751013690466763000,7.615762939453125,-0.021872010082006454,-0.05704890564084053,-0.013202087953686714
1751013690476707000,7.62570703125,-0.01937476359307766,-0.04138845205307007,-0.024655278772115707
1751013690486650000,7.635650146484375,-0.0023928501177579165,-0.012792227789759636,-0.030421821400523186
1751013690496593000,7.645593017578125,0.019407253712415695,0.008326905779540539,-0.028612203896045685
1751013690506537000,7.655536865234375,0.0421365350484848,0.018793394789099693,-0.02653307281434536
1751013690516480000,7.66547998046875,0.05769392102956772,0.016224242746829987,-0.020292222499847412
1751013690526423800,7.675423828125,0.06942114979028702,0.012412727810442448,-0.007187871728092432
1751013690536366800,7.685366943359375,0.06719448417425156,-0.002174204681068659,0.005351355765014887
1751013690546311000,7.695310791015625,0.04589105769991875,-0.01619867794215679,0.011933891102671623
1751013690556254000,7.70525390625,0.01973082683980465,-0.022767895832657814,0.0200424175709486
1751013690566197000,7.715197021484375,-0.010852381587028503,-0.06703975051641464,0.0258646197617054
1751013690576140800,7.725140869140625,-0.02610643580555916,-0.04838830605149269,0.021758291870355606
1751013690586087400,7.73508740234375,-0.03202477842569351,-0.027891552075743675,0.005086637567728758
1751013690596031500,7.745031494140625,-0.029028454795479774,-0.03152676671743393,-0.02039794996380806
1751013690605974500,7.754974609375,-0.012204201892018318,-0.01836036518216133,-0.03239043056964874
1751013690615918600,7.764918701171875,-0.002380067016929388,0.020893298089504242,-0.037884000688791275
1751013690625861600,7.774861572265625,0.0020330571569502354,0.04163532704114914,-0.04024782031774521
1751013690635804700,7.7848046875,0.010312292724847794,0.03670208901166916,-0.039314381778240204
1751013690645748700,7.794748779296875,0.016992032527923584,0.02353595197200775,-0.027110978960990906
1751013690655691500,7.80469140625,0.020244551822543144,0.0015094797126948833,-0.013342437334358692
1751013690665635600,7.814635498046875,0.012182097882032394,-0.018981147557497025,-0.001907089608721435
1751013690675578600,7.82457861328125,0.006016613449901342,-0.032579779624938965,0.006650712341070175
1751013690685522400,7.8345224609375,-0.00046871634549461305,-0.04165982827544212,0.0075729647651314735
1751013690695465500,7.844465576171875,-0.011048922315239906,-0.028296086937189102,0.005060805007815361
1751013690705408500,7.854408447265625,-0.017676198855042458,-0.009341570548713207,-0.00427117757499218
1751013690715352600,7.8643525390625,-0.019662383943796158,0.011656655929982662,-0.009134909138083458
1751013690725295600,7.874295654296875,-0.018609903752803802,0.02166854403913021,-0.013492639176547527
1751013690735239400,7.884239501953125,-0.012087289243936539,0.023999609053134918,-0.015744075179100037
1751013690745182500,7.894182373046875,-0.003564641112461686,0.02804788015782833,-0.013715012930333614
1751013690755126500,7.90412646484375,-0.00015472965606022626,0.020603012293577194,-0.014550446532666683
1751013690765069600,7.914069580078125,0.0004724447790067643,0.009812949225306511,-0.009638246148824692
1751013690775012600,7.9240126953125,-0.004188087303191423,0.0002972087822854519,-0.001734516816213727
1751013690784956400,7.933956298828125,-0.01571531407535076,-0.004792358260601759,0.006651777308434248
1751013690794899500,7.9438994140625,-0.024933844804763794,-0.00421365350484848,0.01191072165966034
1751013690804843500,7.953843505859375,-0.03333265706896782,-0.00729493098333478,0.021082382649183273
1751013690814786600,7.96378662109375,-0.03229881823062897,-0.008531436324119568,0.025767948478460312
1751013690824730600,7.973730712890625,-0.022526614367961884,0.010001501068472862,0.029286250472068787
1751013690834673700,7.983673583984375,-0.00950908288359642,0.028191691264510155,0.02863324247300625
1751013690844616700,7.99361669921875,0.0019033611752092838,0.04465482011437416,0.030494526028633118
1751013690854560500,8.003560546875,0.008045143447816372,0.058945342898368835,0.024403076618909836
1751013690864503600,8.013503662109375,0.016516126692295074,0.06775055080652237,0.02496740221977234
1751013690874447600,8.023447509765624,0.017429057508707047,0.06286071985960007,0.03009158931672573
1751013690884390700,8.033390625,0.022485867142677307,0.042386338114738464,0.039809197187423706
1751013690894333700,8.043333740234376,0.0247905682772398,0.014885205775499344,0.04771106317639351
1751013690904277500,8.053277587890625,0.018151573836803436,-0.005394499283283949,0.05462835729122162
1751013690914220500,8.063220458984375,0.013354155234992504,-0.018816297873854637,0.06198587268590927
1751013690924164600,8.07316455078125,0.003364637726917863,-0.01672731526196003,0.06246817111968994
1751013690934107600,8.083107666015625,-0.004861867055296898,-0.010457701049745083,0.05396150052547455
1751013690944051500,8.093051513671876,-0.013217268511652946,0.0016218650853261352,0.039496809244155884
1751013690953994500,8.102994384765625,-0.024564731866121292,0.017613880336284637,0.0193683709949255
1751013690963938600,8.1129384765625,-0.032231174409389496,0.02370985597372055,-0.0019976370967924595
1751013690973881600,8.122881591796874,-0.03454386070370674,0.02184963785111904,-0.0163629949092865
1751013690983824400,8.132824462890625,-0.02155376225709915,0.020049074664711952,-0.018158497288823128
1751013690993768400,8.1427685546875,-0.009469934739172459,0.017542241141200066,-0.014965101145207882
1751013691003711500,8.15271142578125,-0.004739894066005945,0.016533702611923218,-0.010467554442584515
1751013691013655600,8.162655517578125,-0.010071275755763054,0.008528507314622402,-0.006700247060507536
1751013691023598300,8.172598388671876,-0.025411350652575493,-0.009708819910883904,-0.009947971440851688
1751013691033541400,8.182541259765625,-0.03578675910830498,-0.027664117515087128,-0.01769271120429039
1751013691043485700,8.192485595703126,-0.04198633134365082,-0.03256593272089958,-0.023801736533641815
1751013691053428700,8.2024287109375,-0.031039142981171608,-0.027285950258374214,-0.02895175665616989
1751013691063372500,8.21237255859375,-0.013340040110051632,-0.010034524835646152,-0.022012624889612198
1751013691073315600,8.222315673828126,0.018025605008006096,0.015360580757260323,-0.01011175662279129
1751013691083259600,8.232259765625,0.04061933234333992,0.029884928837418556,0.0017158746486529708
1751013691093202700,8.24220263671875,0.05759219080209732,0.02473144605755806,0.024462198838591576
1751013691103145500,8.2521455078125,0.05555460602045059,0.010945059359073639,0.03758945316076279
1751013691113089500,8.262089599609375,0.044615671038627625,-0.017909757792949677,0.04309527203440666
1751013691123032600,8.272032470703126,0.02105868048965931,-0.04283295199275017,0.03820490837097168
1751013691132976600,8.2819765625,-0.005793440621346235,-0.05763133987784386,0.014698518440127373
1751013691142919400,8.29191943359375,-0.033244773745536804,-0.05194282531738281,-0.02160569280385971
1751013691152863500,8.301863525390624,-0.059365589171648026,-0.03399018943309784,-0.05710776150226593
1751013691162806500,8.311806640625,-0.0674072727560997,-0.005702360533177853,-0.07994010299444199
1751013691172749600,8.32174951171875,-0.055459264665842056,0.014631939120590687,-0.0907224491238594
1751013691182693400,8.331693359375,-0.021014204248785973,0.0321321040391922,-0.0826413482427597
1751013691192636400,8.341636474609375,0.021985992789268494,0.0457451194524765,-0.054961785674095154
1751013691202580500,8.35158056640625,0.05685236304998398,0.04592088609933853,-0.020774787291884422
1751013691212523500,8.3615234375,0.0692238137125969,0.042207375168800354,0.014970693737268448
1751013691222467300,8.37146728515625,0.05801882967352867,0.02093111351132393,0.035347603261470795
1751013691232410400,8.381410400390624,0.032709475606679916,0.0005060005933046341,0.033416811376810074
1751013691242353400,8.391353515625,0.0016492956783622503,-0.016826383769512177,0.01955053210258484
1751013691252297700,8.401297607421874,-0.02931048348546028,-0.024055002257227898,-0.0023347933311015368
1751013691262240800,8.41124072265625,-0.05131911486387253,-0.019829630851745605,-0.02171221934258938
1751013691272184600,8.4211845703125,-0.06351159512996674,-0.0034967304673045874,-0.0321427546441555
1751013691282127600,8.431127685546874,-0.05915466696023941,0.024349281564354897,-0.034139860421419144
1751013691292071700,8.44107177734375,-0.04033597186207771,0.05230075493454933,-0.02353488653898239
1751013691302014500,8.451014404296876,-0.014435931108891964,0.06802166253328323,-0.004576908424496651
1751013691311957500,8.46095751953125,0.0062637547962367535,0.0757184624671936,0.013762417249381542
1751013691321901600,8.470901611328125,0.01943415217101574,0.06234060600399971,0.026700053364038467
1751013691331844600,8.4808447265625,0.020108196884393692,0.04273201897740364,0.027270503342151642
1751013691341788400,8.490788330078125,0.014059093780815601,0.02311011217534542,0.023846743628382683
1751013691351731500,8.5007314453125,-0.006086388137191534,0.013708621263504028,0.00863290298730135
1751013691361674500,8.510674560546875,-0.028744829818606377,0.014480139128863811,-0.002743055811151862
1751013691371618600,8.52061865234375,-0.03999987989664078,0.023007314652204514,-0.013727796263992786
1751013691381561600,8.5305615234375,-0.03808080777525902,0.018759040161967278,-0.014510765671730042
1751013691391505400,8.54050537109375,-0.022894131019711494,0.007707986980676651,-0.012820190750062466
1751013691401448400,8.550448486328126,-0.005034173373132944,-0.005021123681217432,-0.01079725380986929
1751013691411392500,8.560392578125,0.006580404471606016,-0.021801702678203583,-0.008288289420306683
1751013691421335600,8.57033544921875,0.008096542209386826,-0.0419815368950367,-0.005446430761367083
1751013691431278600,8.580278564453126,-0.003428287338465452,-0.05437881872057915,0.00042317630141042173
1751013691441222400,8.590222412109375,-0.01230327133089304,-0.07062703371047974,0.011510182172060013
1751013691451165400,8.60016552734375,-0.01480238139629364,-0.05933070182800293,0.029573604464530945
1751013691461109800,8.61010986328125,-0.009208145551383495,-0.02737223543226719,0.04658454656600952
1751013691471052500,8.620052490234375,0.005604888778179884,0.003409378696233034,0.04511261731386185
1751013691480996600,8.62999658203125,0.023020897060632706,0.020321782678365707,0.037224601954221725
1751013691490939600,8.639939697265625,0.040110666304826736,0.030728351324796677,0.016039686277508736
1751013691500882700,8.649882568359375,0.046058572828769684,0.0397290363907814,-0.004190750420093536
1751013691510826500,8.659826416015624,0.041488319635391235,0.0464969277381897,-0.013353356160223484
1751013691520769500,8.66976953125,0.0345878042280674,0.03911970555782318,-0.015290805138647556
1751013691530713600,8.679713623046876,0.024932513013482094,0.031215177848935127,-0.007412642706185579
1751013691540656600,8.68965673828125,0.022994264960289,0.02984311617910862,0.01233309879899025
1751013691550600400,8.699600341796875,0.022709572687745094,0.02172420360147953,0.029262814670801163
1751013691560543500,8.70954345703125,0.010950918309390545,0.014181066304445267,0.04390673711895943
1751013691570486500,8.719486572265625,0.0060357884503901005,0.014932343736290932,0.048885516822338104
1751013691580430600,8.7294306640625,0.0029672940727323294,0.018030133098363876,0.046184804290533066
1751013691590370000,8.7393701171875,0.0015821839915588498,0.030890271067619324,0.03658783808350563
1751013691600313900,8.74931396484375,-0.00007536746124969795,0.035482894629240036,0.016106797382235527
1751013691610257000,8.7592568359375,-0.012538162060081959,0.026285666972398758,-0.008827313780784607
1751013691620201000,8.769200927734374,-0.014540060423314571,0.025405224412679672,-0.03218989446759224
1751013691630144000,8.77914404296875,-0.02599351666867733,0.024526914581656456,-0.043308325111866
1751013691640086800,8.789086669921875,-0.03051396645605564,0.026086460798978806,-0.04386146366596222
1751013691650030800,8.79903076171875,-0.027709659188985825,0.02743135765194893,-0.040592167526483536
1751013691659974000,8.808973876953125,-0.02143125608563423,0.03431563079357147,-0.02754800394177437
1751013691669917700,8.818917724609374,-0.014077203348279,0.04055222123861313,-0.011155715212225914
1751013691679860700,8.82886083984375,-0.008868060074746609,0.038898929953575134,0.0015923039754852653
1751013691689803800,8.8388037109375,-0.002900981344282627,0.039144739508628845,0.00805925764143467
1751013691699747800,8.848747802734374,-0.0020746025256812572,0.03633910045027733,0.011165834963321686
1751013691709691000,8.85869091796875,-0.006675479467958212,0.02726783975958824,0.007568437606096268
1751013691719635000,8.868635009765624,-0.00777643034234643,0.027691548690199852,0.004425108432769775
1751013691729578000,8.878577880859375,-0.0062096924521028996,0.030853785574436188,-0.0038687740452587605
1751013691739522000,8.88852197265625,-0.007113835774362087,0.031788021326065063,-0.01071229949593544
1751013691749465000,8.898465087890624,-0.00270657055079937,0.033600568771362305,-0.022846460342407227
1751013691759407900,8.908407958984375,0.006249640136957169,0.03522137179970741,-0.02767769992351532
1751013691769352000,8.91835205078125,0.0065202172845602036,0.04109124466776848,-0.026281937956809998
1751013691779295000,8.928294921875,0.010583668015897274,0.041359156370162964,-0.022836074233055115
1751013691789239000,8.938239013671875,0.0076182386837899685,0.03855032101273537,-0.011924037709832191
1751013691799181800,8.948181884765624,0.00951041467487812,0.024926122277975082,-0.005687979515641928
1751013691809126000,8.9581259765625,0.0070528495125472546,0.018250109627842903,0.003275688039138913
1751013691819069000,8.96806884765625,0.01618802547454834,0.012479572556912899,0.00998951680958271
1751013691829012000,8.978011962890625,0.013768009841442108,-0.002454102970659733,0.008983374573290348
1751013691838955800,8.987955810546875,0.016888169571757317,-0.013851633295416832,0.004773450084030628
1751013691848898800,8.99789892578125,0.012571185827255249,-0.02172127366065979,-0.003896470880135894
1751013691858843000,9.0078427734375,0.006551908794790506,-0.02286776527762413,-0.015341139398515224
1751013691868786000,9.017785888671876,-0.004745486658066511,-0.020852550864219666,-0.021142570301890373
1751013691878729700,9.027729736328125,-0.007456851191818714,-0.008697351440787315,-0.027043867856264114
1751013691888672800,9.0376728515625,-0.005899434443563223,0.0033340114168822765,-0.02743082493543625
1751013691898615800,9.04761572265625,-0.004189684987068176,0.011516573838889599,-0.0266537144780159
1751013691908560000,9.057559814453125,0.0016684704460203648,0.013390373438596725,-0.02130076102912426
1751013691918503000,9.0675029296875,0.002189384773373604,0.012569054961204529,-0.0176977701485157
1751013691928447000,9.077447021484375,-0.002304699504747987,0.0035183019936084747,-0.013814082369208336
1751013691938390000,9.08739013671875,-0.010417753830552101,-0.000556600687559694,-0.005425924435257912
1751013691948334000,9.097333984375,-0.022004900500178337,-0.0023334617726504803,-0.00811997801065445
1751013691958276900,9.10727685546875,-0.03435664251446724,-0.005483714863657951,-0.010037986561655998
1751013691968220000,9.117219970703125,-0.03135259449481964,0.001439971150830388,-0.010183394886553288
1751013691978164000,9.1271640625,-0.021890651434659958,0.012583436444401741,-0.012279569171369076
1751013691988107000,9.13710693359375,-0.0070528495125472546,0.02317802421748638,-0.005114068277180195
1751013691998050800,9.14705078125,0.004151601810008287,0.024159397929906845,-0.017959292978048325
1751013692007993900,9.156993896484375,0.01823839172720909,0.02437538094818592,-0.028663868084549904
1751013692017937000,9.16693701171875,0.02557193860411644,0.025047030299901962,-0.032467663288116455
1751013692027881000,9.176880859375,0.031123297289013863,0.0300188846886158,-0.0280313678085804
1751013692037824000,9.186823974609375,0.033303361386060715,0.03591752052307129,-0.020913271233439445
1751013692047767800,9.196767822265626,0.03164101764559746,0.030400516465306282,-0.015778429806232452
1751013692057710800,9.2067109375,0.02371758036315441,0.02100994437932968,-0.0033563817851245403
1751013692067655000,9.216655029296875,0.017474863678216934,0.010434531606733799,0.009313873015344143
1751013692077598000,9.226597900390624,0.010965566150844097,0.008265652693808079,0.015865515917539597
1751013692087541000,9.236541015625,0.00018269284919369966,0.011964784003794193,0.011236408725380898
1751013692097484800,9.24648486328125,-0.007339938078075647,0.00794154591858387,0.0014620753936469555
1751013692107427800,9.256427734375,-0.019175292924046516,0.015146994963288307,-0.012852415442466736
1751013692117372000,9.266371826171875,-0.02305631712079048,0.026023877784609795,-0.021457621827721596
1751013692127314700,9.276314697265626,-0.020383035764098167,0.029403163120150566,-0.025353027507662773
1751013692137259000,9.286259033203125,-0.01641998626291752,0.033299632370471954,-0.01859312504529953
1751013692147202000,9.2962021484375,-0.010163155384361744,0.03821076825261116,-0.010605240240693092
1751013692157145000,9.30614501953125,-0.005558816250413656,0.03897669538855553,-0.000696150294970721
1751013692167089000,9.3160888671875,-0.009929063729941845,0.025659823790192604,0.004295146092772484
1751013692177032000,9.326031982421876,-0.01792174205183983,0.01344470214098692,0.004298075567930937
1751013692186976000,9.33597607421875,-0.03548369184136391,0.003819771809503436,-0.0070643010549247265
1751013692196919000,9.3459189453125,-0.047266580164432526,-0.012948023155331612,-0.029924342408776283
1751013692206862800,9.35586279296875,-0.04987381771206856,-0.012349876575171947,-0.045577339828014374
1751013692216806000,9.365805908203125,-0.030337665230035782,0.00012117382721044123,-0.04854436591267586
1751013692226749000,9.3757490234375,-0.007414240390062332,0.016755010932683945,-0.03590979799628258
1751013692236693000,9.38569287109375,0.0059753344394266605,0.02960795909166336,-0.014196246862411499
1751013692246636000,9.395635986328125,0.017491908743977547,0.029293440282344818,0.00869069341570139
1751013692256579800,9.405579833984374,0.02099662832915783,0.024878451600670815,0.024470988661050797
1751013692266523000,9.41552294921875,0.01823519729077816,0.01847914233803749,0.029350431635975838
1751013692276467000,9.425467041015626,0.008955677971243858,-0.00006072007090551779,0.022355904802680016
1751013692286409700,9.43540966796875,0.0019744676537811756,-0.016389625146985054,0.013073723763227463
1751013692296352800,9.445352783203125,-0.013889983296394348,-0.010838000103831291,-0.006813697516918182
1751013692306296800,9.455296875,-0.019963322207331657,0.0075820195488631725,-0.028110729530453682
1751013692316240000,9.465239990234375,-0.019881030544638634,0.033548105508089066,-0.049135055392980576
1751013692326183700,9.47518359375,-0.012154134921729565,0.05428347736597061,-0.061769623309373856
1751013692336126700,9.485126708984374,0.0013675332302227616,0.05537004768848419,-0.056418001651763916
1751013692346071000,9.495071044921875,0.015252988785505295,0.05230022221803665,-0.037455230951309204
1751013692356014000,9.50501416015625,0.023897608742117882,0.04306677728891373,0.0013137373607605696
1751013692365957000,9.51495703125,0.024212129414081573,0.0321856327354908,0.039083488285541534
1751013692375901000,9.52490087890625,0.017914285883307457,0.013709686696529388,0.06576782464981079
1751013692385844000,9.534843994140624,0.009670204482972622,0.002757969545200467,0.07136765867471695
1751013692395788000,9.5447880859375,0.005197159014642239,-0.0049497513100504875,0.05507523566484451
1751013692405731000,9.55473095703125,0.003430684097111225,0.006643255241215229,0.027951207011938095
1751013692415675000,9.5646748046875,0.0037649108562618494,0.018010959029197693,-0.002641855739057064
1751013692425618000,9.574617919921875,0.010509366169571877,0.024772990494966507,-0.027660923078656197
1751013692435561000,9.58456103515625,0.006434197071939707,0.03122290037572384,-0.03251213580369949
1751013692445505000,9.594505126953125,0.007728759665042162,0.024820394814014435,-0.02719087526202202
1751013692455447800,9.60444775390625,0.004024835303425789,0.019644541665911674,-0.008577775210142136
1751013692465391900,9.614391845703125,0.003593403147533536,0.0189041830599308,0.009310411289334297
1751013692475335000,9.6243349609375,0.0006876281695440412,0.03251560032367706,0.020536167547106743
1751013692485278000,9.63427783203125,-0.0012450277572497725,0.03837481886148453,0.017417872324585915
1751013692495221800,9.6442216796875,-0.0028700886759907007,0.036739904433488846,0.007183610461652279
1751013692505164800,9.654164794921876,-0.007768174633383751,0.042938411235809326,-0.01287771575152874
1751013692515108900,9.66410888671875,-0.008237689733505249,0.0516970157623291,-0.029704099521040916
1751013692525052000,9.674052001953125,-0.002103630919009447,0.05501238629221916,-0.03996872156858444
1751013692534995700,9.68399560546875,0.006128732580691576,0.054549794644117355,-0.03618277236819267
1751013692544938800,9.693938720703125,0.017287110909819603,0.0502927303314209,-0.021618476137518883
1751013692554881800,9.7038818359375,0.019412048161029816,0.037396639585494995,-0.008047806099057198
1751013692564826000,9.713826171875,0.018939070403575897,0.02316124550998211,0.007895739749073982
1751013692574769000,9.723768798828125,0.018161693587899208,0.02184005081653595,0.016870060935616493
1751013692584713000,9.733712890625,0.018668493255972862,0.024232368916273117,0.02418310008943081
1751013692594656300,9.74365625,0.02099849283695221,0.018222946673631668,0.03317419812083244
1751013692604600000,9.75360009765625,0.023973509669303894,0.01088806800544262,0.034999262541532516
1751013692614543000,9.763543212890625,0.026760241016745567,0.0032959282398223877,0.029223132878541946
1751013692624486100,9.773486083984375,0.023755662143230438,0.005528456065803766,0.016469521448016167
1751013692634430200,9.78343017578125,0.02033296786248684,0.014640728011727333,-0.004462126176804304
1751013692644373200,9.793373291015625,0.022540196776390076,0.049134790897369385,-0.025123994797468185
1751013692654317000,9.803317138671876,0.03500378876924515,0.07266168296337128,-0.05071857199072838
1751013692664260000,9.813260009765624,0.02467844821512699,0.08272470533847809,-0.0682685375213623
1751013692674204400,9.823204345703125,0.0141754737123847,0.0877668708562851,-0.06488605588674545
1751013692684147500,9.8331474609375,0.010618289932608604,0.09259677678346634,-0.04873078688979149
1751013692694090200,9.84309033203125,0.01619281806051731,0.09057197719812393,-0.018995529040694237
1751013692704034300,9.853034423828126,0.03629888594150543,0.09026731550693512,0.025531459599733353
1751013692713977300,9.862977294921874,0.03557690232992172,0.08299634605646133,0.062189072370529175
1751013692723921400,9.87292138671875,0.03437235578894615,0.08037659525871277,0.10083020478487015
1751013692733864200,9.8828642578125,0.03693271800875664,0.08920151740312576,0.1268482208251953
1751013692743808300,9.892808349609375,0.04104224219918251,0.09614357352256775,0.1466994285583496
1751013692753751300,9.902751220703125,0.04796912521123886,0.09697022289037704,0.15909777581691742
1751013692763694300,9.9126943359375,0.056297361850738525,0.08853013068437576,0.15892626345157623
1751013692773638100,9.92263818359375,0.056840647011995316,0.05661747232079506,0.1387147456407547
1751013692783581200,9.932581298828126,0.054182812571525574,0.01884106546640396,0.10054071992635727
1751013692793525200,9.942525146484375,0.03874633088707924,0.0009233179152943194,0.0529383160173893
1751013692803468300,9.95246826171875,0.027887556701898575,-0.021163875237107277,-0.002686596941202879
1751013692813411300,9.962411376953124,0.028596490621566772,-0.03971918299794197,-0.049069542437791824
1751013692823355100,9.972355224609375,0.027057982981204987,-0.042635612189769745,-0.07906153053045273
1751013692833298200,9.982298095703126,0.02744201011955738,-0.0350344181060791,-0.08958873897790909
1751013692843242200,9.9922421875,0.037156689912080765,-0.03079999051988125,-0.07650116831064224
1751013692853185300,10.002185302734375,0.04073704406619072,-0.022595856338739395,-0.05672213435173035
1751013692863129000,10.012129150390624,0.043529100716114044,-0.006131395697593689,-0.029584256932139397
1751013692873072000,10.022072021484375,0.048589907586574554,0.001871136948466301,-0.010908307507634163
1751013692883015200,10.03201513671875,0.046418629586696625,-0.0015787219163030386,-0.0017451694002375007
1751013692892959200,10.041959228515625,0.03440031781792641,-0.008125037886202335,-0.005337241105735302
1751013692902902000,10.051902099609375,0.02167014218866825,-0.014132596552371979,-0.01721121184527874
1751013692912846300,10.061846435546874,0.009484848007559776,-0.020966533571481705,-0.034018952399492264
1751013692922789400,10.071789306640625,-0.0011150655336678028,-0.006865363102406263,-0.04923811927437782
1751013692932733200,10.081733154296876,-0.009091499261558056,0.0082704471424222,-0.0566377118229866
1751013692942676200,10.09167626953125,-0.0091157341375947,0.019817113876342773,-0.05925533547997475
1751013692952619300,10.101619384765625,-0.002716158051043749,0.02635091356933117,-0.059899020940065384
1751013692962563300,10.111563232421876,0.007493868935853243,0.029135514050722122,-0.059175971895456314
1751013692972506400,10.12150634765625,0.0063210129737854,0.015225558541715145,-0.0596979521214962
1751013692982450200,10.1314501953125,0.0034346787724643946,0.02666516602039337,-0.06021726876497269
1751013692992393200,10.141393310546874,0.00490208063274622,0.04962587729096413,-0.05609442666172981
1751013693002337300,10.151337158203125,0.004357730504125357,0.036745231598615646,-0.05477003753185272
1751013693012280300,10.1612802734375,0.00896872766315937,0.013279586099088192,-0.041190046817064285
1751013693022223400,10.171223388671875,0.009092298336327076,-0.014270015992224216,-0.033315613865852356
1751013693032167200,10.181167236328125,0.007368966471403837,-0.02901540696620941,-0.022966569289565086
1751013693042110200,10.191110107421874,0.00024527712957933545,-0.023563383147120476,-0.017531055957078934
1751013693052054300,10.20105419921875,0.004518851637840271,-0.011863850057125092,-0.012104599736630917
1751013693061997000,10.2109970703125,0.009166600182652473,-0.014242585748434067,-0.014268417842686176
1751013693071940000,10.220940185546874,0.016948357224464417,-0.01618403010070324,-0.016349146142601967
1751013693081884200,10.23088427734375,0.023864319548010826,-0.011520834639668465,-0.015026353299617767
1751013693091827200,10.2408271484375,0.030119020491838455,-0.008901349268853664,-0.02196921408176422
1751013693101771300,10.250771240234375,0.026614833623170853,-0.011150655336678028,-0.028181303292512894
1751013693111714300,10.26071435546875,0.02251276560127735,-0.010791128501296043,-0.031735025346279144
1751013693121658400,10.270658447265625,0.012222311459481716,-0.01950419321656227,-0.027419373393058777
1751013693131601400,10.280601318359375,0.010691259987652302,-0.021094899624586105,-0.011718441732227802
1751013693141544400,10.29054443359375,0.009800698608160019,-0.023193735629320145,-0.0073074474930763245
1751013693151488300,10.30048828125,0.012924587354063988,-0.032101742923259735,-0.007018228527158499
1751013693161431300,10.310431396484375,0.014274809509515762,-0.041674476116895676,-0.01631132885813713
1751013693171375400,10.320375244140624,0.010785802267491817,-0.045709699392318726,-0.02569178119301796
1751013693181318400,10.330318359375,0.00845313910394907,-0.03654522821307182,-0.03194328397512436
1751013693191262200,10.34026220703125,0.008568454533815384,-0.026076607406139374,-0.04283534735441208
1751013693201205200,10.350205322265625,0.01044225413352251,-0.0036224317736923695,-0.04393390193581581
1751013693211148300,10.360148193359375,0.017884990200400352,0.024829981848597527,-0.04909723997116089
1751013693221092400,10.37009228515625,0.02851153537631035,0.037931933999061584,-0.05812721699476242
1751013693231035100,10.38003515625,0.03503468260169029,0.02491520345211029,-0.06221596896648407
1751013693240979200,10.389979248046876,0.042216427624225616,-0.001877262257039547,-0.06396247446537018
1751013693250922200,10.399922119140625,0.043592482805252075,-0.01575446128845215,-0.06395821273326874
1751013693260866000,10.409865966796875,0.040815338492393494,-0.01733851060271263,-0.06436354666948318
1751013693270809000,10.41980908203125,0.040342096239328384,-0.010438792407512665,-0.06165750324726105
1751013693280752000,10.429752197265625,0.036259736865758896,0.003962783608585596,-0.05228051543235779
1751013693290696200,10.4396962890625,0.032997097820043564,0.019111642614006996,-0.039505332708358765
1751013693300639200,10.44963916015625,0.024458738043904305,0.026392458006739616,-0.0222626943141222
1751013693310583300,10.459583251953125,0.012661732733249664,0.033121202141046524,-0.0025180187076330185
1751013693320526300,10.4695263671875,0.004770254250615835,0.034452516585588455,0.013934191316366196
1751013693330470400,10.479470458984375,0.005798500496894121,0.054665908217430115,0.03128468617796898
1751013693340413400,10.489413330078126,0.003849865635856986,0.07095300406217575,0.04451500251889229
1751013693350356200,10.499356201171874,0.010209494270384312,0.07754166424274445,0.05554688349366188
1751013693360300300,10.50930029296875,0.02424754947423935,0.0685388445854187,0.05561239644885063
1751013693370243300,10.519243408203126,0.028617795556783676,0.06318562477827072,0.044260405004024506
1751013693380187400,10.5291875,0.023689882829785347,0.07873529195785522,0.01363138947635889
1751013693390130200,10.539130126953125,0.018208032473921776,0.12263990193605423,-0.025003086775541306
1751013693400073200,10.5490732421875,0.013085974380373955,0.1767963469028473,-0.039077360183000565
1751013693410017300,10.559017333984375,0.0002282329078298062,0.30568215250968933,0.08370181918144226
1751013693419960300,10.568960205078126,-0.03014218993484974,0.281978964805603,0.1967490166425705
1751013693429904100,10.578904052734375,-0.04713262617588043,0.1752929836511612,0.2682194709777832
1751013693439847200,10.58884716796875,-0.037449903786182404,0.039269376546144485,0.2716171145439148
1751013693449791200,10.598791259765624,-0.016945960000157356,-0.06794442981481552,0.23704424500465393
1751013693459734300,10.608734375,0.0011323761427775025,-0.09400079399347305,0.1671690195798874
1751013693469677300,10.61867724609375,0.021199028939008713,-0.09399760514497757,0.05945054441690445
1751013693479621000,10.62862109375,0.046172820031642914,-0.10561191290616989,-0.09504368901252747
1751013693489564200,10.638564208984375,0.05142617225646973,-0.09530308097600937,-0.24103978276252747
1751013693499508200,10.64850830078125,0.03112036921083927,-0.0752476155757904,-0.33660224080085754
1751013693509451300,10.658451171875,0.03062635287642479,0.020531106740236282,-0.33271777629852295
