time,seconds_elapsed,z,y,x
1751013450252190000,0.11818994140625,0.12463460862636566,0.19462567567825317,-0.24769528210163116
1751013450262133800,0.1281337890625,0.15279912948608398,0.15095782279968262,-0.23382048308849335
1751013450272076800,0.138076904296875,0.17629113793373108,0.13080088794231415,-0.2100411206483841
1751013450282019800,0.148019775390625,0.20273606479167938,0.1304948925971985,-0.177547886967659
1751013450291964000,0.1579638671875,0.22078590095043182,0.1500062793493271,-0.14701128005981445
1751013450301907000,0.167906982421875,0.2200348973274231,0.16812749207019806,-0.11560648679733276
1751013450311849700,0.177849609375,0.19795995950698853,0.19477002322673798,-0.08188607543706894
1751013450321792800,0.187792724609375,0.16818848252296448,0.2298068255186081,-0.05837941914796829
1751013450331736800,0.19773681640625,0.1367541253566742,0.2611170709133148,-0.044863078743219376
1751013450341679900,0.207679931640625,0.11865474283695221,0.2801980972290039,-0.048465535044670105
1751013450351623000,0.217622802734375,0.1103142574429512,0.2601090669631958,-0.07379087060689926
1751013450361569300,0.2275693359375,0.10386381298303604,0.24155163764953613,-0.11210070550441742
1751013450371513000,0.23751318359375,0.10052687674760818,0.22475561499595642,-0.16385897994041443
1751013450381456100,0.2474560546875,0.08796127885580063,0.22559158504009247,-0.2232879400253296
1751013450391399200,0.257399169921875,0.07482311129570007,0.23033520579338074,-0.28036561608314514
1751013450401343200,0.26734326171875,0.06390894204378128,0.25210148096084595,-0.31825679540634155
1751013450411286000,0.2772861328125,0.054963115602731705,0.29300177097320557,-0.3268822431564331
1751013450421229000,0.28722900390625,0.052686113864183426,0.343703031539917,-0.3065095841884613
1751013450431172000,0.297172119140625,0.06210944429039955,0.4019988477230072,-0.2623269557952881
1751013450441116200,0.3071162109375,0.07561247050762177,0.4413566291332245,-0.2026101052761078
1751013450451059200,0.31705908203125,0.08789177238941193,0.4436533451080322,-0.141421839594841
1751013450461002000,0.327001953125,0.10487847775220871,0.3934066891670227,-0.09953724592924118
1751013450470945000,0.336945068359375,0.1223919615149498,0.3076707422733307,-0.07259910553693771
1751013450480889300,0.346889404296875,0.1294991374015808,0.22106420993804932,-0.056523729115724564
1751013450490832100,0.35683203125,0.12461569905281067,0.1414860188961029,-0.05190740525722504
1751013450500775200,0.366775146484375,0.10871183127164841,0.07662500441074371,-0.054250720888376236
1751013450510719200,0.37671923828125,0.1010749489068985,0.03328658267855644,-0.053409162908792496
1751013450520662300,0.386662353515625,0.09890447556972504,0.01768525317311287,-0.057253967970609665
1751013450530605300,0.396605224609375,0.08922095596790314,0.024059530347585678,-0.06662297248840332
1751013450540548000,0.406548095703125,0.07038175314664841,0.03989681601524353,-0.08536656200885773
1751013450550492200,0.4164921875,0.04230111837387085,0.05564515292644501,-0.10856189578771591
1751013450560435200,0.426435302734375,0.012809271924197674,0.08669707924127579,-0.13303901255130768
1751013450570378200,0.436378173828125,-0.012076370418071747,0.11689173430204391,-0.15384122729301453
1751013450580321300,0.4463212890625,-0.016160061582922935,0.1543312519788742,-0.15358608961105347
1751013450590265300,0.456265380859375,0.003352120751515031,0.18429075181484222,-0.1351037621498108
1751013450600208400,0.46620849609375,0.02935602515935898,0.1939212679862976,-0.10700953751802444
1751013450610151200,0.476151123046875,0.03746641427278519,0.21362519264221191,-0.07117804139852524
1751013450620095200,0.48609521484375,0.03127643093466759,0.2466646432876587,-0.036138031631708145
1751013450630038300,0.496038330078125,0.018097776919603348,0.26874199509620667,-0.018083129078149796
1751013450639981300,0.505981201171875,-0.0057649449445307255,0.2692309319972992,-0.015910523012280464
1751013450649924400,0.51592431640625,-0.039694949984550476,0.24665585160255432,-0.03243011236190796
1751013450659868200,0.5258681640625,-0.08251458406448364,0.2215385138988495,-0.06078425422310829
1751013450669811200,0.535811279296875,-0.11047244817018509,0.19645127654075623,-0.08766673505306244
1751013450679754200,0.545754150390625,-0.11754500865936279,0.1677682250738144,-0.10469445586204529
1751013450689697300,0.555697265625,-0.11840733885765076,0.1239757388830185,-0.12159114331007004
1751013450699641300,0.565641357421875,-0.12173282355070114,0.07386117428541183,-0.13453064858913422
1751013450709584100,0.575584228515625,-0.12381967902183533,0.034750524908304214,-0.14047428965568542
1751013450719527200,0.585527099609375,-0.11511141061782837,0.016865532845258713,-0.14491617679595947
1751013450729471200,0.59547119140625,-0.1060638502240181,0.010369816794991493,-0.13643720746040344
1751013450739414300,0.605414306640625,-0.09140714257955551,0.031731829047203064,-0.11743181943893433
1751013450749357300,0.615357421875,-0.06998121738433838,0.07763992995023727,-0.08642543852329254
1751013450759300400,0.62530029296875,-0.03971172496676445,0.10142675787210464,-0.05871391296386719
1751013450769244200,0.635244140625,-0.007266967557370663,0.11855807155370712,-0.03435690701007843
1751013450779187200,0.645187255859375,0.01888900250196457,0.12575872242450714,-0.02281370386481285
1751013450789130200,0.655130126953125,0.03995247557759285,0.12889592349529266,-0.013294766657054424
1751013450799073300,0.6650732421875,0.0448758602142334,0.12886503338813782,-0.013558685779571533
1751013450809017000,0.67501708984375,0.046611443161964417,0.11662115156650543,-0.0280942190438509
1751013450818960100,0.684960205078125,0.05426057428121567,0.1016608476638794,-0.05073108896613121
1751013450828903200,0.694903076171875,0.0741456001996994,0.08674581348896027,-0.06877480447292328
1751013450838847200,0.70484716796875,0.09526233375072479,0.08549679070711136,-0.07939016073942184
1751013450848790300,0.714790283203125,0.12029445171356201,0.0834144651889801,-0.07377541810274124
1751013450858733000,0.724733154296875,0.143773153424263,0.07653046399354935,-0.05848674476146698
1751013450868676000,0.734676025390625,0.16319264471530914,0.060698501765728,-0.03763126581907272
1751013450878620200,0.7446201171875,0.17134511470794678,0.03574787825345993,-0.014860971830785275
1751013450888563200,0.754563232421875,0.17329668998718262,0.0062829297967255116,0.0023060310631990433
1751013450898506200,0.76450634765625,0.15904611349105835,-0.018371550366282463,0.019880497828125954
1751013450908449300,0.77444921875,0.13268667459487915,-0.03630021587014198,0.03982837125658989
1751013450918393000,0.78439306640625,0.10753364861011505,-0.04266570508480072,0.06197282299399376
1751013450928336100,0.794336181640625,0.08897674083709717,-0.027904335409402847,0.07849694043397903
1751013450938279200,0.804279052734375,0.08566856384277344,0.0038072550669312477,0.09414593875408173
1751013450948223200,0.81422314453125,0.09561600536108017,0.04260498285293579,0.09536593407392502
1751013450958166000,0.824166015625,0.10212450474500656,0.08407599478960037,0.09190089255571365
1751013450968109000,0.834109130859375,0.10750062763690948,0.11284319311380386,0.07739891856908798
1751013450978052000,0.844052001953125,0.10448885709047318,0.1248130351305008,0.05260435491800308
1751013450987996200,0.85399609375,0.08791147917509079,0.13200223445892334,0.03242238983511925
1751013450997939200,0.863939208984375,0.054848067462444305,0.11736124753952026,0.010898986831307411
1751013451007882200,0.87388232421875,0.022306371480226517,0.07581140846014023,0.0011225224006921053
1751013451017826300,0.883826416015625,-0.008198008872568607,0.018393388018012047,0.0017044231062754989
1751013451027769000,0.89376904296875,-0.02588326297700405,-0.04031546413898468,0.012193016707897186
1751013451037712100,0.903712158203125,-0.024309067055583,-0.09349852800369263,0.02948891557753086
1751013451047655200,0.9136552734375,-0.002142513170838356,-0.1124623641371727,0.061698783189058304
1751013451057599200,0.92359912109375,0.026283802464604378,-0.09450200200080872,0.09524396061897278
1751013451067542300,0.933542236328125,0.03731594607234001,-0.05582811310887337,0.1253480613231659
1751013451077485000,0.943485107421875,0.030416496098041534,-0.008711732923984528,0.13156788051128387
1751013451087428000,0.953427978515625,0.02207733877003193,0.019580624997615814,0.12651187181472778
1751013451097372400,0.963372314453125,0.02231595851480961,0.03911597654223442,0.11267727613449097
1751013451107315200,0.973315185546875,0.03244369477033615,0.047027695924043655,0.10220067203044891
1751013451117258200,0.98325830078125,0.04791133105754852,0.06013817340135574,0.08465496450662613
1751013451127202300,0.993202392578125,0.05524834245443344,0.0890345349907875,0.06593720614910126
1751013451137145300,1.003145263671875,0.05257932096719742,0.12552224099636078,0.025344770401716232
1751013451147088400,1.01308837890625,0.05004265904426575,0.1611476093530655,-0.035467978566884995
1751013451157031400,1.023031494140625,0.04680052772164345,0.1742708683013916,-0.11334839463233948
1751013451166975200,1.032975341796875,0.04409555718302727,0.19113586843013763,-0.18985356390476227
1751013451176918300,1.042918212890625,0.04689187556505203,0.2066359966993332,-0.23942430317401886
1751013451186861300,1.052861328125,0.05294550582766533,0.19744330644607544,-0.2671286463737488
1751013451196805000,1.06280517578125,0.06333743035793304,0.16054706275463104,-0.2706221640110016
1751013451206748200,1.072748046875,0.07485107332468033,0.10220040380954742,-0.2593199908733368
1751013451216691200,1.082691162109375,0.09205508977174759,0.04853637516498566,-0.23634782433509827
1751013451226634200,1.09263427734375,0.10598182678222656,0.017826134338974953,-0.20755931735038757
1751013451236578300,1.102578369140625,0.11181095242500305,0.02046346291899681,-0.17297416925430298
1751013451246521300,1.112521240234375,0.11634445190429688,0.03386395797133446,-0.14238910377025604
1751013451256464100,1.122464111328125,0.12013839185237885,0.033246103674173355,-0.10915551334619522
1751013451266407200,1.1324072265625,0.12088008224964142,0.04506015405058861,-0.0637454241514206
1751013451276351200,1.142351318359375,0.11509862542152405,0.04363296553492546,-0.015093731693923473
1751013451286294300,1.152294189453125,0.11090041697025299,0.012089420109987259,0.03683391585946083
1751013451296237300,1.1622373046875,0.11080747097730637,-0.027598870918154716,0.07949056476354599
1751013451306181000,1.17218115234375,0.11258433759212494,-0.055443815886974335,0.11001837998628616
1751013451316124200,1.182124267578125,0.12198289483785629,-0.04538053274154663,0.12494885921478271
1751013451326067200,1.192067138671875,0.1398063749074936,-0.00378967821598053,0.12075091898441315
1751013451336010200,1.20201025390625,0.14888589084148407,0.05192684754729271,0.09576567262411118
1751013451345954300,1.211954345703125,0.1485348790884018,0.10286939144134521,0.06351692229509354
1751013451355897000,1.22189697265625,0.1419840306043625,0.13982607424259186,0.03701767325401306
1751013451365837300,1.23183740234375,0.13057425618171692,0.1479836106300354,0.010729343630373478
1751013451375781400,1.241781494140625,0.11768615245819092,0.13371838629245758,-0.008314655162394047
1751013451385724400,1.251724365234375,0.10322225838899612,0.1105656623840332,-0.023330889642238617
1751013451395667200,1.261667236328125,0.07812435925006866,0.07943330705165863,-0.038960449397563934
1751013451405610200,1.2716103515625,0.04440261796116829,0.03393026813864708,-0.05188982933759689
1751013451415554300,1.28155419921875,0.0067849354818463326,0.004225904121994972,-0.06034749746322632
1751013451425497300,1.291497314453125,-0.027231354266405106,-0.012168781831860542,-0.07062783092260361
1751013451435440400,1.3014404296875,-0.043646279722452164,-0.01570918783545494,-0.0788455456495285
1751013451445383400,1.311383544921875,-0.040102146565914154,-0.025182850658893585,-0.08760149031877518
1751013451455327200,1.3213271484375,-0.02539350651204586,-0.049730803817510605,-0.08815302699804306
1751013451465270300,1.331270263671875,-0.01540771871805191,-0.08392073214054108,-0.07892171293497086
1751013451475213300,1.34121337890625,-0.009431584738194942,-0.08725527673959732,-0.05775810405611992
1751013451485157400,1.351157470703125,-0.005540440324693918,-0.07899495214223862,-0.022827550768852234
1751013451495100200,1.36110009765625,0.01077115535736084,-0.06078691780567169,0.005615274887531996
1751013451505043200,1.371043212890625,0.02292289212346077,-0.03862089663743973,0.03525892272591591
1751013451514986200,1.380986328125,0.03772101178765297,-0.007053914945572615,0.051477041095495224
1751013451524930600,1.3909306640625,0.04079004004597664,0.030713969841599464,0.07272693514823914
1751013451534873600,1.40087353515625,0.041724275797605515,0.06915270537137985,0.08679375052452087
1751013451544816000,1.410816162109375,0.031860992312431335,0.0979398787021637,0.09071312844753265
1751013451554760400,1.420760498046875,0.019961457699537277,0.09876572340726852,0.09256615489721298
1751013451564703500,1.430703369140625,0.005240568425506353,0.07250829041004181,0.09463515877723694
1751013451574646500,1.440646484375,-0.009770339354872704,0.02429814822971821,0.1024203822016716
1751013451584589600,1.450589599609375,-0.024286163970828056,-0.04649746045470238,0.11718255281448364
1751013451594533400,1.460533447265625,-0.03987497836351395,-0.12084732204675674,0.1309436410665512
1751013451604476400,1.470476318359375,-0.06089290976524353,-0.19200299680233002,0.14738519489765167
1751013451614419500,1.48041943359375,-0.0815286785364151,-0.24042299389839172,0.16047543287277222
1751013451624362500,1.490362548828125,-0.09994789958000183,-0.256874144077301,0.1577310413122177
1751013451634306300,1.500306396484375,-0.11089961975812912,-0.24063284695148468,0.1446988582611084
1751013451644249300,1.510249267578125,-0.10572083294391632,-0.2048274427652359,0.10303796827793121
1751013451654192400,1.5201923828125,-0.09940861165523529,-0.16036278009414673,0.04751452058553696
1751013451664136400,1.530136474609375,-0.08521928638219833,-0.12019512057304382,-0.00443869037553668
1751013451674079500,1.54007958984375,-0.0673966184258461,-0.07808122038841248,-0.04083983972668648
1751013451684022500,1.5500224609375,-0.04388303682208061,-0.04148459434509277,-0.05127463862299919
1751013451693965300,1.55996533203125,-0.01570279709994793,-0.009534915909171104,-0.03164554387331009
1751013451703909400,1.569909423828125,0.00936021190136671,0.015812518075108528,0.009358614683151245
1751013451713852400,1.579852294921875,0.027771975845098495,0.03919107839465141,0.05597751587629318
1751013451723795500,1.58979541015625,0.038536474108695984,0.060142964124679565,0.09982220083475113
1751013451733739300,1.5997392578125,0.04439915716648102,0.07233491539955139,0.1328113079071045
1751013451743682300,1.609682373046875,0.04713049530982971,0.06833937764167786,0.1474325954914093
1751013451753625300,1.619625244140625,0.04156981408596039,0.04248274490237236,0.1565009206533432
1751013451763568400,1.629568359375,0.030416496098041534,0.014362693764269352,0.16116225719451904
1751013451773512400,1.639512451171875,0.024460069835186005,-0.019053053110837936,0.1672252118587494
1751013451783455500,1.64945556640625,0.026194319128990173,-0.042030807584524155,0.1735353022813797
1751013451793398300,1.659398193359375,0.02184617705643177,-0.06058398634195328,0.16843748092651367
1751013451803342300,1.66934228515625,0.019281020388007164,-0.0804905816912651,0.15519651770591736
1751013451813285400,1.679285400390625,0.01122122909873724,-0.08780841529369354,0.12487003207206726
1751013451823228400,1.689228515625,0.007969776168465614,-0.07355144619941711,0.08485736697912216
1751013451833171500,1.69917138671875,0.0055122110061347485,-0.04050108790397644,0.037991322576999664
1751013451843115300,1.709115234375,0.016337428241968155,0.0056831855326890945,0.0019078885670751333
1751013451853058300,1.719058349609375,0.019099658355116844,0.03527117148041725,-0.02852565050125122
1751013451863001300,1.72900146484375,0.02201901562511921,0.045408494770526886,-0.05108661949634552
1751013451872945400,1.7389453125,0.015149392187595367,0.04447612166404724,-0.05349784716963768
1751013451882888200,1.74888818359375,0.014758706092834473,0.03117815963923931,-0.03344610705971718
1751013451892831200,1.758831298828125,0.018196048215031624,0.00824115239083767,-0.0005387574783526361
1751013451902774300,1.768774169921875,0.020231235772371292,-0.02286749891936779,0.0419280081987381
1751013451912718300,1.77871826171875,0.022938339039683342,-0.06459124386310577,0.08522195369005203
1751013451922661400,1.788661376953125,0.035109784454107285,-0.09885520488023758,0.11889176815748215
1751013451932604400,1.7986044921875,0.056716009974479675,-0.10951477289199829,0.1482139676809311
1751013451942547200,1.808547119140625,0.08214333653450012,-0.10838692635297775,0.16359958052635193
1751013451952491300,1.8184912109375,0.1053120419383049,-0.0941893458366394,0.16954270005226135
1751013451962434300,1.828434326171875,0.1228332445025444,-0.06454170495271683,0.16693200170993805
1751013451972377300,1.83837744140625,0.13202302157878876,-0.03466184064745903,0.15343455970287323
1751013451982321200,1.848321044921875,0.13463877141475677,-0.012313391081988811,0.1344723254442215
1751013451992264200,1.85826416015625,0.13616129755973816,-0.0021869877818971872,0.11904703080654144
1751013452002207200,1.868207275390625,0.1373908817768097,0.016415990889072418,0.11099229753017426
1751013452012150300,1.878150390625,0.13361558318138123,0.04302363470196724,0.10601405054330826
1751013452022094300,1.88809423828125,0.12999661266803741,0.06281944364309311,0.10072953999042511
1751013452032037400,1.898037353515625,0.11645976454019547,0.052624061703681946,0.09012243896722794
1751013452041980200,1.907980224609375,0.09305990487337112,0.02935762144625187,0.07591207325458527
1751013452051924500,1.917924560546875,0.07060199975967407,0.009808422066271305,0.059413790702819824
1751013452061867500,1.927867431640625,0.05186213180422783,0.003970240708440542,0.054071757942438126
1751013452071810600,1.937810546875,0.03885818272829056,0.015238873660564423,0.05751841887831688
1751013452081753300,1.94775341796875,0.037527136504650116,0.03236193582415581,0.059127502143383026
1751013452091697400,1.957697509765625,0.044369593262672424,0.041971683502197266,0.05872216820716858
1751013452101640400,1.967640380859375,0.05113242566585541,0.04556988179683685,0.05167544633150101
1751013452111583500,1.97758349609375,0.06240611895918846,0.040099214762449265,0.0314553938806057
1751013452121526500,1.987526611328125,0.07828468829393387,0.02179104834794998,0.01176291611045599
1751013452131470300,1.99747021484375,0.09194563329219818,0.00015153386630117893,-0.006299973931163549
1751013452141413400,2.007413330078125,0.10661698877811432,-0.015135277062654495,-0.006853645201772451
1751013452151356400,2.0173564453125,0.12657152116298676,-0.011212972924113274,0.005864280741661787
1751013452161300500,2.027300537109375,0.14351162314414978,0.01206704881042242,0.036608610302209854
1751013452171243500,2.037243408203125,0.15826047956943512,0.00752050057053566,0.0729205459356308
1751013452181186600,2.0471865234375,0.1588495671749115,0.013018596917390823,0.11230896413326263
1751013452191129300,2.05712939453125,0.15478505194187164,0.026068618521094322,0.13837891817092896
1751013452201073400,2.067073486328125,0.14568422734737396,0.033797379583120346,0.14259229600429535
1751013452211016400,2.077016357421875,0.13566994667053223,0.033611491322517395,0.11927445977926254
1751013452220959500,2.08695947265625,0.12594887614250183,0.03025856986641884,0.07854567468166351
1751013452230903300,2.0969033203125,0.11047537624835968,0.03428873047232628,0.035600606352090836
1751013452240846300,2.106846435546875,0.08616018295288086,0.04152081161737442,-0.0038922098465263844
1751013452250789400,2.116789306640625,0.0664738342165947,0.05518842115998268,-0.0292364489287138
1751013452260732400,2.126732421875,0.052872270345687866,0.052920471876859665,-0.03994555026292801
1751013452270676500,2.136676513671875,0.042812712490558624,0.034558508545160294,-0.04314107820391655
1751013452280619300,2.146619384765625,0.03581418842077255,-0.0016567525453865528,-0.03580939769744873
1751013452290562300,2.156562255859375,0.04144144803285599,-0.03675428777933121,-0.026990871876478195
1751013452300506400,2.16650634765625,0.04658135026693344,-0.060738448053598404,-0.017732124775648117
1751013452310449400,2.176449462890625,0.04272456094622612,-0.0754404291510582,-0.014090784825384617
1751013452320392400,2.186392333984375,0.029526999220252037,-0.08937302231788635,-0.013617275282740593
1751013452330335500,2.19633544921875,0.01062388252466917,-0.1033032163977623,-0.017174459993839264
1751013452340279300,2.206279296875,-0.014739531092345715,-0.10894592106342316,-0.021987324580550194
1751013452350222300,2.216222412109375,-0.03204954415559769,-0.1032443642616272,-0.01607457362115383
1751013452360164400,2.226164306640625,-0.03098774328827858,-0.08623315393924713,-0.008081628940999508
1751013452370107400,2.236107421875,-0.026269953697919846,-0.07780185341835022,0.004927114117890596
1751013452380051500,2.246051513671875,-0.022762836888432503,-0.07594110071659088,0.011803662404417992
1751013452389994500,2.255994384765625,-0.02135668694972992,-0.07777362316846848,0.011396464891731739
1751013452399937300,2.265937255859375,-0.012808206491172314,-0.0679958313703537,0.018764100968837738
1751013452409881300,2.27588134765625,0.0031055121216923,-0.05988730117678642,0.027366910129785538
1751013452419824400,2.285824462890625,0.01643356867134571,-0.05558096989989281,0.03343918174505234
1751013452429767400,2.295767333984375,0.02797277830541134,-0.053469616919755936,0.04073517769575119
1751013452439710500,2.30571044921875,0.035883430391550064,-0.0508650466799736,0.04315199702978134
1751013452449654300,2.315654296875,0.04075781628489494,-0.05795970559120178,0.03695588558912277
1751013452459597300,2.325597412109375,0.04163266345858574,-0.07656002044677734,0.029829001054167747
1751013452469540400,2.335540283203125,0.031921979039907455,-0.10749716311693192,0.01841735653579235
1751013452479484400,2.345484375,0.02472292259335518,-0.13753175735473633,0.009523996151983738
1751013452489427500,2.355427490234375,0.005131645128130913,-0.16605181992053986,-0.0024016385432332754
1751013452499370200,2.365370361328125,-0.01085717510432005,-0.18722234666347504,-0.015741944313049316
1751013452509313300,2.375313232421875,-0.02413622848689556,-0.18927112221717834,-0.0466146394610405
1751013452519257300,2.38525732421875,-0.031745411455631256,-0.16623876988887787,-0.07349472492933273
1751013452529200400,2.395200439453125,-0.03105458803474903,-0.12161964178085327,-0.10243503004312515
1751013452539143400,2.405143310546875,-0.02414022386074066,-0.06893326342105865,-0.13083045184612274
1751013452549087200,2.415087158203125,-0.016691362485289574,-0.027877170592546463,-0.14864219725131989
1751013452559030300,2.4250302734375,-0.014573882333934307,-0.002436259761452675,-0.14452283084392548
1751013452568973300,2.434973388671875,-0.0100774010643363,0.021416075527668,-0.12890657782554626
1751013452578916400,2.444916259765625,-0.009635583497583866,0.02768142893910408,-0.09313793480396271
1751013452588860200,2.454860107421875,-0.010232930071651936,0.03512895852327347,-0.05664330720901489
1751013452598803200,2.46480322265625,-0.017292171716690063,0.03760330006480217,-0.020988639444112778
1751013452608746200,2.474746337890625,-0.03194088861346245,0.024511467665433884,-0.000003994741746282671
1751013452618689300,2.484689208984375,-0.05315190181136131,0.006327138282358646,0.009666741825640202
1751013452628633300,2.49463330078125,-0.07312188297510147,-0.00487172044813633,0.007479487918317318
1751013452638576400,2.504576416015625,-0.08037633448839188,-0.03335875645279884,-0.008245679549872875
1751013452648519200,2.514519287109375,-0.07742821425199509,-0.0526949018239975,-0.023391874507069588
1751013452658463500,2.52446337890625,-0.06908426433801651,-0.08412127196788788,-0.032821863889694214
1751013452668406500,2.534406494140625,-0.06138373166322708,-0.13619458675384521,-0.029411152005195618
1751013452678349300,2.544349365234375,-0.04891214892268181,-0.17695346474647522,-0.007522364612668753
1751013452688292400,2.554292236328125,-0.036076243966817856,-0.197401225566864,0.03363838791847229
1751013452698236400,2.564236328125,-0.025524800643324852,-0.19964121282100677,0.06666264683008194
1751013452708179500,2.574179443359375,0.0006767092272639275,-0.17513985931873322,0.09009021520614624
1751013452718122500,2.58412255859375,0.026739468798041344,-0.1387176662683487,0.10079718381166458
1751013452728066600,2.594066650390625,0.03815457597374916,-0.10286379605531693,0.09185642004013062
1751013452738009300,2.60400927734375,0.04325772449374199,-0.06503785401582718,0.08054198324680328
1751013452747952400,2.613952392578125,0.03964967280626297,-0.02901114523410797,0.06530417501926422
1751013452757895400,2.6238955078125,0.03450045362114906,0.0043710460886359215,0.053113020956516266
1751013452767839500,2.633839599609375,0.02425447292625904,0.014594921842217445,0.03815777227282524
1751013452777782500,2.643782470703125,0.014374411664903164,0.009974869899451733,0.025141039863228798
1751013452787725600,2.6537255859375,0.0009856359101831913,-0.005032841581851244,0.0098052266985178
1751013452797668400,2.66366845703125,-0.007413974031805992,-0.020424582064151764,-0.004743622615933418
1751013452807612400,2.6736123046875,-0.023552730679512024,-0.03196405991911888,-0.025379657745361328
1751013452817555500,2.683555419921875,-0.038182538002729416,-0.028444424271583557,-0.04417039081454277
1751013452827498500,2.69349853515625,-0.0525183342397213,-0.019601663574576378,-0.0613752081990242
1751013452837442300,2.7034423828125,-0.06283701956272125,0.003869839245453477,-0.06310360133647919
1751013452847385300,2.71338525390625,-0.07069014757871628,0.029075859114527702,-0.05884094536304474
1751013452857328400,2.723328369140625,-0.07155115157365799,0.03942064195871353,-0.058698467910289764
1751013452867271400,2.733271484375,-0.07459114491939545,0.04114796966314316,-0.053229399025440216
1751013452877215500,2.743215576171875,-0.07177245616912842,0.04279646649956703,-0.04093198850750923
1751013452887158300,2.753158203125,-0.06655506044626236,0.046793337911367416,-0.030822893604636192
1751013452897101300,2.763101318359375,-0.06121568754315376,0.05855146050453186,-0.010977549478411674
1751013452907045400,2.77304541015625,-0.056061938405036926,0.0674767792224884,0.0022272015921771526
1751013452916988400,2.782988525390625,-0.05025092139840126,0.06513746082782745,0.016563797369599342
1751013452926931500,2.792931396484375,-0.04951828345656395,0.05104454234242439,0.015332350507378578
1751013452936874500,2.80287451171875,-0.05324031785130501,0.043544281274080276,0.009036637842655182
1751013452946818300,2.812818359375,-0.06070249527692795,0.03470525145530701,-0.004364122170954943
1751013452956761300,2.82276123046875,-0.07130959630012512,0.02810274064540863,-0.01985679566860199
1751013452966704400,2.832704345703125,-0.0746084600687027,0.02659272775053978,-0.030895065516233444
1751013452976647400,2.8426474609375,-0.06799502670764923,0.031796012073755264,-0.029466545209288597
1751013452986591200,2.85259130859375,-0.052683718502521515,0.033008817583322525,-0.017222397029399872
1751013452996534300,2.8625341796875,-0.026315759867429733,0.03861663490533829,0.0038962047547101974
1751013453006477300,2.872477294921875,-0.00700757559388876,0.04643594101071358,0.02889023721218109
1751013453016421400,2.88242138671875,0.004375040996819735,0.048281777650117874,0.04194425418972969
1751013453026364400,2.892364501953125,0.003555586328729987,0.03417767584323883,0.03858281299471855
1751013453036307500,2.902307373046875,-0.019035477191209793,0.00863157119601965,0.023379091173410416
1751013453046250200,2.912250244140625,-0.04555017501115799,-0.0011382350930944085,-0.00515721132978797
1751013453056194300,2.9221943359375,-0.058576494455337524,0.009676596149802208,-0.03635134920477867
1751013453066137300,2.932137451171875,-0.05953603237867355,0.024465128779411316,-0.06927520781755447
1751013453076080400,2.942080322265625,-0.058929894119501114,0.03453081101179123,-0.08644913882017136
1751013453086024200,2.952024169921875,-0.058527491986751556,0.04518265649676323,-0.0905408188700676
1751013453095967200,2.96196728515625,-0.05435138940811157,0.05548935756087303,-0.07836378365755081
1751013453105910300,2.97191015625,-0.03863900527358055,0.05760257691144943,-0.058391936123371124
1751013453115853300,2.981853271484375,-0.015063371509313583,0.0500546433031559,-0.032043687999248505
1751013453125797400,2.99179736328125,0.004627774935215712,0.03461283817887306,-0.002439455594867468
1751013453135740200,3.001740234375,0.014004498720169067,0.020135628059506416,0.03255155310034752
1751013453145683200,3.01168310546875,0.01757127046585083,0.006487726699560881,0.06187988072633743
1751013453155627300,3.021627197265625,0.012376775033771992,-0.0018817896489053965,0.07758187502622604
1751013453165570300,3.0315703125,0.005250421818345785,0.0041425470262765884,0.08473379909992218
1751013453175513300,3.041513427734375,-0.006572415120899677,0.019026154652237892,0.07302068173885345
1751013453185456400,3.051456298828125,-0.0068240840919315815,0.03879586607217789,0.05414419621229172
1751013453195400400,3.061400390625,-0.009555688127875328,0.04971908777952194,0.033675406128168106
1751013453205343500,3.071343505859375,-0.014372015371918678,0.06293768435716629,0.01347799226641655
1751013453215286300,3.081286376953125,-0.007841144688427448,0.07437063753604889,-0.003067695302888751
1751013453225229300,3.091229248046875,0.004604339133948088,0.09383754432201385,-0.008182561956346035
1751013453235173400,3.10117333984375,0.020246682688593864,0.08551676571369171,-0.014544321224093437
1751013453245116400,3.111116455078125,0.03569594398140907,0.061107296496629715,-0.02183871902525425
1751013453255059500,3.1210595703125,0.04656803607940674,0.04133332520723343,-0.02257508412003517
1751013453265003500,3.13100341796875,0.04513046145439148,0.029146699234843254,-0.01019564550369978
1751013453274946600,3.140946533203125,0.03928561881184578,0.022471221163868904,0.006554039195179939
1751013453284889300,3.150889404296875,0.0312199704349041,0.008049670606851578,0.018853316083550453
1751013453294832400,3.160832275390625,0.025130121037364006,-0.0015776565996930003,0.02949264459311962
1751013453304776400,3.1707763671875,0.02383768931031227,-0.009070194326341152,0.034570761024951935
1751013453314719500,3.180719482421875,0.02269359491765499,-0.00523710623383522,0.04398823156952858
1751013453324662500,3.19066259765625,0.019482355564832687,0.006892526987940073,0.04920962452888489
1751013453334606300,3.2006064453125,0.020672786980867386,0.023202789947390556,0.04792278632521629
1751013453344549400,3.21054931640625,0.020201673731207848,0.04006166383624077,0.04676910489797592
1751013453354492400,3.220492431640625,0.016322514042258263,0.04229152947664261,0.03921451419591904
1751013453364436200,3.230436279296875,0.007319165393710136,0.0379260778427124,0.028932049870491028
1751013453374380000,3.240380126953125,0.004204865079373121,0.028134165331721306,0.014337394386529922
1751013453384323000,3.250322998046875,0.003716707695275545,0.01600799523293972,0.004308195784687996
1751013453394266000,3.26026611328125,0.010824950411915779,0.01648576557636261,-0.01648256927728653
1751013453404210200,3.270210205078125,0.015073757618665695,0.02630297653377056,-0.035537220537662506
1751013453414153200,3.2801533203125,0.018083661794662476,0.03512096777558327,-0.05227279290556908
1751013453424096000,3.290095947265625,0.009999903850257397,0.040597494691610336,-0.06516994535923004
1751013453434039000,3.3000390625,0.002189118415117264,0.039447806775569916,-0.07724712044000626
1751013453443983000,3.309983154296875,-0.007933823391795158,0.03328631818294525,-0.0828607976436615
1751013453453926100,3.319926025390625,-0.006000900641083717,0.021805429831147194,-0.07935953885316849
1751013453463869200,3.329869140625,0.00021917815320193768,0.012923788279294968,-0.06740673631429672
1751013453473812200,3.339812255859375,0.007926899008452892,0.009925867430865765,-0.04869909584522247
1751013453483756000,3.349756103515625,0.011227620765566826,0.010958109050989151,-0.027831364423036575
1751013453493699000,3.359698974609375,0.01360316015779972,0.023190805688500404,-0.01489479374140501
1751013453503642000,3.36964208984375,0.018765166401863098,0.033916689455509186,-0.0012290488230064511
1751013453513586000,3.3795859375,0.0184120312333107,0.04409688711166382,0.0041191112250089645
1751013453523529000,3.389529052734375,0.014969361945986748,0.04674912989139557,0.004667988512665033
1751013453533472000,3.399471923828125,0.006150037981569767,0.04584818333387375,-0.0038099181838333607
1751013453543415000,3.4094150390625,0.006214752793312073,0.03542616590857506,-0.022107167169451714
1751013453553359000,3.419359130859375,0.010467021726071835,0.017080184072256088,-0.036441098898649216
1751013453563302100,3.42930224609375,0.01787460409104824,0.004188619554042816,-0.04427319020032883
1751013453573245000,3.439244873046875,0.01720481924712658,0.002121740486472845,-0.045466016978025436
1751013453583189000,3.44918896484375,0.012376242317259312,0.011691276915371418,-0.04200843721628189
1751013453593132000,3.459132080078125,0.00580702256411314,0.01501277182251215,-0.04278687760233879
1751013453603075000,3.469074951171875,0.0003379551344551146,0.01997370831668377,-0.04898298904299736
1751013453613018000,3.47901806640625,-0.007770038675516844,0.023316241800785065,-0.06100023537874222
1751013453622962000,3.4889619140625,-0.018699118867516518,0.024386033415794373,-0.06926162540912628
1751013453632905000,3.498905029296875,-0.024944230914115906,0.033258356153964996,-0.08003810793161392
1751013453642848000,3.508847900390625,-0.03032861091196537,0.0399135947227478,-0.08216464519500732
1751013453652791000,3.518791015625,-0.028664134442806244,0.03680488467216492,-0.07542525231838226
1751013453662735000,3.528735107421875,-0.021444838494062424,0.03544347733259201,-0.062315572053194046
1751013453672678000,3.538677978515625,-0.010610566474497318,0.03381894901394844,-0.04578133672475815
1751013453682621000,3.548620849609375,0.0034386736806482077,0.0357835628092289,-0.025552498176693916
1751013453692565000,3.55856494140625,0.00914236530661583,0.03449006751179695,-0.00845740083605051
1751013453702508000,3.568508056640625,0.010666758753359318,0.030467893928289413,-0.0016500946367159486
1751013453712451000,3.578451171875,0.0016069513512775302,0.023865384981036186,-0.001344896387308836
1751013453722394000,3.58839404296875,0.005172657780349255,0.01992017775774002,-0.012112323194742203
1751013453732338200,3.598338134765625,-0.0021116205025464296,0.01835370622575283,-0.02473810315132141
1751013453742281000,3.608281005859375,-0.006521814968436956,0.017608022317290306,-0.03700169175863266
1751013453752224000,3.61822412109375,-0.0057340520434081554,0.02948758378624916,-0.04087765887379646
1751013453762168000,3.62816796875,-0.004679440520703793,0.03753272816538811,-0.03532150387763977
1751013453772111000,3.638111083984375,0.005864547099918127,0.062360312789678574,-0.022646190598607063
1751013453782054100,3.64805419921875,0.0222078338265419,0.10333198308944702,0.002469815546646714
1751013453791997200,3.6579970703125,0.033847443759441376,0.11498517543077469,0.01985999196767807
1751013453801941200,3.667941162109375,0.036018721759319305,0.11394760757684708,0.03609009459614754
1751013453811884300,3.67788427734375,0.044251084327697754,0.08874185383319855,0.04917659983038902
1751013453821827000,3.6878271484375,0.04975796863436699,0.06722883880138397,0.06301464885473251
1751013453831770000,3.69777001953125,0.038483742624521255,0.03786668926477432,0.07521219551563263
1751013453841714200,3.707714111328125,0.023450464010238647,0.013246030546724796,0.08908460289239883
1751013453851657200,3.7176572265625,0.017883924767374992,0.005545500200241804,0.10474665462970734
1751013453861600300,3.727600341796875,0.016512664034962654,0.012586631812155247,0.1106996163725853
1751013453871544000,3.7375439453125,0.0308641716837883,0.01170379389077425,0.10719702392816544
1751013453881487000,3.747487060546875,0.048104677349328995,0.016452210023999214,0.09625622630119324
1751013453891430100,3.75743017578125,0.06175577640533447,0.03410524129867554,0.07368141412734985
1751013453901373200,3.767373291015625,0.06840915232896805,0.0566752627491951,0.04903385415673256
1751013453911317000,3.77731689453125,0.07098495960235596,0.06688103079795837,0.02178545668721199
1751013453921260000,3.787260009765625,0.06542907655239105,0.06488925218582153,-0.001421861699782312
1751013453931203000,3.797203125,0.05842868983745575,0.06572015583515167,-0.024225711822509766
1751013453941147100,3.807147216796875,0.051243480294942856,0.07461245357990265,-0.03303997591137886
1751013453951090200,3.817090087890625,0.05029672756791115,0.08171030879020691,-0.026502979919314384
1751013453961033200,3.827033203125,0.048412807285785675,0.09075706452131271,-0.01583275943994522
1751013453970976000,3.83697607421875,0.050808053463697433,0.08207648992538452,-0.0036101811565458775
1751013453980920000,3.846920166015625,0.053885068744421005,0.058704592287540436,-0.00006444849714171141
1751013453990863000,3.856863037109375,0.048106275498867035,0.025023328140378,-0.002843457041308284
1751013454000806100,3.86680615234375,0.03622538223862648,0.0013313142117112875,-0.010178068652749062
1751013454010750000,3.87675,0.022722888737916946,-0.02184138260781765,-0.020536167547106743
1751013454020693000,3.88669287109375,0.008390555158257484,-0.04140523076057434,-0.02828516811132431
1751013454030636000,3.896635986328125,0.005304217804223299,-0.04367450997233391,-0.02658953331410885
1751013454040579000,3.9065791015625,0.01170299481600523,-0.025706961750984192,-0.022276809439063072
1751013454050523100,3.916523193359375,0.02143152244389057,-0.004777444526553154,-0.010747453197836876
1751013454060466200,3.926466064453125,0.033126261085271835,0.013807158917188644,-0.003469033632427454
1751013454070409000,3.936408935546875,0.03534174710512161,0.014672686345875263,-0.005323392804712057
1751013454080352000,3.94635205078125,0.024164192378520966,0.008139419369399548,-0.01007820013910532
1751013454090296000,3.956296142578125,0.007848868146538734,-0.0004290352517273277,-0.02316311001777649
1751013454100239000,3.966239013671875,-0.008199340663850307,-0.013137106783688068,-0.03646586462855339
1751013454110182100,3.97618212890625,-0.016536898910999298,-0.01284362655133009,-0.04207181930541992
1751013454120126000,3.9861259765625,-0.014791995286941528,-0.011810320429503918,-0.03826935961842537
1751013454130069000,3.996069091796875,-0.009032909758388996,-0.004020840395241976,-0.029089175164699554
1751013454140012000,4.006011962890625,0.0027446537278592587,-0.00047936898772604764,-0.016099074855446815
1751013454149955000,4.015955078125,0.014101970940828323,-0.003025350859388709,-0.004293015692383051
1751013454159899000,4.02589892578125,0.017778463661670685,-0.006539125461131334,0.0022418489679694176
1751013454169842000,4.035842041015625,0.013372264802455902,-0.008867527358233929,0.006464823614805937
1751013454179785000,4.045784912109375,0.003498328384011984,-0.018743593245744705,-0.00404480891302228
1751013454189729000,4.05572900390625,-0.0057529606856405735,-0.028617795556783676,-0.01635820046067238
1751013454199672000,4.065672119140625,-0.010852914303541183,-0.028872927650809288,-0.030659908428788185
1751013454209615000,4.075614990234375,-0.01714622974395752,-0.02058543637394905,-0.039447274059057236
1751013454219558000,4.085557861328125,-0.017884723842144012,-0.0059756007976830006,-0.04595790430903435
1751013454229502000,4.095501953125,-0.019458120688796043,0.007487477269023657,-0.046908386051654816
1751013454239445000,4.105445068359375,-0.016627179458737373,-0.0007057376787997782,-0.04308515414595604
1751013454249388000,4.115387939453125,-0.009895240887999535,0.0036069853231310844,-0.03503148630261421
1751013454259332000,4.12533203125,-0.005790777504444122,0.011956261470913887,-0.02165496163070202
1751013454269275100,4.135275146484375,0.0012937636347487569,0.01495125237852335,-0.015619706362485886
1751013454279218000,4.145218017578125,0.005877064075320959,0.00947872269898653,-0.006648847833275795
1751013454289161000,4.155160888671875,0.012211658991873264,0.00612367270514369,-0.0010490191634744406
1751013454299105300,4.165105224609375,0.011289140209555626,0.004027232062071562,-0.002520149340853095
1751013454309048000,4.175048095703125,0.009562612511217594,0.0057401773519814014,-0.002490321872755885
1751013454318991000,4.1849912109375,0.012296080589294434,0.010432400740683079,-0.006428071763366461
1751013454328934100,4.19493408203125,0.009970076382160187,0.02340865321457386,-0.013422331772744656
1751013454338878200,4.204878173828125,0.01113494299352169,0.0322711206972599,-0.015532886609435081
1751013454348821200,4.2148212890625,0.01375442836433649,0.044389836490154266,-0.015263108536601067
1751013454358764300,4.224764404296875,0.015143533237278461,0.046366699039936066,-0.013822604902088642
1751013454368711700,4.234711669921875,0.006116481963545084,0.04691717401146889,-0.003111637430265546
1751013454378654700,4.24465478515625,0.0008215851848945022,0.03516145050525665,0.009577525779604912
1751013454388597800,4.25459765625,-0.005752161610871553,0.02532746084034443,0.021872276440262794
1751013454398540800,4.264540771484375,-0.008402805775403976,0.00968778133392334,0.025606825947761536
1751013454408484600,4.274484619140625,-0.011040134355425835,-0.001116130850277841,0.031078023836016655
1751013454418427600,4.284427734375,-0.014466557651758194,-0.004765726625919342,0.024771925061941147
1751013454428370700,4.29437060546875,-0.024513065814971924,0.0007217166712507606,0.005458415020257235
1751013454438314800,4.304314697265625,-0.030466828495264053,0.011078749783337116,-0.011313107796013355
1751013454448257800,4.3142578125,-0.03205700218677521,0.02496260777115822,-0.03098401427268982
1751013454458200600,4.32420068359375,-0.033724140375852585,0.02959464304149151,-0.0434579961001873
1751013454468143600,4.3341435546875,-0.02719833143055439,0.03592604398727417,-0.052926063537597656
1751013454478087700,4.344087646484375,-0.016716130077838898,0.04520449414849281,-0.048462074249982834
1751013454488030700,4.35403076171875,-0.0036541232839226723,0.052504219114780426,-0.03554334491491318
1751013454497973800,4.363973876953125,-0.0018868496408686042,0.04920775815844536,-0.02209518291056156
1751013454507917600,4.37391748046875,-0.006207828409969807,0.03380217030644417,-0.011799667961895466
1751013454517860600,4.383860595703125,-0.016437828540802002,0.022250443696975708,-0.002159823663532734
1751013454527803600,4.3938037109375,-0.03002927079796791,0.011738947592675686,-0.0004703142330981791
1751013454537746700,4.40374658203125,-0.04930070415139198,0.003662378992885351,-0.00512711750343442
1751013454547690800,4.413690673828125,-0.06114298105239868,0.006561229936778545,-0.01944427192211151
1751013454557633500,4.423633544921875,-0.06352385133504868,0.017647702246904373,-0.033841319382190704
1751013454567576600,4.43357666015625,-0.060811419039964676,0.03453773632645607,-0.0424281507730484
1751013454577519600,4.44351953125,-0.052023254334926605,0.050942011177539825,-0.049064215272665024
1751013454587464000,4.4534638671875,-0.03970000892877579,0.05855146050453186,-0.04729720950126648
1751013454597406700,4.46340673828125,-0.028570124879479408,0.050811782479286194,-0.03970027342438698
1751013454607349800,4.473349853515625,-0.015895875170826912,0.040538638830184937,-0.027066770941019058
1751013454617293800,4.4832939453125,-0.012889965437352657,0.03261733055114746,-0.013610883615911007
1751013454627236900,4.49323681640625,-0.010386594571173191,0.02652561664581299,-0.003939347807317972
1751013454637180000,4.503179931640625,-0.01079778652638197,0.022785207256674767,0.0049497513100504875
1751013454647123000,4.513123046875,-0.008415855467319489,0.018849587067961693,0.0075545888394117355
1751013454657066800,4.523066650390625,-0.005142297595739365,0.019464511424303055,0.004092479590326548
1751013454667009800,4.533009765625,-0.0003888215287588537,0.03621552884578705,-0.0027869981713593006
1751013454676952800,4.542952880859375,-0.0023164174053817987,0.04120868816971779,-0.015515043400228024
1751013454686897000,4.55289697265625,-0.0007795072160661221,0.04718136042356491,-0.030276944860816002
1751013454696840000,4.56283984375,0.0007534082396887243,0.05204642191529274,-0.04854835942387581
1751013454706782700,4.57278271484375,0.006758303847163916,0.055881109088659286,-0.06610791385173798
1751013454716725800,4.582725830078125,0.0054552191868424416,0.05793067812919617,-0.0726555585861206
1751013454726669800,4.592669921875,0.0046179210767149925,0.059124041348695755,-0.07052157074213028
1751013454736612900,4.60261279296875,-0.002918291836977005,0.0635872334241867,-0.05845052748918533
1751013454746556000,4.612555908203125,-0.014636733569204807,0.056887783110141754,-0.04328196123242378
1751013454756499700,4.622499755859375,-0.01732705906033516,0.040171921253204346,-0.027593810111284256
1751013454766442800,4.63244287109375,-0.01877954602241516,0.02550935372710228,-0.012564527802169323
1751013454776385800,4.6423857421875,-0.015682822093367577,0.02008795738220215,0.00012623383372556418
1751013454786328800,4.652328857421875,-0.013591175898909569,0.02082299068570137,0.005052282940596342
1751013454796272600,4.662272705078125,-0.005742574110627174,0.026747457683086395,0.00526560191065073
1751013454806215700,4.672215576171875,0.0028578380588442087,0.034157171845436096,-0.00022530343267135322
1751013454816158700,4.68215869140625,0.011008975096046925,0.03149054944515228,-0.007877896539866924
1751013454826102800,4.692102783203125,0.01236505713313818,0.021691713482141495,-0.018213624134659767
1751013454836045800,4.7020458984375,0.012810070998966694,0.008244880475103855,-0.03409644961357117
1751013454845988900,4.71198876953125,0.006071474403142929,0.006030461750924587,-0.037881337106227875
1751013454855931600,4.721931640625,0.006345780100673437,0.013770407065749168,-0.03891544044017792
1751013454865875700,4.731875732421875,0.005932457745075226,0.011304586194455624,-0.03893062099814415
1751013454875818800,4.74181884765625,0.010785003192722797,0.004116714466363192,-0.03568742424249649
1751013454885761800,4.75176171875,0.0148636344820261,5.326322138898831e-7,-0.03654203191399574
1751013454895705600,4.76170556640625,0.018374746665358543,0.0052142031490802765,-0.025584455579519272
1751013454905648600,4.771648681640625,0.016285495832562447,0.003876497270539403,-0.020613398402929306
1751013454915591700,4.781591796875,0.014852715656161308,0.01107741892337799,-0.007815845310688019
1751013454925534700,4.79153466796875,0.014904114417731762,0.020782776176929474,-0.0006087986403144896
1751013454935478800,4.801478759765625,0.016869528219103813,0.03520911931991577,0.0035510589368641376
1751013454945421600,4.811421630859375,0.020381171256303787,0.04453417658805847,0.0057066213339567184
1751013454955364600,4.821364501953125,0.027820179238915443,0.046124882996082306,0.011482219211757183
1751013454965307600,4.8313076171875,0.0330469012260437,0.036070119589567184,0.0132713308557868
1751013454975251700,4.841251708984375,0.03626213222742081,0.024574052542448044,0.011885421350598335
1751013454985194800,4.85119482421875,0.038116227835416794,0.010550112463533878,0.009785252623260021
1751013454995137800,4.8611376953125,0.03897509723901749,0.0025920546613633633,0.003029612125828862
1751013455005081600,4.87108154296875,0.03718492016196251,-0.0009864348685368896,0.00029640982393175364
1751013455015024600,4.881024658203125,0.036550287157297134,0.00526613462716341,-0.009247294627130032
1751013455024967700,4.8909677734375,0.03347540274262428,0.01677711494266987,-0.0164966844022274
1751013455034910700,4.90091064453125,0.026692330837249756,0.02743322215974331,-0.02220703475177288
1751013455044854500,4.9108544921875,0.02725692093372345,0.030248982831835747,-0.022604377940297127
1751013455054797600,4.920797607421875,0.0205694567412138,0.033117473125457764,-0.024887772276997566
1751013455064740600,4.93074072265625,0.0162372924387455,0.02918931096792221,-0.023213710635900497
1751013455074685000,4.940684814453125,0.011081946082413197,0.022605443373322487,-0.017316406592726707
1751013455084627700,4.950627685546875,0.010606572031974792,0.01152589451521635,-0.00347435986623168
1751013455094570800,4.96057080078125,0.010433199815452099,0.006229133810847998,0.013104616664350033
1751013455104513500,4.970513427734375,0.01618349738419056,0.0009629990672692657,0.025611087679862976
1751013455114457900,4.980457763671875,0.0183478482067585,-0.0010583401890471578,0.029093170538544655
1751013455124401000,4.99040087890625,0.01696726493537426,-0.005078115500509739,0.022773222997784615
1751013455134344000,5.000343994140625,0.013440174981951714,-0.005111671518534422,0.012973322533071041
1751013455144287700,5.010287841796875,0.008652077987790108,0.00017789915727917105,-0.002130795270204544
1751013455154230800,5.020230712890625,0.0037534593138843775,0.01525645051151514,-0.022117020562291145
1751013455164173800,5.030173828125,0.003969175275415182,0.035121768712997437,-0.0356229767203331
1751013455174116900,5.040116943359375,-0.0016250609187409282,0.0423719584941864,-0.04940909519791603
1751013455184061000,5.05006103515625,-0.0014599448768422008,0.03761954605579376,-0.053521547466516495
1751013455194003700,5.060003662109375,-0.008754609152674675,0.033121734857559204,-0.04489583522081375
1751013455203946800,5.06994677734375,-0.00848802737891674,0.02160835638642311,-0.021228056401014328
1751013455213890800,5.079890869140625,-0.00541367381811142,-0.002302036387845874,-0.0020911141764372587
1751013455223833900,5.089833740234375,-0.0030945930629968643,-0.027514714747667313,0.01636991836130619
1751013455233777000,5.09977685546875,0.0027023095171898603,-0.03322399780154228,0.03086550347507
1751013455243720000,5.109719970703125,-0.0030128341168165207,-0.024325579404830933,0.036971598863601685
1751013455253663700,5.119663818359375,-0.00941906776279211,-0.010996191762387753,0.03622431680560112
1751013455263606800,5.129606689453125,-0.0017624800093472004,0.0009070726810023189,0.030593594536185265
1751013455273549800,5.1395498046875,0.014112357050180435,0.013512346893548965,0.01461755856871605
1751013455283493600,5.14949365234375,0.032334502786397934,0.0169153343886137,0.0023209447972476482
1751013455293436700,5.159436767578125,0.040472857654094696,0.018396584317088127,-0.013142700307071209
1751013455303379700,5.169379638671875,0.04361671954393387,0.01624581590294838,-0.02611735463142395
1751013455313322800,5.17932275390625,0.03756575286388397,0.01375203114002943,-0.034624554216861725
1751013455323266800,5.189266845703125,0.02334127575159073,0.01956225000321865,-0.030290527269244194
1751013455333209900,5.1992099609375,0.01085584331303835,0.014703045599162579,-0.02647474966943264
1751013455343152600,5.209152587890625,-0.005592105444520712,-0.0037289580795913935,-0.02418629638850689
1751013455353096700,5.2190966796875,-0.012327239848673344,-0.026158366352319717,-0.01624288596212864
1751013455363036200,5.2290361328125,-0.015263907611370087,-0.03502136841416359,-0.01635953225195408
1751013455372979200,5.238979248046875,-0.013824203051626682,-0.02640630677342415,-0.015250325202941895
1751013455382922200,5.248922119140625,-0.007421431131660938,-0.005395297892391682,-0.012811935506761074
1751013455392866000,5.258865966796875,-0.0005909554311074317,0.018041051924228668,-0.012864399701356888
1751013455402809000,5.26880908203125,0.009520001709461212,0.028661739081144333,-0.014786669053137302
1751013455412752100,5.278752197265625,0.019060242921113968,0.037028856575489044,-0.020834175869822502
1751013455422696200,5.2886962890625,0.020591827109456062,0.03368765488266945,-0.023917051032185555
1751013455432639200,5.29863916015625,0.013478790409862995,0.022416625171899796,-0.03856470435857773
1751013455442582000,5.30858203125,0.003691940102726221,0.008555937558412552,-0.04543885588645935
1751013455452525000,5.318525146484375,-0.005110606085509062,-0.0089953588321805,-0.04813876748085022
1751013455462469000,5.32846923828125,-0.007450459524989128,-0.010673683136701584,-0.0486769899725914
1751013455472412200,5.338412109375,-0.003762513864785433,-0.003102849004790187,-0.03784884512424469
1751013455482355200,5.348355224609375,0.0018053569365292788,0.010247311554849148,-0.03291214257478714
1751013455492299000,5.358299072265625,0.0035774242132902145,0.023274961858987808,-0.02334526926279068
1751013455502242000,5.368241943359375,0.008788165636360645,0.034807514399290085,-0.019478360190987587
1751013455512185000,5.37818505859375,0.009008142165839672,0.04656483978033066,-0.00762782571837306
1751013455522128100,5.388128173828125,0.006052566226571798,0.05098035931587219,0.004875182639807463
1751013455532072200,5.398072265625,0.005285043269395828,0.044450823217630386,0.016518522053956985
1751013455542015000,5.408014892578125,0.006969226058572531,0.026035329326987267,0.021865617483854294
1751013455551958000,5.4179580078125,0.005623264703899622,0.010370083153247833,0.024029701948165894
1751013455561902000,5.427902099609375,0.00558251840993762,0.0017965685110539198,0.018506838008761406
1751013455571845000,5.43784521484375,0.000008788431841821875,-0.0031731564085930586,0.009749033488333225
1751013455581788200,5.4477880859375,-0.0020812603179365396,0.006047506351023912,-0.0019856528379023075
1751013455591731000,5.45773095703125,-0.004834702704101801,0.013931794092059135,-0.01654195785522461
1751013455601675000,5.467675048828125,-0.004246943164616823,0.02160010114312172,-0.018491126596927643
1751013455611618000,5.4776181640625,0.0024351945612579584,0.026383137330412865,-0.029156554490327835
1751013455621561000,5.48756103515625,0.010114419274032116,0.029048163443803787,-0.02689925767481327
1751013455631505000,5.4975048828125,0.020262926816940308,0.03487995266914368,-0.020808609202504158
1751013455641448000,5.507447998046875,0.019304189831018448,0.031003456562757492,-0.014850851148366928
1751013455651391000,5.517390869140625,0.015266304835677147,0.03326234966516495,-0.005899700801819563
1751013455661334000,5.527333984375,-0.0005230448441579938,0.027056118473410606,0.004254666157066822
1751013455671278000,5.537278076171875,-0.006671750918030739,0.02064189501106739,0.011457717977464199
1751013455681221000,5.54722119140625,-0.007278419099748135,0.009064601734280586,0.01721067912876606
1751013455691164000,5.557163818359375,-0.009384979493916035,0.003939081449061632,0.017488978803157806
1751013455701108200,5.567108154296875,-0.00987180508673191,0.007269097957760096,0.008642223663628101
1751013455711051300,5.57705126953125,-0.00669225724413991,0.018008029088377953,-0.009368734434247017
1751013455720994300,5.586994384765625,-0.009524528868496418,0.027521373704075813,-0.024517061188817024
1751013455730937000,5.59693701171875,-0.006654973141849041,0.039076030254364014,-0.03615747019648552
1751013455740881200,5.606881103515625,-0.0010479538468644023,0.05308292433619499,-0.0420992486178875
1751013455750824200,5.61682421875,0.0022173479665070772,0.06035894900560379,-0.03767067939043045
1751013455760767200,5.626767333984375,0.01053466647863388,0.057436395436525345,-0.035172101110219955
1751013455770711300,5.636711181640625,0.009862218052148819,0.04381778836250305,-0.0236416794359684
1751013455780654000,5.646654052734375,0.008228901773691177,0.021874139085412025,-0.008477906696498394
1751013455790597000,5.65659716796875,0.007791344076395035,0.0036786242853850126,-0.00016218650853261352
1751013455800540200,5.6665400390625,0.005811283830553293,-0.007196393795311451,0.004314853344112635
1751013455810484200,5.676484130859375,0.0009502158500254154,-0.011962120421230793,0.0027893949300050735
1751013455820427300,5.68642724609375,-0.006935936864465475,0.0022892532870173454,-0.003166232258081436
1751013455830370300,5.696370361328125,-0.009184177033603191,0.023872310295701027,-0.016281235963106155
1751013455840314000,5.706314208984375,-0.006739661563187838,0.04332776740193367,-0.026147181168198586
1751013455850257200,5.716257080078125,0.0022072279825806618,0.04344015195965767,-0.03461816534399986
1751013455860200200,5.7262001953125,0.010549313388764858,0.031673505902290344,-0.036848295480012894
1751013455870143200,5.736143310546875,0.015456986613571644,0.019663715735077858,-0.03623390570282936
1751013455880087000,5.746087158203125,0.01738378405570984,0.011141334660351276,-0.03130439296364784
1751013455890030000,5.756030029296875,0.015600531361997128,0.009191367775201797,-0.024831047281622887
1751013455899973000,5.76597314453125,0.004423776641488075,0.015680693089962006,-0.02286696620285511
1751013455909917200,5.775917236328125,-0.007601194549351931,0.018865833058953285,-0.01954573765397072
1751013455919860200,5.785860107421875,-0.014493455179035664,0.014361361972987652,-0.022593991830945015
1751013455929803000,5.795802978515625,-0.015454323962330818,0.007832356728613377,-0.02917413040995598
1751013455939746000,5.80574609375,-0.006842459551990032,0.007398793939501047,-0.032402414828538895
1751013455949690000,5.815690185546875,0.005115133244544268,0.008991098031401634,-0.03991838917136192
1751013455959633200,5.825633056640625,0.01133654359728098,0.01522742211818695,-0.03681713715195656
1751013455969576200,5.835576171875,0.011579690501093864,0.018443988636136055,-0.040714673697948456
1751013455979520000,5.84552001953125,0.010105631314218044,0.023194801062345505,-0.03898947685956955
1751013455989463000,5.855463134765625,0.009248359128832817,0.024100808426737785,-0.03672073036432266
1751013455999406000,5.865406005859375,0.007479754276573658,0.024599885568022728,-0.02990889735519886
1751013456009350100,5.87535009765625,0.0033041839487850666,0.02214737981557846,-0.0232310201972723
1751013456019293200,5.885293212890625,0.001954493811354041,0.014092649333178997,-0.018149709329009056
1751013456029236000,5.895236083984375,0.0017678063595667481,0.001973402453586459,-0.02184244804084301
1751013456039179000,5.905178955078125,0.004226170480251312,-0.0046480149030685425,-0.02563372440636158
1751013456049123000,5.915123046875,0.0060325926169753075,-0.0062879896722733974,-0.0354464091360569
1751013456059066000,5.925066162109375,0.008953813463449478,-0.001258876291103661,-0.039015043526887894
1751013456069009200,5.935009033203125,0.0057372478768229485,0.015728630125522614,-0.036501817405223846
1751013456078953000,5.944952880859375,0.011832957156002522,0.03678517788648605,-0.028147747740149498
1751013456088896000,5.95489599609375,0.021583588793873787,0.048230912536382675,-0.01967543363571167
1751013456098839000,5.964839111328125,0.024211596697568893,0.05067063495516777,-0.008900550194084644
1751013456108782000,5.974781982421875,0.025656627491116524,0.04512114077806473,0.0046267095021903515
1751013456118726000,5.984725830078125,0.029280656948685646,0.0273237656801939,0.01684316247701645
1751013456128669000,5.9946689453125,0.026434537023305893,0.007866711355745792,0.021868281066417694
1751013456138612000,6.004612060546875,0.024953020736575127,-0.00926167517900467,0.02209198661148548
1751013456148556300,6.014556396484375,0.017734788358211517,-0.01872308738529682,0.012080364860594273
1751013456158499000,6.0244990234375,0.0012844426091760397,-0.009060606360435486,-0.008422513492405415
1751013456168442000,6.034442138671875,-0.009573531337082386,0.008559665642678738,-0.02701670303940773
1751013456178385000,6.044385009765625,-0.010786601342260838,0.02220170944929123,-0.047498542815446854
1751013456188329200,6.0543291015625,-0.008568987250328064,0.040775127708911896,-0.061409831047058105
1751013456198272300,6.064272216796875,0.00717748561874032,0.05818154662847519,-0.06386127322912216
1751013456208215300,6.07421533203125,0.017344102263450623,0.07286222279071808,-0.0473688468337059
1751013456218159000,6.0841591796875,0.024212662130594254,0.07785911113023758,-0.024646490812301636
1751013456228102100,6.09410205078125,0.015548599883913994,0.0641893744468689,-0.0034045851789414883
1751013456238045200,6.104045166015625,0.0008277104352600873,0.05044666305184364,0.01738325133919716
1751013456247988200,6.11398828125,-0.013205816969275475,0.03478620946407318,0.02828703075647354
1751013456257932300,6.123932373046875,-0.02768009714782238,0.020304206758737564,0.031089209020137787
1751013456267875000,6.133875,-0.033671941608190536,0.022472286596894264,0.029035113751888275
1751013456277818000,6.143818115234375,-0.036979589611291885,0.0363612025976181,0.018918298184871674
1751013456287762200,6.15376220703125,-0.035467181354761124,0.06229399889707565,0.005292766261845827
1751013456297705200,6.163705322265625,-0.02773815393447876,0.09467111527919769,-0.005563077051192522
1751013456307648300,6.173648193359375,-0.018004566431045532,0.1238018348813057,-0.01985866017639637
1751013456317591300,6.18359130859375,-0.00384453940205276,0.11526241153478622,-0.03951678425073624
1751013456327535000,6.19353515625,0.009913084097206593,0.09014827013015747,-0.04848870635032654
1751013456337478100,6.20347802734375,0.014217019081115723,0.06621257215738297,-0.05114521086215973
1751013456347421200,6.213421142578125,0.017122527584433556,0.05825158953666687,-0.044023383408784866
1751013456357365200,6.223365234375,0.011261176317930222,0.05367175117135048,-0.031924642622470856
1751013456367307800,6.233307861328125,0.006423011887818575,0.05030445009469986,-0.024080835282802582
1751013456377250600,6.24325048828125,0.004144411068409681,0.03575799614191055,-0.010356234386563301
1751013456387194600,6.253194580078125,0.007288539316505194,0.032826654613018036,0.009860353544354439
1751013456397137700,6.2631376953125,0.009159409441053867,0.031022097915410995,0.017555823549628258
1751013456407080700,6.273080810546875,0.012133095413446426,0.029294239357113838,0.022605976089835167
1751013456417023700,6.283023681640625,0.010587397031486034,0.02750912308692932,0.022216888144612312
1751013456426967600,6.292967529296875,0.008436894044280052,0.01882508583366871,0.015809323638677597
1751013456436910600,6.30291064453125,0.004313255660235882,0.00595589354634285,0.008831840939819813
1751013456446853600,6.312853515625,0.005420598201453686,-0.003370230318978429,-0.00797377061098814
1751013456456797700,6.322797607421875,0.010568488389253616,-0.009126386605203152,-0.022277608513832092
1751013456466740700,6.33274072265625,0.013480122201144695,0.009108010679483414,-0.03271213918924332
1751013456476683500,6.34268359375,0.014660435728728771,0.03335103392601013,-0.035650938749313354
1751013456486626600,6.35262646484375,0.011690744198858738,0.0531228743493557,-0.03988909348845482
1751013456496570600,6.362570556640625,0.009882192127406597,0.05200434476137161,-0.03919427469372749
1751013456506513700,6.372513671875,0.005794506054371595,0.03640035167336464,-0.03123328648507595
1751013456516456700,6.382456787109375,0.00833889003843069,0.019895410165190697,-0.021854965016245842
1751013456526400800,6.39240087890625,0.011145062744617462,0.0025068335235118866,-0.007978297770023346
1751013456536343800,6.40234375,0.015094530768692493,-0.014738998375833035,-0.0009867012267932296
1751013456546286600,6.41228662109375,0.008447812870144844,-0.025490179657936096,0.004836566746234894
1751013456556229600,6.422229736328125,0.009047556668519974,-0.022912239655852318,0.00267674308270216
1751013456566173700,6.432173583984375,0.0018964370246976614,-0.007414240390062332,-0.001356347929686308
1751013456576116700,6.44211669921875,0.01344416942447424,0.012499280273914337,-0.01011042483150959
1751013456586059800,6.452059814453125,0.020795825868844986,0.033722009509801865,-0.01605859585106373
1751013456596003800,6.46200390625,0.031063644215464592,0.04591289535164833,-0.021626198664307594
1751013456605947000,6.47194677734375,0.031503066420555115,0.0311009269207716,-0.02965429797768593
1751013456615889700,6.4818896484375,0.024346351623535156,0.012242285534739494,-0.03105991519987583
1751013456625833700,6.491833740234375,0.01733957603573799,-0.0057502975687384605,-0.02875947579741478
1751013456635776800,6.50177685546875,0.005452556069940329,-0.004414988216012716,-0.012751747854053974
1751013456645719800,6.5117197265625,0.0011121360585093498,0.011634818278253078,0.010464359074831009
1751013456655662800,6.521662841796875,0.0018042916199192405,0.021458420902490616,0.03305435553193092
1751013456665606700,6.531606689453125,0.007868043147027493,0.02750779129564762,0.04464496672153473
1751013456675549700,6.5415498046875,0.012606339529156685,0.02941647730767727,0.04878378286957741
1751013456685492700,6.55149267578125,0.016950754448771477,0.02347443252801895,0.049317482858896255
1751013456695436800,6.561436767578125,0.018913237378001213,0.02261396497488022,0.03928269073367119
1751013456705379800,6.5713798828125,0.021197963505983353,0.02400919608771801,0.03369804099202156
1751013456715322600,6.581322509765625,0.018641861155629158,0.026686204597353935,0.02087918296456337
1751013456725265700,6.591265625,0.013537912629544735,0.0295467060059309,0.00959590170532465
1751013456735209700,6.601209716796875,0.005969741847366095,0.02611176110804081,-0.0012668657582253218
1751013456745152800,6.61115283203125,0.0020900487434118986,0.026580210775136948,-0.006400375161319971
1751013456755095800,6.621095703125,-0.0026413232553750277,0.028135230764746666,-0.010513094253838062
1751013456765039600,6.63103955078125,0.00032197617110796273,0.03516038507223129,-0.011981295421719551
1751013456774982700,6.640982666015625,-0.003460777923464775,0.032474584877491,-0.006203301250934601
1751013456784925700,6.65092578125,-0.009636381641030312,0.027180753648281097,-0.004177700728178024
1751013456794869800,6.660869873046875,-0.012691027484834194,0.025380190461874008,-0.00009187905379803851
1751013456804812500,6.6708125,-0.011707788333296776,0.02041020058095455,-0.0007281082216650248
1751013456814755600,6.680755615234375,-0.013095562346279621,0.01296586636453867,-0.0016072177095338702
1751013456824698600,6.69069873046875,-0.007836351171135902,0.013702495954930782,-0.006117547396570444
1751013456834642700,6.700642578125,-0.009286709129810333,0.020329773426055908,-0.016755277290940285
1751013456844585700,6.710585693359375,-0.01998649165034294,0.03154114633798599,-0.026942934840917587
1751013456854528800,6.72052880859375,-0.03440564498305321,0.04340206831693649,-0.0364629365503788
1751013456864472600,6.73047265625,-0.037881601601839066,0.04213254153728485,-0.0468873456120491
1751013456874415600,6.74041552734375,-0.03400084376335144,0.031083883717656136,-0.04703168943524361
1751013456884358700,6.750358642578125,-0.017343835905194283,0.019785689190030098,-0.047095607966184616
1751013456894301700,6.7603017578125,0.0010247844038531184,0.013836453668773174,-0.04171841964125633
1751013456904245500,6.77024560546875,0.021264808252453804,0.012774384580552578,-0.028173580765724182
1751013456914188500,6.7801884765625,0.024399615824222565,0.01894705928862095,-0.01800030656158924
1751013456924131600,6.790131591796875,0.024704281240701675,0.10165605694055557,-0.013573865406215191
1751013456934075600,6.80007568359375,0.030532876029610634,0.11034435033798218,-0.03087562508881092
1751013456944018700,6.810018798828125,0.042873166501522064,0.09154802560806274,-0.05711441859602928
1751013456953961700,6.819961669921875,0.03646852821111679,0.07573764026165009,-0.07949668914079666
1751013456963905800,6.82990576171875,0.029818348586559296,0.07832862436771393,-0.08840203285217285
1751013456973848800,6.839848876953125,0.0234717708081007,0.07545560598373413,-0.08794236928224564
1751013456983791600,6.84979150390625,0.021922875195741653,0.08052387088537216,-0.08296279609203339
1751013456993734700,6.859734619140625,0.01438000425696373,0.07900454103946686,-0.06710314005613327
1751013457003678700,6.8696787109375,0.0038125813007354736,0.06576117128133774,-0.049496714025735855
1751013457013621800,6.879621826171875,0.001201884588226676,0.02918957732617855,-0.02527073584496975
1751013457023564800,6.889564697265625,0.007507717236876488,-0.005876531358808279,0.0018671422731131315
1751013457033508900,6.8995087890625,0.018558770418167114,-0.032397087663412094,0.023005716502666473
1751013457043452000,6.909451904296875,0.023541545495390892,-0.04386838898062706,0.03820357844233513
1751013457053394700,6.919394775390625,0.02654079720377922,-0.03333398699760437,0.04904530569911003
1751013457063337700,6.929337646484375,0.020719392225146294,-0.014194648712873459,0.04850335419178009
1751013457073281800,6.93928173828125,0.012477176263928413,-0.006440322380512953,0.034759312868118286
1751013457083224800,6.949224853515625,0.006027798634022474,-0.016458867117762566,0.011994345113635063
1751013457093167900,6.95916796875,0.0025598304346203804,-0.026190325617790222,-0.014043380506336689
1751013457103111700,6.969111572265625,0.0062765381298959255,-0.025192970409989357,-0.03905099630355835
1751013457113054700,6.9790546875,0.008875517174601555,-0.004926315508782864,-0.050273824483156204
1751013457122997800,6.988997802734375,0.010613761842250824,0.01588602177798748,-0.0547090508043766
1751013457132941800,6.99894189453125,0.011665711179375648,0.029527265578508377,-0.04587268456816673
1751013457142884600,7.008884521484375,0.011343734338879585,0.02719167433679104,-0.03081144206225872
1751013457152827600,7.01882763671875,0.01708950474858284,0.01858433708548546,-0.016591226682066917
1751013457162770700,7.028770751953125,0.026822293177247047,0.011451326310634613,0.002834135899320245
1751013457172714800,7.03871484375,0.0335952453315258,0.004192614462226629,0.01896117441356182
1751013457182657800,7.04865771484375,0.040411606431007385,-0.008599347434937954,0.034999262541532516
1751013457192600800,7.058600830078125,0.039867255836725235,-0.019712718203663826,0.03995487466454506
1751013457202544600,7.068544677734375,0.022281603887677193,-0.04135196655988693,0.03984115645289421
1751013457212487700,7.07848779296875,0.008527974598109722,-0.047017041593790054,0.024686437100172043
1751013457222430700,7.0884306640625,-0.009590575471520424,-0.044073451310396194,0.012270514853298664
1751013457232373800,7.098373779296875,-0.01834811456501484,-0.024683775380253792,0.0007060039788484573
1751013457242317600,7.108317626953125,-0.021204087883234024,-0.003611246356740594,-0.01737925596535206
1751013457252260600,7.118260498046875,-0.01575712487101555,0.018137725070118904,-0.022882146760821342
1751013457262203600,7.12820361328125,-0.004891161806881428,0.030361633747816086,-0.025780463591217995
1751013457272147700,7.138147705078125,0.006852846127003431,0.03604322299361229,-0.020924456417560577
1751013457282090800,7.1480908203125,0.017558753490447998,0.03219548612833023,-0.015367770567536354
1751013457292033800,7.15803369140625,0.021154021844267845,0.02316231094300747,-0.0059865196235477924
1751013457301977600,7.1679775390625,0.015300925821065903,0.009757822379469872,0.0014287859667092562
1751013457311920600,7.177920654296875,0.009761017747223377,-0.01654009521007538,0.0019321233266964555
1751013457321863700,7.18786376953125,-0.0011227887589484453,-0.028016187250614166,-0.0013912353897467256
1751013457331806700,7.197806640625,-0.010211891494691372,-0.02311171032488346,-0.0009203884401358664
1751013457341750500,7.20775048828125,-0.012717925943434238,-0.012781308963894844,-0.002686596941202879
1751013457351693600,7.217693603515625,-0.01714196801185608,0.0000876179983606562,-0.005391037091612816
1751013457361636600,7.22763671875,-0.00475534051656723,0.001618403010070324,-0.0057558901607990265
1751013457371580400,7.237580322265625,0.009604690596461296,-0.001457814360037446,-0.0032836776226758957
1751013457381523500,7.2475234375,0.0245498176664114,0.0023257385473698378,0.003317233407869935
1751013457391466500,7.257466552734375,0.034518029540777206,0.004327903036028147,0.009001484140753746
1751013457401410300,7.267410400390625,0.03394971042871475,-0.0015603461069986224,0.011692075990140438
1751013457411353300,7.277353271484375,0.022815832868218422,-0.007266434840857983,0.010261425748467445
1751013457421296400,7.28729638671875,0.009163138456642628,-0.022755645215511322,0.0021526331547647715
1751013457431239400,7.297239501953125,-0.006964166183024645,-0.03105512075126171,-0.003998736385256052
1751013457441183500,7.30718359375,-0.015143533237278461,-0.03406848758459091,-0.006804642733186483
1751013457451126300,7.317126220703125,-0.022004634141921997,-0.034332673996686935,-0.007168963085860014
1751013457461069300,7.3270693359375,-0.012986638583242893,-0.028857747092843056,0.002665291540324688
1751013457471013600,7.337013671875,0.005982525181025267,-0.023078421130776405,0.015476960688829422
1751013457480956700,7.346956787109375,0.021767612546682358,-0.022004900500178337,0.026563700288534164
1751013457490899500,7.3568994140625,0.030767766758799553,-0.023211846128106117,0.02454502321779728
1751013457500843500,7.366843505859375,0.026548253372311592,-0.027460653334856033,0.02069063112139702
1751013457510786600,7.37678662109375,0.008378837257623672,-0.03187883645296097,0.0024956483393907547
1751013457520729600,7.3867294921875,-0.012830045074224472,-0.03472336009144783,-0.012487296015024185
1751013457530672600,7.396672607421875,-0.022600917145609856,-0.03542536869645119,-0.022536467760801315
1751013457540616400,7.406616455078125,-0.01756807416677475,-0.029378395527601242,-0.031557127833366394
1751013457550559500,7.4165595703125,-0.005828061606734991,-0.0202243123203516,-0.035598739981651306
1751013457560502500,7.42650244140625,0.0033571808598935604,-0.01107395626604557,-0.0379074364900589
1751013457570446600,7.436446533203125,0.009611881338059902,0.0020602215081453323,-0.04073890671133995
1751013457580389400,7.446389404296875,0.005570800509303808,0.008394017815589905,-0.04093464836478233
1751013457590332400,7.45633251953125,0.006286924239248037,0.012192217633128166,-0.041979674249887466
1751013457600275500,7.466275390625,-0.001055943313986063,0.015471368096768856,-0.036984384059906006
1751013457610219500,7.476219482421875,-0.002301770029589534,0.016758207231760025,-0.027452928945422173
1751013457620162600,7.48616259765625,-0.0035140409599989653,0.015417305752635002,-0.014228470623493195
1751013457630105600,7.496105712890625,-0.006886401679366827,0.019657324999570847,0.010404171422123909
1751013457640049400,7.50604931640625,-0.003323891432955861,0.026340527459979057,0.038248054683208466
1751013457649992400,7.515992431640625,0.001284975209273398,0.02479509450495243,0.05951259657740593
1751013457659935500,7.525935546875,0.0018751317402347922,0.011504589579999447,0.07017216086387634
1751013457669879600,7.535879638671875,0.0028820729348808527,-0.0049036783166229725,0.0625547245144844
1751013457679822300,7.545822265625,-0.0036426717415452003,-0.009135707281529903,0.04530276730656624
1751013457689765400,7.555765380859375,-0.007734618615359068,0.0033806166611611843,0.023029951378703117
1751013457699708400,7.56570849609375,-0.01611771620810032,0.01978888548910618,0.0007896272582001984
1751013457709652500,7.575652587890625,-0.019035477191209793,0.03675295412540436,-0.016978450119495392
1751013457719595500,7.585595458984375,-0.018909242004156113,0.04626816138625145,-0.02804042212665081
1751013457729538600,7.59553857421875,-0.009371130727231503,0.04537467285990715,-0.02544490620493889
1751013457739482400,7.605482421875,-0.0016410398529842496,0.04175064340233803,-0.021046163514256477
1751013457749425400,7.61542529296875,0.005150021053850651,0.02930435910820961,-0.008400674909353256
1751013457759368400,7.625368408203125,0.0067226174287498,0.01654888316988945,0.009318400174379349
1751013457769312300,7.635312255859375,0.0040972731076180935,0.0004713795206043869,0.020380105823278427
1751013457779255300,7.64525537109375,0.004156128969043493,-0.014096377417445183,0.03375503420829773
1751013457789198300,7.6551982421875,0.0017219999572262168,-0.02310052514076233,0.03630021587014198
1751013457799141400,7.665141357421875,-0.0036567864008247852,-0.02154577150940895,0.031026626005768776
1751013457809085400,7.67508544921875,-0.013944044709205627,-0.009165002964437008,0.01732439547777176
1751013457819028500,7.685028564453125,-0.01583036221563816,0.011085141450166702,-0.0007379619055427611
1751013457828971300,7.69497119140625,-0.021374531090259552,0.030232470482587814,-0.0181712806224823
1751013457838915300,7.704915283203125,-0.01961844228208065,0.04234106466174126,-0.03008093684911728
1751013457848858400,7.7148583984375,-0.013186109252274036,0.03856417164206505,-0.035838689655065536
1751013457858801400,7.724801513671875,-0.006271744146943092,0.02726091630756855,-0.034638404846191406
1751013457868745500,7.734745361328125,0.001954493811354041,0.019522834569215775,-0.027415379881858826
1751013457878688300,7.744688232421875,-0.001505484920926392,0.014755776152014732,-0.013039102777838707
1751013457888631300,7.75463134765625,-0.006759102921932936,0.010489658452570438,-0.00101146858651191
1751013457898574300,7.76457421875,-0.010536263696849346,0.005872003734111786,0.004211789462715387
1751013457908518700,7.7745185546875,-0.01561091747134924,-0.003028546692803502,0.00663473317399621
1751013457918461400,7.78446142578125,-0.012878513894975185,-0.010206565260887146,0.0052203284576535225
1751013457928404500,7.794404541015625,-0.011748534627258778,-0.008724515326321125,0.004005660768598318
1751013457938348500,7.8043486328125,-0.0046786414459347725,0.0057260626927018166,0.0007808388327248394
1751013457948291600,7.81429150390625,0.0046267095021903515,0.026728816330432892,-0.0003765709698200226
1751013457958234600,7.824234619140625,0.006965763866901398,0.03416063264012337,-0.007533550262451172
1751013457968178400,7.834178466796875,0.005676794331520796,0.032775525003671646,-0.018557971343398094
1751013457978121500,7.84412158203125,0.0031699605751782656,0.020107930526137352,-0.020711136981844902
1751013457988064500,7.854064453125,-0.005020857788622379,0.010513360612094402,-0.020966269075870514
1751013457998007600,7.864007568359375,-0.012766129337251186,0.002055694116279483,-0.015270032919943333
1751013458007951600,7.87395166015625,-0.023394271731376648,0.0016205335268750787,-0.007564442697912455
1751013458017894400,7.883894287109375,-0.03465065360069275,0.008760468102991581,0.0013616742799058557
1751013458027837400,7.89383740234375,-0.03767254203557968,0.01489266287535429,0.012930979020893574
1751013458037781500,7.903781494140625,-0.03280907869338989,0.019783558323979378,0.012349610216915607
1751013458047724500,7.913724609375,-0.028270520269870758,0.021687451750040054,0.01133947353810072
1751013458057667600,7.92366748046875,-0.014606373384594917,0.021804098039865494,-0.004291950259357691
1751013458067611400,7.933611328125,-0.008533833548426628,0.022335132583975792,-0.006962568499147892
1751013458077554400,7.943554443359375,-0.010070743970572948,0.02864362858235836,-0.012060657143592834
1751013458087497500,7.95349755859375,-0.012991165742278099,0.028713935986161232,-0.016144081950187683
1751013458097440500,7.9634404296875,-0.017918014898896217,0.020380638539791107,-0.018397916108369827
1751013458107384300,7.97338427734375,-0.01896090805530548,0.012460397556424141,-0.011026818305253983
1751013458117327400,7.983327392578125,-0.020058130845427513,0.008175638504326344,0.0016106797847896814
1751013458127270400,7.9932705078125,-0.026216689497232437,0.004567321389913559,0.00785659160465002
1751013458137214500,8.00321435546875,-0.033916689455509186,0.0049215215258300304,0.007437143474817276
1751013458147157500,8.013157470703124,-0.043116044253110886,0.004275705199688673,0.007515440694987774
1751013458157100500,8.0231005859375,-0.043711528182029724,0.0031108383554965258,0.0003760383406188339
1751013458167044400,8.03304443359375,-0.03316567465662956,-0.000020772657080669887,-0.009887252002954483
1751013458176987400,8.0429873046875,-0.02388029918074608,0.0055002267472445965,-0.017054351046681404
1751013458186930400,8.052930419921875,-0.01121883187443018,0.013145629316568375,-0.02473810315132141
1751013458196873500,8.06287353515625,-0.000672448193654418,0.025239042937755585,-0.02285764552652836
1751013458206817300,8.0728173828125,0.002049568807706237,0.04370913282036781,-0.011366371065378189
1751013458216760300,8.08276025390625,-0.0028397287242114544,0.049134522676467896,-0.0012828446924686432
1751013458226703400,8.092703369140626,-0.01750841923058033,0.0345635712146759,0.005022455472499132
1751013458236647400,8.1026474609375,-0.02315671741962433,0.003501790575683117,0.004570783115923405
1751013458246590500,8.112590576171876,-0.02611256018280983,-0.02129596658051014,-0.0038434739690274
1751013458256533500,8.122533447265624,-0.023576965555548668,-0.02610643580555916,-0.01005236804485321
1751013458266477300,8.132477294921875,-0.014100372791290283,-0.007100253831595182,-0.018338527530431747
1751013458276420400,8.14242041015625,-0.004450674634426832,0.019576098769903183,-0.018616827204823494
1751013458286363400,8.15236328125,0.0073380740359425545,0.04210830479860306,-0.016289224848151207
1751013458296306400,8.162306396484375,0.017181916162371635,0.051118310540914536,-0.016717461869120598
1751013458306250200,8.172250244140624,0.022433403879404068,0.04987568035721779,-0.010241186246275902
1751013458316193300,8.182193359375,0.01703064888715744,0.03736308589577675,-0.002606702037155628
1751013458326136300,8.19213623046875,0.007781223859637976,0.026687270030379295,0.01398665551096201
1751013458336080600,8.20208056640625,-0.006337258033454418,0.016500147059559822,0.023374831303954124
1751013458346023700,8.212023681640625,-0.016166452318429947,-0.0017568873008713126,0.03322852775454521
1751013458355966500,8.221966552734376,-0.013636982999742031,-0.014003699645400047,0.03511883690953255
1751013458365910800,8.231910888671875,-0.01326946634799242,-0.014002634212374687,0.02719939686357975
1751013458375853800,8.241853759765625,-0.007129282224923372,0.0026557042729109526,0.013537646271288395
1751013458385796900,8.251796875,0.0000780306218075566,0.019242936745285988,-0.00660677021369338
1751013458395741000,8.261740966796875,0.00464668357744813,0.03602218255400658,-0.028144286945462227
1751013458405683700,8.27168359375,0.006666158325970173,0.048703890293836594,-0.04773503169417381
1751013458415626800,8.281626708984374,0.005276787560433149,0.052266400307416916,-0.05059713125228882
1751013458425569800,8.29156982421875,0.003133208956569433,0.04374348744750023,-0.0438619963824749
1751013458435513900,8.301513916015624,0.004939631093293428,0.030372818931937218,-0.031381357461214066
1751013458445457000,8.311456787109375,0.0051833102479577065,0.012352540157735348,-0.013942447490990162
1751013458455399700,8.321399658203125,0.005306348204612732,-0.0029230855870991945,0.0015536881983280182
1751013458465344000,8.331343994140624,0.003963049966841936,-0.01492169126868248,0.008716260083019733
1751013458475287000,8.341287109375,0.004550809506326914,-0.011484082788228989,0.014326474629342556
1751013458485230000,8.35122998046875,0.007842476479709148,-0.007703193463385105,0.016050871461629868
1751013458495174000,8.361173828125,0.009755425155162811,0.006487726699560881,0.010003365576267242
1751013458505117000,8.371116943359375,0.0071766865439713,0.016409600153565407,0.0018777948571369052
1751013458515060000,8.38106005859375,0.002995789982378483,0.026816699653863907,-0.010853713378310204
1751013458525003000,8.3910029296875,-0.0036093820817768574,0.03303278610110283,-0.023373499512672424
1751013458534946800,8.40094677734375,-0.0026583673898130655,0.03984488546848297,-0.0314018651843071
1751013458544889900,8.410889892578124,0.0010138654615730047,0.04571955278515816,-0.02912326343357563
1751013458554833000,8.4208330078125,0.005850964691489935,0.04259832575917244,-0.025109879672527313
1751013458564777000,8.43077685546875,0.013830328360199928,0.04260072484612465,-0.016510799527168274
1751013458574720000,8.440719970703125,0.015486547723412514,0.036785710602998734,-0.004343349486589432
1751013458584663000,8.4506630859375,0.011991681531071663,0.026567962020635605,0.009483249858021736
1751013458594606800,8.46060693359375,0.008567122742533684,0.01920485310256481,0.015600265003740788
1751013458604550000,8.4705498046875,0.00569889834150672,0.008831308223307133,0.021388113498687744
1751013458614493000,8.480492919921875,0.0007211840129457414,0.004807271994650364,0.02502386085689068
1751013458624436000,8.49043603515625,0.001591505017131567,0.014541392214596272,0.02503477968275547
1751013458634379800,8.5003798828125,0.007873902097344398,0.029381323605775833,0.016981646418571472
1751013458644322800,8.51032275390625,0.010793792083859444,0.042868636548519135,0.005672533065080643
1751013458654265900,8.520265869140625,0.019347865134477615,0.05101870745420456,-0.0068272799253463745
1751013458664210000,8.5302099609375,0.022721024230122566,0.04903918132185936,-0.016227172687649727
1751013458674153000,8.540153076171874,0.026224147528409958,0.041730135679244995,-0.02155429497361183
1751013458684095700,8.550095703125,0.024217454716563225,0.03310016170144081,-0.020791830494999886
1751013458694039800,8.560039794921876,0.01745595596730709,0.015184545889496803,-0.012032161466777325
1751013458703982800,8.56998291015625,0.0129336416721344,0.007699198555201292,0.0009315737406723201
1751013458713926000,8.57992578125,0.004056526813656092,0.013952034525573254,0.019057847559452057
1751013458723869700,8.58986962890625,-0.00011851066665258259,0.02208958938717842,0.03141118586063385
1751013458733812700,8.599812744140625,-0.005663211923092604,0.013363475911319256,0.034450117498636246
1751013458743755800,8.609755859375,-0.0031968585681170225,0.012407933361828327,0.029871612787246704
1751013458753698800,8.61969873046875,0.01053093746304512,0.015622901730239391,0.020014453679323196
1751013458763643000,8.629642822265625,0.025286979973316193,0.019951604306697845,0.014280668459832668
1751013458773586000,8.6395859375,0.03268444165587425,0.025539448484778404,0.0036940707359462976
1751013458783528700,8.64952880859375,0.03915352746844292,0.0352189727127552,-0.006807572208344936
1751013458793472800,8.65947265625,0.03376435488462448,0.03934421017765999,-0.014430338516831398
1751013458803415800,8.669415771484376,0.022429408505558968,0.03682565689086914,-0.021646706387400627
1751013458813358800,8.67935888671875,0.008609999902546406,0.021884791553020477,-0.02786465361714363
1751013458823303000,8.689302978515625,0.0031217574141919613,0.0008870989549905062,-0.034752920269966125
1751013458833245700,8.69924560546875,-0.004291151650249958,-0.012553076259791851,-0.03567703813314438
1751013458843188700,8.709188720703125,0.00392869533970952,-0.007839014753699303,-0.031187213957309723
1751013458853133000,8.719133056640626,0.01278823334723711,0.0006772418855689466,-0.02707902155816555
1751013458863076000,8.729076171875,0.025662219151854515,0.01011069118976593,-0.017959026619791985
1751013458873019000,8.739018798828125,0.03136351704597473,0.01756461337208748,-0.012160792015492916
1751013458882961700,8.748961669921876,0.027642279863357544,0.02407044917345047,-0.0033342777751386166
1751013458892906000,8.758906005859375,0.020298879593610764,0.021226458251476288,-0.0008080030675046146
1751013458902849000,8.76884912109375,0.01182470191270113,0.011302188970148563,-0.002511627273634076
1751013458912792000,8.7787919921875,0.00336117553524673,-0.003448793664574623,-0.00842597521841526
1751013458922735900,8.78873583984375,0.003748665563762188,-0.00782569870352745,-0.014108361676335335
1751013458932679000,8.798678955078126,0.01185213215649128,-0.002207760466262698,-0.013615677133202553
1751013458942622000,8.8086220703125,0.019027220085263252,0.005046423990279436,-0.01666739396750927
1751013458952566000,8.81856591796875,0.023197198286652565,0.014839399605989456,-0.016710003837943077
1751013458962508800,8.8285087890625,0.022663233801722527,0.014703844673931599,-0.019948940724134445
1751013458972451800,8.838451904296875,0.018511632457375526,0.004397944081574678,-0.02051139995455742
1751013458982395000,8.848394775390625,0.010321080684661865,-0.003406715579330921,-0.01374990027397871
1751013458992339000,8.8583388671875,0.006115150637924671,0.0027534421533346176,-0.0083071980625391
1751013459002282000,8.868281982421875,0.0078531289473176,0.002514290390536189,-0.00202320353128016
1751013459012225000,8.87822509765625,0.013307017274200916,0.009151686914265156,0.001534779672510922
1751013459022168800,8.8881689453125,0.021632324904203415,0.017129983752965927,0.0006862966110929847
1751013459032111900,8.89811181640625,0.024518126621842384,0.017902834340929985,0.005103415343910456
1751013459042055000,8.908054931640624,0.02261503040790558,0.01696460321545601,0.0007747135823592544
1751013459051999000,8.9179990234375,0.016278572380542755,0.007108243182301521,-0.0005004079430364072
1751013459061941800,8.927941650390625,0.005334045272320509,-0.005858421791344881,-0.005841909907758236
1751013459071884800,8.937884765625,0.0002633866388350725,-0.009778061881661415,-0.007719172164797783
1751013459081828900,8.947828857421875,0.00033688987605273724,-0.011085407808423042,-0.014221013523638248
1751013459091772000,8.95777197265625,0.001978995045647025,-0.012298477813601494,-0.020747622475028038
1751013459101715000,8.96771484375,0.007483216468244791,-0.009240902960300446,-0.03187084570527077
1751013459111658000,8.977657958984375,0.015660718083381653,0.0023646207991987467,-0.03702300041913986
1751013459121601800,8.987601806640624,0.029878269881010056,0.01601465232670307,-0.038300782442092896
1751013459131544800,8.997544921875,0.03285621851682663,0.01775023527443409,-0.03232278674840927
1751013459141487900,9.00748779296875,0.030073747038841248,0.011623100377619267,-0.023253656923770905
1751013459151431700,9.017431640625,0.021586518734693527,-0.0009443568997085094,-0.016640495508909225
1751013459161374700,9.027374755859375,0.008485097438097,-0.007956193760037422,-0.006725014187395573
1751013459171317800,9.03731787109375,-0.0016921724891290069,-0.00830000825226307,0.003180613275617361
1751013459181261800,9.04726171875,-0.00523577444255352,-0.005657086614519358,0.006341519299894571
1751013459191204900,9.057204833984375,-0.00001997370782191865,-0.0005616606795229018,0.006716758478432894
1751013459201148000,9.06714794921875,0.00860600546002388,0.005842975340783596,0.004318049177527428
1751013459211091700,9.077091796875,0.015664180740714073,0.011067564599215984,-0.0024226775858551264
1751013459221034800,9.08703466796875,0.01770149916410446,0.009096825495362282,-0.0076177059672772884
1751013459230977800,9.096977783203124,0.018253838643431664,0.01648363471031189,-0.019702598452568054
1751013459240920800,9.1069208984375,0.018935075029730797,0.02748941443860531,-0.024837706238031387
1751013459250865000,9.116864990234374,0.016559269279241562,0.03087429329752922,-0.033490315079689026
1751013459260807700,9.1268076171875,0.01119513064622879,0.025667013600468636,-0.03856976330280304
1751013459270750700,9.136750732421875,0.01019591186195612,0.026930684223771095,-0.0360964834690094
1751013459280695000,9.146695068359374,0.00506799528375268,0.02641935646533966,-0.02623400092124939
1751013459290638000,9.15663818359375,0.012133894488215446,0.023908793926239014,-0.01139992754906416
1751013459300580900,9.166580810546876,0.011690744198858738,0.021408086642622948,0.009060872718691826
1751013459310525000,9.17652490234375,0.015369368717074394,0.022643793374300003,0.021684788167476654
1751013459320468000,9.186468017578125,0.011755192652344704,0.024500815197825432,0.028731513768434525
1751013459330411000,9.196410888671876,0.006886934395879507,0.02600017562508583,0.03371189162135124
1751013459340354000,9.20635400390625,0.0009800433181226254,0.023857129737734795,0.028560005128383636
1751013459350297900,9.2162978515625,-0.002557966159656644,0.014735803008079529,0.018089788034558296
1751013459360241000,9.226240966796874,0.0014913701452314854,0.0023971113841980696,0.00552179804071784
1751013459370184000,9.236183837890625,0.002935868687927723,-0.0037265613209456205,-0.01002067606896162
1751013459380128000,9.2461279296875,0.004824049770832062,0.0006178533658385277,-0.014580540359020233
1751013459390071000,9.256071044921875,0.0062757390551269054,0.014284397475421429,-0.024278441444039345
1751013459400013800,9.266013916015625,-0.0007906925166025758,0.021514080464839935,-0.030236732214689255
1751013459409958000,9.2759580078125,-0.009110674262046814,0.01943068951368332,-0.03471643477678299
1751013459419901000,9.28590087890625,-0.011408449150621891,0.01811615377664566,-0.03758785501122475
1751013459429844000,9.295843994140625,-0.012123774737119675,0.009741577319800854,-0.0346037819981575
1751013459439787800,9.305787841796874,-0.012917396612465382,0.0032868734560906887,-0.03357287496328354
1751013459449730800,9.315730712890625,-0.013224459253251553,-0.005721002817153931,-0.03279496356844902
1751013459459673900,9.325673828125,-0.0037736992817372084,-0.007976699620485306,-0.03164208307862282
1751013459469618000,9.335617919921875,0.007739944849163294,-0.004116980824619532,-0.02846706099808216
1751013459479561000,9.34556103515625,0.011289671994745731,0.0031555795576423407,-0.025666480883955956
1751013459489503700,9.355503662109374,0.012764531187713146,0.012020709924399853,-0.035828571766614914
1751013459499446800,9.36544677734375,0.00446825148537755,0.019585685804486275,-0.044255346059799194
1751013459509390800,9.375390869140626,-0.0023608922492712736,0.030344324186444283,-0.056406017392873764
1751013459519334000,9.385333984375,-0.011060373857617378,0.04105209559202194,-0.06229107081890106
1751013459529277000,9.39527685546875,-0.0034738273825496435,0.04047418758273125,-0.06472493708133698
1751013459539220700,9.405220703125,0.0030690268613398075,0.0324210561811924,-0.06543786078691483
1751013459549163800,9.415163818359375,-0.0013004215434193611,0.018202971667051315,-0.05585021525621414
1751013459559106800,9.42510693359375,-0.007016630377620459,0.012382367625832558,-0.04740932583808899
1751013459569051000,9.43505078125,-0.0037816886324435472,-0.047680437564849854,-0.033840522170066833
1751013459578994000,9.444993896484375,-0.013354687951505184,-0.07444866746664047,-0.0043561323545873165
1751013459588936700,9.454936767578126,-0.018582472577691078,-0.05889048054814339,0.03229189291596413
1751013459598880800,9.464880859375,-0.027120035141706467,-0.02918957732617855,0.0546797551214695
1751013459608823800,9.47482373046875,-0.007617439609020948,0.002043709857389331,0.0467054545879364
1751013459618766800,9.484766845703126,0.015439676120877266,0.018924955278635025,0.016170980408787727
1751013459628710000,9.4947099609375,0.025617478415369987,0.01876676268875599,-0.015784289687871933
1751013459638653700,9.50465380859375,0.026077406480908394,0.013640711084008217,-0.05047675594687462
1751013459648596700,9.5145966796875,0.022156700491905212,0.01489372830837965,-0.07465586066246033
1751013459658539800,9.524539794921875,0.017165936529636383,0.02406831830739975,-0.08875996619462967
1751013459668483800,9.53448388671875,0.011454255320131779,0.030239395797252655,-0.09321703016757965
1751013459678426600,9.544426513671874,-0.00301682879216969,0.026084598153829575,-0.09035759419202805
1751013459688369700,9.55436962890625,-0.020795559510588646,0.025749571621418,-0.07800371944904327
1751013459698313700,9.564313720703124,-0.02936001867055893,0.02725292555987835,-0.059479571878910065
1751013459708256800,9.5742568359375,-0.0300764087587595,0.02334420382976532,-0.0403791144490242
1751013459718199800,9.58419970703125,-0.021824339404702187,0.01852548122406006,-0.019761720672249794
1751013459728144000,9.594143798828124,-0.013952567242085934,0.011019627563655376,-0.001178448786959052
1751013459738087000,9.6040869140625,-0.017070064321160316,0.013244166038930416,0.016477510333061218
1751013459748029700,9.61402978515625,-0.019885024055838585,0.016453541815280914,0.023245668038725853
1751013459757972700,9.62397265625,-0.0287000872194767,0.004480502102524042,0.02129303850233555
1751013459767916800,9.633916748046875,-0.03311294689774513,0.0010106696281582117,0.012256399728357792
1751013459777859800,9.64385986328125,-0.028714735060930252,0.00995995569974184,-0.0012748552253469825
1751013459787803000,9.653802978515625,-0.015440208837389946,0.020116986706852913,-0.01647884212434292
1751013459797747000,9.663746826171876,0.0005113269435241818,0.03109986148774624,-0.03309829905629158
1751013459807690000,9.67368994140625,0.012444152496755123,0.03491856902837753,-0.03820384293794632
1751013459817633000,9.683633056640625,0.018965700641274452,0.04015541076660156,-0.03821050375699997
1751013459827576800,9.693576904296876,0.017838917672634125,0.032043952494859695,-0.02881673350930214
1751013459837520000,9.703519775390625,0.017062339931726456,0.01044465135782957,-0.012242551892995834
1751013459847463000,9.713462890625,0.007203584536910057,-0.009888849221169949,-0.001544100814498961
1751013459857407000,9.723406982421874,0.0014729943359270692,-0.026165025308728218,0.00894076470285654
1751013459867349800,9.733349853515625,0.0005896238726563752,-0.02875574864447117,0.009881126694381237
1751013459877292800,9.743292724609375,-0.004479969386011362,-0.012955479323863983,0.0008109325426630676
1751013459887235800,9.75323583984375,-0.0031273500062525272,-0.003498861100524664,-0.005597432143986225
1751013459897180000,9.763179931640625,-0.002017344580963254,0.01128221582621336,-0.016349412500858307
1751013459907123000,9.773123046875,0.0036549223586916924,0.026325613260269165,-0.025377795100212097
1751013459917066000,9.78306591796875,0.012232431210577488,0.030113426968455315,-0.03598223626613617
1751013459927009800,9.793009765625,0.022285331040620804,0.022421685978770256,-0.034632813185453415
1751013459936952800,9.802952880859374,0.026642529293894768,0.015530490316450596,-0.031329426914453506
1751013459946896000,9.812895751953125,0.0302034430205822,0.015665512531995773,-0.025134913623332977
1751013459956839700,9.822839599609376,0.021509818732738495,0.016267120838165283,-0.011656922288239002
1751013459966782700,9.83278271484375,0.010189253836870193,0.0038687740452587605,-0.008005994372069836
1751013459976725800,9.842725830078125,0.0027470507193356752,-0.014065751805901527,-0.0032764871139079332
1751013459986669800,9.852669921875,-0.0005219795857556164,-0.02160835638642311,-0.010513094253838062
1751013459996612900,9.86261279296875,-0.0008831042214296758,-0.022244052961468697,-0.01782000996172428
1751013460006556000,9.872555908203125,0.0028503811918199062,-0.008929046802222729,-0.027275029569864273
1751013460016498700,9.882498779296874,0.005160140804946423,0.016482038423419,-0.03262851759791374
1751013460026442800,9.89244287109375,0.006108492612838745,0.04248194769024849,-0.029470806941390038
1751013460036385800,9.9023857421875,0.00875913631170988,0.05882896110415459,-0.023325562477111816
1751013460046328800,9.912328857421874,0.005315935704857111,0.04995157942175865,-0.023381754755973816
1751013460056272600,9.922272705078125,0.00395585922524333,0.0161864273250103,-0.022972960025072098
1751013460066215700,9.932215576171876,0.002716158051043749,-0.02118811011314392,-0.030796261504292488
1751013460076158700,9.94215869140625,0.001285241567529738,-0.03825630992650986,-0.03917856141924858
1751013460086102800,9.952102783203125,-0.0031941954512149096,-0.037816353142261505,-0.042005505412817
1751013460096045800,9.9620458984375,-0.005757754202932119,-0.016991766169667244,-0.04373123496770859
1751013460105988900,9.97198876953125,-0.0023105584550648928,0.004284227266907692,-0.03801369294524193
1751013460115933000,9.981932861328126,0.0062485747039318085,0.028667863458395004,-0.034146253019571304
1751013460125875700,9.991875732421875,0.014003966003656387,0.035532958805561066,-0.02088264562189579
1751013460135818800,10.00181884765625,0.023267772048711777,0.03256407007575035,-0.0035598473623394966
1751013460145761800,10.01176171875,0.03020051307976246,0.01672838069498539,0.009767143055796623
1751013460155705900,10.021705810546875,0.022286929190158844,-0.007261374965310097,0.02129543572664261
1751013460165649000,10.03164892578125,0.018390724435448647,-0.029034847393631935,0.02526460960507393
1751013460175592000,10.041592041015624,0.013318202458322048,-0.029343241825699806,0.019516177475452423
1751013460185536000,10.051535888671875,0.011345598846673965,-0.005943909287452698,0.013528325594961643
1751013460195479000,10.06147900390625,0.011329620145261288,0.0167922955006361,-0.008983374573290348
1751013460205421800,10.071421875,0.011548264883458614,0.028660140931606293,-0.026505110785365105
1751013460215366000,10.081365966796875,0.01453073974698782,0.03411269560456276,-0.03723179176449776
1751013460225309000,10.091308837890624,0.014945127069950104,0.03772767260670662,-0.03280321881175041
1751013460235252000,10.101251953125,0.020786771550774574,0.03754337877035141,-0.02443716675043106
1751013460245195800,10.11119580078125,0.018091652542352676,0.027896080166101456,-0.0075940038077533245
1751013460255138800,10.121138916015624,0.018854914233088493,0.012063320726156235,0.0074030552059412
1751013460265081900,10.131081787109375,0.008589226752519608,-0.0027377295773476362,0.017601629719138145
1751013460275026000,10.14102587890625,-0.0001893507578643039,-0.012123508378863335,0.021585453301668167
1751013460284969000,10.150968994140625,-0.0019289276096969843,-0.01570412889122963,0.01398825366050005
1751013460294911700,10.160911865234375,0.001600559800863266,-0.011295530945062637,0.003186738584190607
1751013460304854800,10.170854736328126,0.0068272799253463745,-0.0015195996966212988,-0.011944010853767395
1751013460314798800,10.180798828125,0.012269982136785984,0.016690829768776894,-0.032418392598629
1751013460324742000,10.190741943359376,0.015512380748987198,0.03098108619451523,-0.046353649348020554
1751013460334685000,10.200684814453124,0.011994611471891403,0.036123115569353104,-0.049312688410282135
1751013460344628700,10.210628662109375,0.01258103922009468,0.03147083893418312,-0.04699600487947464
1751013460354571800,10.22057177734375,0.01233256608247757,0.01284868735820055,-0.04066513851284981
1751013460364514800,10.230514892578125,0.011382350698113441,-0.00932239554822445,-0.027417242527008057
1751013460374459100,10.240459228515626,0.012808206491172314,-0.02533012442290783,-0.018190721049904823
1751013460384402000,10.25040185546875,0.013673733919858932,-0.02895521931350231,-0.007634217385202646
1751013460394345000,10.260344970703125,0.017350494861602783,-0.026145583018660545,-0.007084541022777557
1751013460404289000,10.2702890625,0.017670074477791786,-0.022788403555750847,-0.009222527034580708
1751013460414232000,10.280232177734375,0.02015799842774868,-0.010753843933343887,-0.020684238523244858
1751013460424175000,10.290175048828125,0.024952221661806107,0.00001757686368364375,-0.0205092690885067
1751013460434118100,10.3001181640625,0.025731196627020836,0.0067601678892970085,-0.03266153857111931
1751013460444062200,10.310062255859375,0.02556554786860943,0.013514743186533451,-0.030965639278292656
1751013460454005000,10.3200048828125,0.020132165402173996,0.016637032851576805,-0.026370353996753693
1751013460463948000,10.329947998046874,0.008263789117336273,0.013943778350949287,-0.021025655791163445
1751013460473892000,10.33989208984375,0.003934820648282766,0.007931958884000778,-0.012043346650898457
1751013460483835100,10.349835205078126,0.0024836640805006027,-0.005801163613796234,-0.0023845944087952375
1751013460493778200,10.359778076171875,0.005831790156662464,-0.010847588069736958,0.0018293253378942609
1751013460503722200,10.36972216796875,0.0007142598042264581,-0.004058657679706812,0.004430168308317661
1751013460513665300,10.379665283203124,0.005170261021703482,0.008652344346046448,0.004829908721148968
1751013460523608300,10.3896083984375,0.004507133737206459,0.027812989428639412,-0.0002846919232979417
1751013460533552000,10.39955224609375,-0.0012005530297756195,0.03455424681305885,-0.006351372692734003
1751013460543495200,10.4094951171875,-0.0051934304647147655,0.04597441479563713,-0.013819674961268902
1751013460553438200,10.419438232421875,-0.011968245729804039,0.05962684378027916,-0.018338527530431747
1751013460563381200,10.42938134765625,-0.015455654822289944,0.06063351780176163,-0.026509106159210205
1751013460573325000,10.439324951171875,-0.021741515025496483,0.027344539761543274,-0.017972076311707497
1751013460583268000,10.44926806640625,-0.022786006331443787,-0.00043329631444066763,-0.010223875753581524
1751013460593211100,10.459211181640624,-0.015622901730239391,-0.011868377216160297,-0.010092048905789852
1751013460603155200,10.4691552734375,0.005405151750892401,-0.003224821761250496,-0.009321063756942749
1751013460613098200,10.47909814453125,0.012501676566898823,0.013797837309539318,-0.013513145968317986
1751013460623041300,10.489041259765624,0.011997806839644909,0.026436934247612953,-0.01612037979066372
1751013460632985000,10.498985107421875,0.0062395199202001095,0.030955519527196884,-0.024235298857092857
1751013460642928000,10.50892822265625,0.008784969337284565,0.0641142725944519,-0.028301412239670753
1751013460652871200,10.51887109375,0.015659652650356293,0.10957283526659012,-0.025741849094629288
1751013460662815000,10.52881494140625,0.01756381429731846,0.1395120918750763,-0.009162339381873608
1751013460672758000,10.538758056640624,-0.023137543350458145,0.23886211216449738,0.1528979390859604
1751013460682701000,10.548701171875,-0.05480066314339638,0.1303902268409729,0.30618202686309814
1751013460692644000,10.55864404296875,-0.0359279066324234,-0.014809039421379566,0.41702571511268616
1751013460702588200,10.568588134765625,-0.007523430045694113,-0.13782471418380737,0.45439574122428894
1751013460712531200,10.57853125,-0.015969911590218544,-0.2344290167093277,0.4358143210411072
1751013460722474000,10.588473876953126,-0.027044400572776794,-0.18926872313022614,0.35669660568237305
1751013460732418000,10.59841796875,-0.014811969362199306,-0.07811716943979263,0.2038457989692688
1751013460742361000,10.608361083984375,0.016804812476038933,0.07104142010211945,-0.012495285831391811
1751013460752304000,10.61830419921875,0.047517985105514526,0.23483142256736755,-0.2491150200366974
1751013460762248000,10.628248046875,0.043238285928964615,0.34514033794403076,-0.46391546726226807
1751013460772191000,10.63819091796875,0.027937091886997223,0.4053072929382324,-0.5758907198905945
