time,seconds_elapsed,z,y,x
1751013450252190000,0.11818994140625,-1.001495361328125,-0.182220458984375,-0.04937744140625
1751013450262133800,0.1281337890625,-0.9958343505859375,-0.1846466064453125,-0.0406646728515625
1751013450272076800,0.138076904296875,-0.990875244140625,-0.1877899169921875,-0.037384033203125
1751013450282019800,0.148019775390625,-0.9880218505859375,-0.1849517822265625,-0.039306640625
1751013450291964000,0.1579638671875,-0.990386962890625,-0.181304931640625,-0.0455169677734375
1751013450301907000,0.167906982421875,-0.9981231689453125,-0.1798553466796875,-0.0494842529296875
1751013450311849700,0.177849609375,-1.00299072265625,-0.1791839599609375,-0.0494232177734375
1751013450321792800,0.187792724609375,-0.9994049072265625,-0.180419921875,-0.0450286865234375
1751013450331736800,0.19773681640625,-0.9954681396484375,-0.184173583984375,-0.036651611328125
1751013450341679900,0.207679931640625,-0.9947357177734375,-0.187530517578125,-0.027374267578125
1751013450351623000,0.217622802734375,-0.999664306640625,-0.188507080078125,-0.0208587646484375
1751013450361569300,0.2275693359375,-1.0030670166015625,-0.181732177734375,-0.018951416015625
1751013450371513000,0.23751318359375,-1.0029144287109375,-0.1765899658203125,-0.0199432373046875
1751013450381456100,0.2474560546875,-1.003631591796875,-0.176544189453125,-0.0182647705078125
1751013450391399200,0.257399169921875,-1.00982666015625,-0.1778564453125,-0.014007568359375
1751013450401343200,0.26734326171875,-1.0157318115234375,-0.1778106689453125,-0.0137939453125
1751013450411286000,0.2772861328125,-1.010986328125,-0.1732635498046875,-0.014617919921875
1751013450421229000,0.28722900390625,-1.003204345703125,-0.16607666015625,-0.0130157470703125
1751013450431172000,0.297172119140625,-0.990570068359375,-0.1650848388671875,-0.0116424560546875
1751013450441116200,0.3071162109375,-0.978607177734375,-0.1671295166015625,-0.00592041015625
1751013450451059200,0.31705908203125,-0.97088623046875,-0.1670379638671875,0.00457763671875
1751013450461002000,0.327001953125,-0.968414306640625,-0.1649932861328125,0.01361083984375
1751013450470945000,0.336945068359375,-0.970703125,-0.1661529541015625,0.014556884765625
1751013450480889300,0.346889404296875,-0.97259521484375,-0.172119140625,0.018035888671875
1751013450490832100,0.35683203125,-0.978302001953125,-0.1806793212890625,0.024169921875
1751013450500775200,0.366775146484375,-0.9821319580078125,-0.1858978271484375,0.0283050537109375
1751013450510719200,0.37671923828125,-0.98199462890625,-0.1913909912109375,0.0303192138671875
1751013450520662300,0.386662353515625,-0.9793548583984375,-0.200347900390625,0.028564453125
1751013450530605300,0.396605224609375,-0.9777069091796875,-0.2016448974609375,0.0256500244140625
1751013450540548000,0.406548095703125,-0.979339599609375,-0.195068359375,0.0244293212890625
1751013450550492200,0.4164921875,-0.9875335693359375,-0.1956024169921875,0.0282135009765625
1751013450560435200,0.426435302734375,-0.992401123046875,-0.194671630859375,0.0324249267578125
1751013450570378200,0.436378173828125,-0.993499755859375,-0.18389892578125,0.0338897705078125
1751013450580321300,0.4463212890625,-0.989288330078125,-0.1813812255859375,0.0341033935546875
1751013450590265300,0.456265380859375,-0.9798583984375,-0.1864776611328125,0.03094482421875
1751013450600208400,0.46620849609375,-0.9766998291015625,-0.1876068115234375,0.0272979736328125
1751013450610151200,0.476151123046875,-0.9739227294921875,-0.189910888671875,0.03271484375
1751013450620095200,0.48609521484375,-0.9648895263671875,-0.19183349609375,0.044281005859375
1751013450630038300,0.496038330078125,-0.9613037109375,-0.19342041015625,0.0510101318359375
1751013450639981300,0.505981201171875,-0.9616851806640625,-0.195098876953125,0.055084228515625
1751013450649924400,0.51592431640625,-0.9686431884765625,-0.197784423828125,0.0642547607421875
1751013450659868200,0.5258681640625,-0.973419189453125,-0.1997833251953125,0.0789794921875
1751013450669811200,0.535811279296875,-0.9759521484375,-0.2003326416015625,0.0895233154296875
1751013450679754200,0.545754150390625,-0.976104736328125,-0.2000274658203125,0.0910797119140625
1751013450689697300,0.555697265625,-0.9789886474609375,-0.1956787109375,0.0918426513671875
1751013450699641300,0.565641357421875,-0.9870758056640625,-0.186614990234375,0.0968475341796875
1751013450709584100,0.575584228515625,-0.993408203125,-0.175506591796875,0.0981597900390625
1751013450719527200,0.585527099609375,-0.99737548828125,-0.1691741943359375,0.09112548828125
1751013450729471200,0.59547119140625,-1.0042266845703125,-0.1649017333984375,0.084625244140625
1751013450739414300,0.605414306640625,-1.010772705078125,-0.1586761474609375,0.0831298828125
1751013450749357300,0.615357421875,-1.005706787109375,-0.1504974365234375,0.0801849365234375
1751013450759300400,0.62530029296875,-1.00189208984375,-0.14312744140625,0.073944091796875
1751013450769244200,0.635244140625,-1.002960205078125,-0.1398773193359375,0.07537841796875
1751013450779187200,0.645187255859375,-1.005126953125,-0.1425933837890625,0.0802001953125
1751013450789130200,0.655130126953125,-1.0075531005859375,-0.14617919921875,0.08355712890625
1751013450799073300,0.6650732421875,-1.0100555419921875,-0.1470947265625,0.0919189453125
1751013450809017000,0.67501708984375,-1.0151824951171875,-0.1469268798828125,0.0985565185546875
1751013450818960100,0.684960205078125,-1.0201416015625,-0.14996337890625,0.09942626953125
1751013450828903200,0.694903076171875,-1.0222320556640625,-0.153167724609375,0.0944671630859375
1751013450838847200,0.70484716796875,-1.0201873779296875,-0.1608734130859375,0.0921630859375
1751013450848790300,0.714790283203125,-1.0145721435546875,-0.165985107421875,0.090057373046875
1751013450858733000,0.724733154296875,-1.011474609375,-0.169189453125,0.0853118896484375
1751013450868676000,0.734676025390625,-1.0113677978515625,-0.1742706298828125,0.0863037109375
1751013450878620200,0.7446201171875,-1.015777587890625,-0.1772308349609375,0.0840301513671875
1751013450888563200,0.754563232421875,-1.021209716796875,-0.180267333984375,0.0787811279296875
1751013450898506200,0.76450634765625,-1.028656005859375,-0.184173583984375,0.0749359130859375
1751013450908449300,0.77444921875,-1.0335845947265625,-0.189483642578125,0.07525634765625
1751013450918393000,0.78439306640625,-1.03607177734375,-0.192840576171875,0.075103759765625
1751013450928336100,0.794336181640625,-1.03570556640625,-0.194000244140625,0.0730133056640625
1751013450938279200,0.804279052734375,-1.033111572265625,-0.196533203125,0.071075439453125
1751013450948223200,0.81422314453125,-1.0286712646484375,-0.2005462646484375,0.06427001953125
1751013450958166000,0.824166015625,-1.0229644775390625,-0.2041778564453125,0.06207275390625
1751013450968109000,0.834109130859375,-1.01483154296875,-0.202362060546875,0.06219482421875
1751013450978052000,0.844052001953125,-1.0097808837890625,-0.199005126953125,0.0609588623046875
1751013450987996200,0.85399609375,-1.0062103271484375,-0.19781494140625,0.0637054443359375
1751013450997939200,0.863939208984375,-1.0012054443359375,-0.192596435546875,0.06982421875
1751013451007882200,0.87388232421875,-0.9990081787109375,-0.18145751953125,0.07305908203125
1751013451017826300,0.883826416015625,-0.9976348876953125,-0.1723785400390625,0.07489013671875
1751013451027769000,0.89376904296875,-0.9927978515625,-0.1646881103515625,0.0753631591796875
1751013451037712100,0.903712158203125,-0.9938507080078125,-0.1574859619140625,0.072113037109375
1751013451047655200,0.9136552734375,-0.989532470703125,-0.157562255859375,0.0653228759765625
1751013451057599200,0.92359912109375,-0.9770660400390625,-0.159454345703125,0.058319091796875
1751013451067542300,0.933542236328125,-0.9644927978515625,-0.1573638916015625,0.0503997802734375
1751013451077485000,0.943485107421875,-0.97064208984375,-0.1580810546875,0.0554046630859375
1751013451087428000,0.953427978515625,-0.9713134765625,-0.1598052978515625,0.0593109130859375
1751013451097372400,0.963372314453125,-0.97113037109375,-0.16265869140625,0.0612945556640625
1751013451107315200,0.973315185546875,-0.9659576416015625,-0.16583251953125,0.0638427734375
1751013451117258200,0.98325830078125,-0.966156005859375,-0.1719970703125,0.065338134765625
1751013451127202300,0.993202392578125,-0.966217041015625,-0.1744232177734375,0.0661163330078125
1751013451137145300,1.003145263671875,-0.9678955078125,-0.172515869140625,0.0683746337890625
1751013451147088400,1.01308837890625,-0.9763031005859375,-0.1725921630859375,0.071197509765625
1751013451157031400,1.023031494140625,-0.98846435546875,-0.1782379150390625,0.07666015625
1751013451166975200,1.032975341796875,-0.9928131103515625,-0.1845703125,0.0803375244140625
1751013451176918300,1.042918212890625,-0.9910430908203125,-0.1887664794921875,0.0869293212890625
1751013451186861300,1.052861328125,-0.989349365234375,-0.188812255859375,0.0872955322265625
1751013451196805000,1.06280517578125,-0.9907684326171875,-0.1875762939453125,0.095855712890625
1751013451206748200,1.072748046875,-0.9945831298828125,-0.18475341796875,0.0955352783203125
1751013451216691200,1.082691162109375,-0.9983062744140625,-0.184600830078125,0.0967864990234375
1751013451226634200,1.09263427734375,-1.00152587890625,-0.18341064453125,0.0922088623046875
1751013451236578300,1.102578369140625,-1.0035858154296875,-0.183258056640625,0.088958740234375
1751013451246521300,1.112521240234375,-1.003265380859375,-0.1874847412109375,0.0881805419921875
1751013451256464100,1.122464111328125,-1.0076141357421875,-0.1895599365234375,0.0865325927734375
1751013451266407200,1.1324072265625,-1.0106353759765625,-0.189361572265625,0.083648681640625
1751013451276351200,1.142351318359375,-1.00341796875,-0.1842193603515625,0.0822906494140625
1751013451286294300,1.152294189453125,-1.0037689208984375,-0.1774444580078125,0.079071044921875
1751013451296237300,1.1622373046875,-1.0063323974609375,-0.174835205078125,0.0724639892578125
1751013451306181000,1.17218115234375,-1.011962890625,-0.17681884765625,0.069671630859375
1751013451316124200,1.182124267578125,-1.01641845703125,-0.17852783203125,0.060455322265625
1751013451326067200,1.192067138671875,-1.012176513671875,-0.182952880859375,0.048797607421875
1751013451336010200,1.20201025390625,-1.012481689453125,-0.1900787353515625,0.0431671142578125
1751013451345954300,1.211954345703125,-1.01336669921875,-0.1972198486328125,0.04498291015625
1751013451355897000,1.22189697265625,-1.0051116943359375,-0.2000274658203125,0.0465087890625
1751013451365837300,1.23183740234375,-0.995635986328125,-0.197906494140625,0.0515289306640625
1751013451375781400,1.241781494140625,-0.9895782470703125,-0.1950225830078125,0.0542144775390625
1751013451385724400,1.251724365234375,-0.9845428466796875,-0.195098876953125,0.052459716796875
1751013451395667200,1.261667236328125,-0.979248046875,-0.1950531005859375,0.056976318359375
1751013451405610200,1.2716103515625,-0.982452392578125,-0.193023681640625,0.0645294189453125
1751013451415554300,1.28155419921875,-0.985198974609375,-0.1915130615234375,0.06964111328125
1751013451425497300,1.291497314453125,-0.985137939453125,-0.19049072265625,0.0738525390625
1751013451435440400,1.3014404296875,-0.9904022216796875,-0.185882568359375,0.078338623046875
1751013451445383400,1.311383544921875,-0.992034912109375,-0.1800537109375,0.0794219970703125
1751013451455327200,1.3213271484375,-0.996246337890625,-0.175323486328125,0.079345703125
1751013451465270300,1.331270263671875,-1.005157470703125,-0.17218017578125,0.0765228271484375
1751013451475213300,1.34121337890625,-1.0098114013671875,-0.1708831787109375,0.0771636962890625
1751013451485157400,1.351157470703125,-1.006378173828125,-0.165802001953125,0.0713043212890625
1751013451495100200,1.36110009765625,-1.013702392578125,-0.1670989990234375,0.064727783203125
1751013451505043200,1.371043212890625,-1.021270751953125,-0.17303466796875,0.0586700439453125
1751013451514986200,1.380986328125,-1.0207977294921875,-0.1768646240234375,0.0567169189453125
1751013451524930600,1.3909306640625,-1.01654052734375,-0.1763916015625,0.0562744140625
1751013451534873600,1.40087353515625,-1.008392333984375,-0.174713134765625,0.0592803955078125
1751013451544816000,1.410816162109375,-0.9996337890625,-0.1755828857421875,0.0601348876953125
1751013451554760400,1.420760498046875,-0.9962310791015625,-0.1837158203125,0.0659942626953125
1751013451564703500,1.430703369140625,-0.9920654296875,-0.1919403076171875,0.0754547119140625
1751013451574646500,1.440646484375,-0.983978271484375,-0.196044921875,0.083160400390625
1751013451584589600,1.450589599609375,-0.9779205322265625,-0.199371337890625,0.0854034423828125
1751013451594533400,1.460533447265625,-0.9759979248046875,-0.2021942138671875,0.0895538330078125
1751013451604476400,1.470476318359375,-0.975189208984375,-0.202301025390625,0.09375
1751013451614419500,1.48041943359375,-0.976470947265625,-0.2003173828125,0.0955963134765625
1751013451624362500,1.490362548828125,-0.98260498046875,-0.19903564453125,0.0943450927734375
1751013451634306300,1.500306396484375,-0.988250732421875,-0.198974609375,0.09490966796875
1751013451644249300,1.510249267578125,-0.993743896484375,-0.19818115234375,0.09332275390625
1751013451654192400,1.5201923828125,-1.006256103515625,-0.1979217529296875,0.09100341796875
1751013451664136400,1.530136474609375,-1.0143280029296875,-0.196197509765625,0.0893707275390625
1751013451674079500,1.54007958984375,-1.0208587646484375,-0.1913604736328125,0.08734130859375
1751013451684022500,1.5500224609375,-1.021026611328125,-0.1856231689453125,0.07843017578125
1751013451693965300,1.55996533203125,-1.015106201171875,-0.1837615966796875,0.06982421875
1751013451703909400,1.569909423828125,-1.0126953125,-0.186370849609375,0.067474365234375
1751013451713852400,1.579852294921875,-1.0106658935546875,-0.1875457763671875,0.06591796875
1751013451723795500,1.58979541015625,-1.0101776123046875,-0.1843719482421875,0.062896728515625
1751013451733739300,1.5997392578125,-1.0070037841796875,-0.182647705078125,0.058929443359375
1751013451743682300,1.609682373046875,-1.0046234130859375,-0.1834716796875,0.056060791015625
1751013451753625300,1.619625244140625,-1.0037841796875,-0.1865692138671875,0.0583648681640625
1751013451763568400,1.629568359375,-1.00091552734375,-0.18719482421875,0.0609283447265625
1751013451773512400,1.639512451171875,-0.994354248046875,-0.18841552734375,0.0644073486328125
1751013451783455500,1.64945556640625,-0.984832763671875,-0.1900482177734375,0.0641937255859375
1751013451793398300,1.659398193359375,-0.977691650390625,-0.1917266845703125,0.061187744140625
1751013451803342300,1.66934228515625,-0.9781951904296875,-0.1951446533203125,0.063568115234375
1751013451813285400,1.679285400390625,-0.982818603515625,-0.200042724609375,0.063629150390625
1751013451823228400,1.689228515625,-0.9904632568359375,-0.2056732177734375,0.064453125
1751013451833171500,1.69917138671875,-0.99493408203125,-0.20916748046875,0.0626220703125
1751013451843115300,1.709115234375,-0.9918212890625,-0.208221435546875,0.0598297119140625
1751013451853058300,1.719058349609375,-0.99273681640625,-0.215972900390625,0.063140869140625
1751013451863001300,1.72900146484375,-0.995880126953125,-0.2160186767578125,0.067657470703125
1751013451872945400,1.7389453125,-0.9946136474609375,-0.2102203369140625,0.0723724365234375
1751013451882888200,1.74888818359375,-0.9922637939453125,-0.20947265625,0.0753326416015625
1751013451892831200,1.758831298828125,-0.992645263671875,-0.20782470703125,0.0761260986328125
1751013451902774300,1.768774169921875,-0.991241455078125,-0.2061614990234375,0.0784759521484375
1751013451912718300,1.77871826171875,-0.997039794921875,-0.2017059326171875,0.0776824951171875
1751013451922661400,1.788661376953125,-1.004180908203125,-0.1970672607421875,0.0764007568359375
1751013451932604400,1.7986044921875,-1.0024566650390625,-0.194305419921875,0.0715484619140625
1751013451942547200,1.808547119140625,-1.001068115234375,-0.193145751953125,0.065185546875
1751013451952491300,1.8184912109375,-1.0040130615234375,-0.1931304931640625,0.05731201171875
1751013451962434300,1.828434326171875,-1.003204345703125,-0.1986846923828125,0.047943115234375
1751013451972377300,1.83837744140625,-1.00579833984375,-0.2064208984375,0.0475921630859375
1751013451982321200,1.848321044921875,-1.006134033203125,-0.21099853515625,0.0469207763671875
1751013451992264200,1.85826416015625,-1.009521484375,-0.21282958984375,0.0438995361328125
1751013452002207200,1.868207275390625,-1.005584716796875,-0.2175750732421875,0.0398406982421875
1751013452012150300,1.878150390625,-0.9978485107421875,-0.219573974609375,0.0371551513671875
1751013452022094300,1.88809423828125,-0.9900970458984375,-0.22088623046875,0.037811279296875
1751013452032037400,1.898037353515625,-0.988067626953125,-0.2224273681640625,0.038421630859375
1751013452041980200,1.907980224609375,-0.991363525390625,-0.2208099365234375,0.0435028076171875
1751013452051924500,1.917924560546875,-0.99169921875,-0.22027587890625,0.04254150390625
1751013452061867500,1.927867431640625,-0.9892425537109375,-0.22186279296875,0.039337158203125
1751013452071810600,1.937810546875,-0.984588623046875,-0.221038818359375,0.042022705078125
1751013452081753300,1.94775341796875,-0.9764556884765625,-0.220367431640625,0.045135498046875
1751013452091697400,1.957697509765625,-0.973236083984375,-0.219512939453125,0.0460052490234375
1751013452101640400,1.967640380859375,-0.9734039306640625,-0.2176513671875,0.05145263671875
1751013452111583500,1.97758349609375,-0.97381591796875,-0.2177276611328125,0.0565643310546875
1751013452121526500,1.987526611328125,-0.976348876953125,-0.2169189453125,0.059722900390625
1751013452131470300,1.99747021484375,-0.979644775390625,-0.21551513671875,0.0594940185546875
1751013452141413400,2.007413330078125,-0.979644775390625,-0.215362548828125,0.0561065673828125
1751013452151356400,2.0173564453125,-0.9793548583984375,-0.216796875,0.0514678955078125
1751013452161300500,2.027300537109375,-0.971923828125,-0.2181396484375,0.04217529296875
1751013452171243500,2.037243408203125,-0.9687652587890625,-0.219696044921875,0.03399658203125
1751013452181186600,2.0471865234375,-0.96832275390625,-0.2253265380859375,0.03533935546875
1751013452191129300,2.05712939453125,-0.9580841064453125,-0.2283172607421875,0.03668212890625
1751013452201073400,2.067073486328125,-0.95831298828125,-0.228851318359375,0.0362548828125
1751013452211016400,2.077016357421875,-0.96185302734375,-0.23394775390625,0.03863525390625
1751013452220959500,2.08695947265625,-0.966339111328125,-0.238128662109375,0.0374603271484375
1751013452230903300,2.0969033203125,-0.970245361328125,-0.2420196533203125,0.036224365234375
1751013452240846300,2.106846435546875,-0.968658447265625,-0.2429656982421875,0.038726806640625
1751013452250789400,2.116789306640625,-0.9667816162109375,-0.24627685546875,0.0396270751953125
1751013452260732400,2.126732421875,-0.9625091552734375,-0.2476348876953125,0.0395660400390625
1751013452270676500,2.136676513671875,-0.9610595703125,-0.245361328125,0.0400390625
1751013452280619300,2.146619384765625,-0.9606475830078125,-0.24285888671875,0.041778564453125
1751013452290562300,2.156562255859375,-0.9604644775390625,-0.241119384765625,0.040252685546875
1751013452300506400,2.16650634765625,-0.9590911865234375,-0.2385711669921875,0.036376953125
1751013452310449400,2.176449462890625,-0.960540771484375,-0.2382049560546875,0.0338287353515625
1751013452320392400,2.186392333984375,-0.96942138671875,-0.2398681640625,0.0307769775390625
1751013452330335500,2.19633544921875,-0.9802703857421875,-0.2379150390625,0.0269927978515625
1751013452340279300,2.206279296875,-0.9926605224609375,-0.2340850830078125,0.024200439453125
1751013452350222300,2.216222412109375,-0.9993133544921875,-0.2301788330078125,0.0200653076171875
1751013452360164400,2.226164306640625,-0.999847412109375,-0.227325439453125,0.010711669921875
1751013452370107400,2.236107421875,-0.9985809326171875,-0.225494384765625,0.00677490234375
1751013452380051500,2.246051513671875,-1.001983642578125,-0.2201080322265625,0.009552001953125
1751013452389994500,2.255994384765625,-1.00543212890625,-0.2172088623046875,0.0130462646484375
1751013452399937300,2.265937255859375,-1.0034332275390625,-0.2169189453125,0.012237548828125
1751013452409881300,2.27588134765625,-0.9937286376953125,-0.21978759765625,0.0122833251953125
1751013452419824400,2.285824462890625,-0.9870452880859375,-0.2210845947265625,0.01470947265625
1751013452429767400,2.295767333984375,-0.9806976318359375,-0.224822998046875,0.0181732177734375
1751013452439710500,2.30571044921875,-0.9713287353515625,-0.2252655029296875,0.0191802978515625
1751013452449654300,2.315654296875,-0.962249755859375,-0.225860595703125,0.0201416015625
1751013452459597300,2.325597412109375,-0.9594268798828125,-0.2304840087890625,0.022796630859375
1751013452469540400,2.335540283203125,-0.9594879150390625,-0.2351226806640625,0.0281524658203125
1751013452479484400,2.345484375,-0.9586181640625,-0.23541259765625,0.029632568359375
1751013452489427500,2.355427490234375,-0.9582366943359375,-0.2338714599609375,0.02783203125
1751013452499370200,2.365370361328125,-0.9669036865234375,-0.2357635498046875,0.0282440185546875
1751013452509313300,2.375313232421875,-0.98016357421875,-0.238311767578125,0.0293731689453125
1751013452519257300,2.38525732421875,-0.9875640869140625,-0.2373504638671875,0.0252532958984375
1751013452529200400,2.395200439453125,-0.9918670654296875,-0.234466552734375,0.0210723876953125
1751013452539143400,2.405143310546875,-0.9933319091796875,-0.230316162109375,0.0169525146484375
1751013452549087200,2.415087158203125,-0.99786376953125,-0.228424072265625,0.019073486328125
1751013452559030300,2.4250302734375,-1.00079345703125,-0.2288360595703125,0.0205841064453125
1751013452568973300,2.434973388671875,-0.9975738525390625,-0.2260589599609375,0.019927978515625
1751013452578916400,2.444916259765625,-0.994293212890625,-0.224212646484375,0.020599365234375
1751013452588860200,2.454860107421875,-0.990386962890625,-0.2240753173828125,0.0188140869140625
1751013452598803200,2.46480322265625,-0.9875335693359375,-0.224212646484375,0.0187835693359375
1751013452608746200,2.474746337890625,-0.9886932373046875,-0.2253265380859375,0.024139404296875
1751013452618689300,2.484689208984375,-0.990570068359375,-0.227691650390625,0.0270843505859375
1751013452628633300,2.49463330078125,-0.990692138671875,-0.2298126220703125,0.0297088623046875
1751013452638576400,2.504576416015625,-0.9922637939453125,-0.2275543212890625,0.0289154052734375
1751013452648519200,2.514519287109375,-0.995269775390625,-0.2253875732421875,0.0261383056640625
1751013452658463500,2.52446337890625,-0.9911346435546875,-0.224334716796875,0.028167724609375
1751013452668406500,2.534406494140625,-0.9944305419921875,-0.2209014892578125,0.02728271484375
1751013452678349300,2.544349365234375,-0.999755859375,-0.223114013671875,0.02655029296875
1751013452688292400,2.554292236328125,-0.99261474609375,-0.22442626953125,0.0244903564453125
1751013452698236400,2.564236328125,-0.990264892578125,-0.216583251953125,0.0187225341796875
1751013452708179500,2.574179443359375,-0.99456787109375,-0.2176055908203125,0.00775146484375
1751013452718122500,2.58412255859375,-0.99395751953125,-0.2224578857421875,-0.0018310546875
1751013452728066600,2.594066650390625,-0.9996185302734375,-0.223236083984375,-0.006927490234375
1751013452738009300,2.60400927734375,-1.0010528564453125,-0.2244110107421875,-0.0108489990234375
1751013452747952400,2.613952392578125,-0.997467041015625,-0.2264251708984375,-0.01385498046875
1751013452757895400,2.6238955078125,-0.992919921875,-0.228057861328125,-0.0163116455078125
1751013452767839500,2.633839599609375,-0.9877471923828125,-0.227264404296875,-0.0162506103515625
1751013452777782500,2.643782470703125,-0.9833984375,-0.2296600341796875,-0.0147705078125
1751013452787725600,2.6537255859375,-0.9791259765625,-0.2327728271484375,-0.011383056640625
1751013452797668400,2.66366845703125,-0.975921630859375,-0.2335205078125,-0.008636474609375
1751013452807612400,2.6736123046875,-0.977020263671875,-0.2335052490234375,-0.01153564453125
1751013452817555500,2.683555419921875,-0.983123779296875,-0.2340240478515625,-0.0123138427734375
1751013452827498500,2.69349853515625,-0.9884796142578125,-0.2350311279296875,-0.0114898681640625
1751013452837442300,2.7034423828125,-0.9904327392578125,-0.23101806640625,-0.0142364501953125
1751013452847385300,2.71338525390625,-0.9909210205078125,-0.2258148193359375,-0.0157318115234375
1751013452857328400,2.723328369140625,-0.9928436279296875,-0.22283935546875,-0.015380859375
1751013452867271400,2.733271484375,-0.9966888427734375,-0.221893310546875,-0.01251220703125
1751013452877215500,2.743215576171875,-0.9987030029296875,-0.221405029296875,-0.0095367431640625
1751013452887158300,2.753158203125,-0.9976959228515625,-0.219512939453125,-0.007080078125
1751013452897101300,2.763101318359375,-0.9929351806640625,-0.2186279296875,-0.00640869140625
1751013452907045400,2.77304541015625,-0.98956298828125,-0.221099853515625,-0.0035858154296875
1751013452916988400,2.782988525390625,-0.98779296875,-0.2243194580078125,0.0018768310546875
1751013452926931500,2.792931396484375,-0.9873199462890625,-0.22662353515625,0.005950927734375
1751013452936874500,2.80287451171875,-0.9842376708984375,-0.2274017333984375,0.0055389404296875
1751013452946818300,2.812818359375,-0.983734130859375,-0.2288970947265625,0.0088348388671875
1751013452956761300,2.82276123046875,-0.9875946044921875,-0.229095458984375,0.0132293701171875
1751013452966704400,2.832704345703125,-0.9906158447265625,-0.2286834716796875,0.0137176513671875
1751013452976647400,2.8426474609375,-0.9878387451171875,-0.228546142578125,0.0146026611328125
1751013452986591200,2.85259130859375,-0.9863739013671875,-0.2270965576171875,0.0130615234375
1751013452996534300,2.8625341796875,-0.9838714599609375,-0.227783203125,0.01104736328125
1751013453006477300,2.872477294921875,-0.97967529296875,-0.2309417724609375,0.010833740234375
1751013453016421400,2.88242138671875,-0.974273681640625,-0.232177734375,0.0124359130859375
1751013453026364400,2.892364501953125,-0.9752960205078125,-0.23382568359375,0.014404296875
1751013453036307500,2.902307373046875,-0.9821624755859375,-0.235137939453125,0.0160675048828125
1751013453046250200,2.912250244140625,-0.9903411865234375,-0.233489990234375,0.017486572265625
1751013453056194300,2.9221943359375,-0.9894256591796875,-0.2344207763671875,0.0134124755859375
1751013453066137300,2.932137451171875,-0.992767333984375,-0.230682373046875,0.0034942626953125
1751013453076080400,2.942080322265625,-0.9979095458984375,-0.23016357421875,0.0039215087890625
1751013453086024200,2.952024169921875,-0.9991607666015625,-0.22894287109375,0.0094757080078125
1751013453095967200,2.96196728515625,-0.995513916015625,-0.2243804931640625,0.0140380859375
1751013453105910300,2.97191015625,-0.9921112060546875,-0.2198486328125,0.0154266357421875
1751013453115853300,2.981853271484375,-0.992340087890625,-0.2186737060546875,0.0138702392578125
1751013453125797400,2.99179736328125,-0.9945068359375,-0.220977783203125,0.0140380859375
1751013453135740200,3.001740234375,-0.99114990234375,-0.221710205078125,0.01739501953125
1751013453145683200,3.01168310546875,-0.99310302734375,-0.222900390625,0.0172271728515625
1751013453155627300,3.021627197265625,-0.996612548828125,-0.22613525390625,0.0146331787109375
1751013453165570300,3.0315703125,-0.998931884765625,-0.2286834716796875,0.0125274658203125
1751013453175513300,3.041513427734375,-1.0011138916015625,-0.230438232421875,0.0084381103515625
1751013453185456400,3.051456298828125,-0.996795654296875,-0.2345733642578125,0.00787353515625
1751013453195400400,3.061400390625,-0.995819091796875,-0.2354888916015625,0.0101470947265625
1751013453205343500,3.071343505859375,-0.9936981201171875,-0.234954833984375,0.01220703125
1751013453215286300,3.081286376953125,-0.9898834228515625,-0.2344512939453125,0.0135650634765625
1751013453225229300,3.091229248046875,-0.9820098876953125,-0.2333984375,0.0149993896484375
1751013453235173400,3.10117333984375,-0.9791259765625,-0.23016357421875,0.0150604248046875
1751013453245116400,3.111116455078125,-0.983428955078125,-0.2295684814453125,0.0150604248046875
1751013453255059500,3.1210595703125,-0.9823455810546875,-0.233917236328125,0.0167999267578125
1751013453265003500,3.13100341796875,-0.9792327880859375,-0.235565185546875,0.018402099609375
1751013453274946600,3.140946533203125,-0.976837158203125,-0.2346954345703125,0.018402099609375
1751013453284889300,3.150889404296875,-0.9786834716796875,-0.2340240478515625,0.015167236328125
1751013453294832400,3.160832275390625,-0.98095703125,-0.2352294921875,0.0106353759765625
1751013453304776400,3.1707763671875,-0.98406982421875,-0.2358245849609375,0.0093994140625
1751013453314719500,3.180719482421875,-0.9838714599609375,-0.2376861572265625,0.0082855224609375
1751013453324662500,3.19066259765625,-0.980255126953125,-0.23834228515625,0.0070343017578125
1751013453334606300,3.2006064453125,-0.9808502197265625,-0.240570068359375,0.0062408447265625
1751013453344549400,3.21054931640625,-0.9775390625,-0.2432708740234375,0.0063934326171875
1751013453354492400,3.220492431640625,-0.976043701171875,-0.2430877685546875,0.0077972412109375
1751013453364436200,3.230436279296875,-0.976593017578125,-0.2424774169921875,0.0118560791015625
1751013453374380000,3.240380126953125,-0.9750823974609375,-0.2417755126953125,0.013336181640625
1751013453384323000,3.250322998046875,-0.9745941162109375,-0.2406158447265625,0.01300048828125
1751013453394266000,3.26026611328125,-0.974151611328125,-0.23828125,0.011962890625
1751013453404210200,3.270210205078125,-0.9749298095703125,-0.2394561767578125,0.0106048583984375
1751013453414153200,3.2801533203125,-0.97607421875,-0.2403411865234375,0.00994873046875
1751013453424096000,3.290095947265625,-0.9782867431640625,-0.2397918701171875,0.01080322265625
1751013453434039000,3.3000390625,-0.9793243408203125,-0.23931884765625,0.0148468017578125
1751013453443983000,3.309983154296875,-0.982330322265625,-0.238037109375,0.0171356201171875
1751013453453926100,3.319926025390625,-0.9837188720703125,-0.2361297607421875,0.0172576904296875
1751013453463869200,3.329869140625,-0.9827423095703125,-0.2336883544921875,0.0137939453125
1751013453473812200,3.339812255859375,-0.98419189453125,-0.2336578369140625,0.0122833251953125
1751013453483756000,3.349756103515625,-0.98663330078125,-0.2347564697265625,0.01409912109375
1751013453493699000,3.359698974609375,-0.98687744140625,-0.233978271484375,0.0147552490234375
1751013453503642000,3.36964208984375,-0.986083984375,-0.234954833984375,0.01434326171875
1751013453513586000,3.3795859375,-0.9812774658203125,-0.2373046875,0.0129547119140625
1751013453523529000,3.389529052734375,-0.978851318359375,-0.2360076904296875,0.014801025390625
1751013453533472000,3.399471923828125,-0.9805145263671875,-0.2367095947265625,0.0189056396484375
1751013453543415000,3.4094150390625,-0.979644775390625,-0.236602783203125,0.02020263671875
1751013453553359000,3.419359130859375,-0.9806671142578125,-0.2366485595703125,0.0161285400390625
1751013453563302100,3.42930224609375,-0.98089599609375,-0.237640380859375,0.014068603515625
1751013453573245000,3.439244873046875,-0.978546142578125,-0.2375030517578125,0.014190673828125
1751013453583189000,3.44918896484375,-0.9757843017578125,-0.239501953125,0.01776123046875
1751013453593132000,3.459132080078125,-0.9780731201171875,-0.2405853271484375,0.018829345703125
1751013453603075000,3.469074951171875,-0.9791107177734375,-0.2430419921875,0.018402099609375
1751013453613018000,3.47901806640625,-0.97967529296875,-0.2420196533203125,0.01812744140625
1751013453622962000,3.4889619140625,-0.9841766357421875,-0.240814208984375,0.017303466796875
1751013453632905000,3.498905029296875,-0.9861602783203125,-0.239349365234375,0.0182342529296875
1751013453642848000,3.508847900390625,-0.987518310546875,-0.2384490966796875,0.017578125
1751013453652791000,3.518791015625,-0.989959716796875,-0.235107421875,0.0197601318359375
1751013453662735000,3.528735107421875,-0.991180419921875,-0.231414794921875,0.021484375
1751013453672678000,3.538677978515625,-0.9906005859375,-0.2305450439453125,0.0211944580078125
1751013453682621000,3.548620849609375,-0.9885406494140625,-0.2313232421875,0.0230560302734375
1751013453692565000,3.55856494140625,-0.9879913330078125,-0.231842041015625,0.0234832763671875
1751013453702508000,3.568508056640625,-0.9874420166015625,-0.231048583984375,0.026641845703125
1751013453712451000,3.578451171875,-0.9900970458984375,-0.2314605712890625,0.029083251953125
1751013453722394000,3.58839404296875,-0.9932861328125,-0.2335052490234375,0.0277862548828125
1751013453732338200,3.598338134765625,-0.996063232421875,-0.233428955078125,0.0243988037109375
1751013453742281000,3.608281005859375,-0.9983673095703125,-0.23052978515625,0.023773193359375
1751013453752224000,3.61822412109375,-0.998077392578125,-0.2286529541015625,0.021881103515625
1751013453762168000,3.62816796875,-0.996368408203125,-0.228607177734375,0.023773193359375
1751013453772111000,3.638111083984375,-0.9960784912109375,-0.2291259765625,0.0222625732421875
1751013453782054100,3.64805419921875,-0.99078369140625,-0.2258453369140625,0.017578125
1751013453791997200,3.6579970703125,-0.9879913330078125,-0.2267608642578125,0.0160064697265625
1751013453801941200,3.667941162109375,-0.99151611328125,-0.228851318359375,0.02783203125
1751013453811884300,3.67788427734375,-0.9906005859375,-0.2291717529296875,0.0253143310546875
1751013453821827000,3.6878271484375,-0.9940643310546875,-0.2342071533203125,0.0302581787109375
1751013453831770000,3.69777001953125,-0.989227294921875,-0.2291107177734375,0.028778076171875
1751013453841714200,3.707714111328125,-0.9936981201171875,-0.231475830078125,0.0375213623046875
1751013453851657200,3.7176572265625,-0.992706298828125,-0.224853515625,0.0312652587890625
1751013453861600300,3.727600341796875,-0.98956298828125,-0.226287841796875,0.031341552734375
1751013453871544000,3.7375439453125,-0.9906768798828125,-0.231292724609375,0.0336761474609375
1751013453881487000,3.747487060546875,-0.990447998046875,-0.232696533203125,0.03271484375
1751013453891430100,3.75743017578125,-0.9853515625,-0.2330322265625,0.0310211181640625
1751013453901373200,3.767373291015625,-0.9808349609375,-0.2316131591796875,0.0301513671875
1751013453911317000,3.77731689453125,-0.98199462890625,-0.235687255859375,0.0297088623046875
1751013453921260000,3.787260009765625,-0.98468017578125,-0.238189697265625,0.02911376953125
1751013453931203000,3.797203125,-0.9854736328125,-0.240570068359375,0.029510498046875
1751013453941147100,3.807147216796875,-0.983001708984375,-0.2425689697265625,0.027069091796875
1751013453951090200,3.817090087890625,-0.979400634765625,-0.2429656982421875,0.02423095703125
1751013453961033200,3.827033203125,-0.9746856689453125,-0.2398681640625,0.022918701171875
1751013453970976000,3.83697607421875,-0.974334716796875,-0.2399749755859375,0.025054931640625
1751013453980920000,3.846920166015625,-0.976806640625,-0.240966796875,0.029510498046875
1751013453990863000,3.856863037109375,-0.98065185546875,-0.2362518310546875,0.0314178466796875
1751013454000806100,3.86680615234375,-0.982940673828125,-0.2349700927734375,0.034027099609375
1751013454010750000,3.87675,-0.9839019775390625,-0.233795166015625,0.03387451171875
1751013454020693000,3.88669287109375,-0.9912109375,-0.23486328125,0.036041259765625
1751013454030636000,3.896635986328125,-0.990936279296875,-0.234283447265625,0.0320281982421875
1751013454040579000,3.9065791015625,-0.98590087890625,-0.2320404052734375,0.0246734619140625
1751013454050523100,3.916523193359375,-0.983306884765625,-0.229644775390625,0.0208282470703125
1751013454060466200,3.926466064453125,-0.983154296875,-0.230133056640625,0.0192718505859375
1751013454070409000,3.936408935546875,-0.986053466796875,-0.233245849609375,0.0188751220703125
1751013454080352000,3.94635205078125,-0.98724365234375,-0.2344818115234375,0.02142333984375
1751013454090296000,3.956296142578125,-0.9896240234375,-0.2325897216796875,0.023956298828125
1751013454100239000,3.966239013671875,-0.99176025390625,-0.232086181640625,0.0279541015625
1751013454110182100,3.97618212890625,-0.989410400390625,-0.23382568359375,0.0294342041015625
1751013454120126000,3.9861259765625,-0.9877471923828125,-0.23291015625,0.027984619140625
1751013454130069000,3.996069091796875,-0.985504150390625,-0.2309112548828125,0.0258941650390625
1751013454140012000,4.006011962890625,-0.9825439453125,-0.231414794921875,0.0256500244140625
1751013454149955000,4.015955078125,-0.9814605712890625,-0.2308502197265625,0.0253753662109375
1751013454159899000,4.02589892578125,-0.9791107177734375,-0.230224609375,0.0284423828125
1751013454169842000,4.035842041015625,-0.9776458740234375,-0.2282257080078125,0.0286407470703125
1751013454179785000,4.045784912109375,-0.9785308837890625,-0.22833251953125,0.0290679931640625
1751013454189729000,4.05572900390625,-0.98211669921875,-0.2312469482421875,0.0305023193359375
1751013454199672000,4.065672119140625,-0.984710693359375,-0.2327423095703125,0.0291290283203125
1751013454209615000,4.075614990234375,-0.9860076904296875,-0.2321014404296875,0.0244598388671875
1751013454219558000,4.085557861328125,-0.98828125,-0.23150634765625,0.0232696533203125
1751013454229502000,4.095501953125,-0.99188232421875,-0.2315216064453125,0.0222015380859375
1751013454239445000,4.105445068359375,-0.9958953857421875,-0.23321533203125,0.0262298583984375
1751013454249388000,4.115387939453125,-0.995147705078125,-0.23321533203125,0.0267791748046875
1751013454259332000,4.12533203125,-0.98773193359375,-0.2320709228515625,0.0268402099609375
1751013454269275100,4.135275146484375,-0.9891357421875,-0.2313690185546875,0.0255889892578125
1751013454279218000,4.145218017578125,-0.9925537109375,-0.2305450439453125,0.026641845703125
1751013454289161000,4.155160888671875,-0.99090576171875,-0.2294769287109375,0.027099609375
1751013454299105300,4.165105224609375,-0.9913330078125,-0.228729248046875,0.026275634765625
1751013454309048000,4.175048095703125,-0.99365234375,-0.2290191650390625,0.0266265869140625
1751013454318991000,4.1849912109375,-0.9941558837890625,-0.23004150390625,0.0228271484375
1751013454328934100,4.19493408203125,-0.991058349609375,-0.2297821044921875,0.0210723876953125
1751013454338878200,4.204878173828125,-0.99273681640625,-0.229034423828125,0.0172882080078125
1751013454348821200,4.2148212890625,-0.990997314453125,-0.230804443359375,0.0160980224609375
1751013454358764300,4.224764404296875,-0.986846923828125,-0.2300567626953125,0.0147857666015625
1751013454368711700,4.234711669921875,-0.9844818115234375,-0.230438232421875,0.0162353515625
1751013454378654700,4.24465478515625,-0.9828643798828125,-0.231719970703125,0.0194244384765625
1751013454388597800,4.25459765625,-0.9793548583984375,-0.23284912109375,0.021209716796875
1751013454398540800,4.264540771484375,-0.9788818359375,-0.2320556640625,0.0199432373046875
1751013454408484600,4.274484619140625,-0.9796295166015625,-0.232208251953125,0.0188751220703125
1751013454418427600,4.284427734375,-0.981719970703125,-0.233917236328125,0.019775390625
1751013454428370700,4.29437060546875,-0.983642578125,-0.23370361328125,0.019744873046875
1751013454438314800,4.304314697265625,-0.985443115234375,-0.232330322265625,0.0198516845703125
1751013454448257800,4.3142578125,-0.9871368408203125,-0.2312469482421875,0.0199737548828125
1751013454458200600,4.32420068359375,-0.9886322021484375,-0.2305755615234375,0.0225982666015625
1751013454468143600,4.3341435546875,-0.988739013671875,-0.22906494140625,0.0227508544921875
1751013454478087700,4.344087646484375,-0.9849700927734375,-0.2291107177734375,0.0210723876953125
1751013454488030700,4.35403076171875,-0.9805145263671875,-0.228546142578125,0.0199737548828125
1751013454497973800,4.363973876953125,-0.9774017333984375,-0.22882080078125,0.0220947265625
1751013454507917600,4.37391748046875,-0.9797210693359375,-0.229400634765625,0.0237579345703125
1751013454517860600,4.383860595703125,-0.9826812744140625,-0.231689453125,0.0250396728515625
1751013454527803600,4.3938037109375,-0.9823760986328125,-0.2322998046875,0.024993896484375
1751013454537746700,4.40374658203125,-0.9835968017578125,-0.23016357421875,0.024169921875
1751013454547690800,4.413690673828125,-0.9883575439453125,-0.2285003662109375,0.02569580078125
1751013454557633500,4.423633544921875,-0.9904937744140625,-0.2295684814453125,0.027130126953125
1751013454567576600,4.43357666015625,-0.990509033203125,-0.2290496826171875,0.02801513671875
1751013454577519600,4.44351953125,-0.9883270263671875,-0.226470947265625,0.0296630859375
1751013454587464000,4.4534638671875,-0.9879150390625,-0.224456787109375,0.0316619873046875
1751013454597406700,4.46340673828125,-0.988250732421875,-0.223358154296875,0.034576416015625
1751013454607349800,4.473349853515625,-0.98779296875,-0.2226104736328125,0.0345306396484375
1751013454617293800,4.4832939453125,-0.98736572265625,-0.2229766845703125,0.0343475341796875
1751013454627236900,4.49323681640625,-0.9870758056640625,-0.223724365234375,0.0360107421875
1751013454637180000,4.503179931640625,-0.9864654541015625,-0.225372314453125,0.0381317138671875
1751013454647123000,4.513123046875,-0.9890594482421875,-0.226348876953125,0.0361328125
1751013454657066800,4.523066650390625,-0.9891204833984375,-0.226287841796875,0.033355712890625
1751013454667009800,4.533009765625,-0.985565185546875,-0.227081298828125,0.03369140625
1751013454676952800,4.542952880859375,-0.9824981689453125,-0.226043701171875,0.033447265625
1751013454686897000,4.55289697265625,-0.984039306640625,-0.2258453369140625,0.0352630615234375
1751013454696840000,4.56283984375,-0.983612060546875,-0.2262725830078125,0.0357666015625
1751013454706782700,4.57278271484375,-0.9848785400390625,-0.2272796630859375,0.0333099365234375
1751013454716725800,4.582725830078125,-0.9868927001953125,-0.229278564453125,0.031158447265625
1751013454726669800,4.592669921875,-0.985565185546875,-0.229461669921875,0.03240966796875
1751013454736612900,4.60261279296875,-0.9848785400390625,-0.227935791015625,0.0333251953125
1751013454746556000,4.612555908203125,-0.9844970703125,-0.2257232666015625,0.0334320068359375
1751013454756499700,4.622499755859375,-0.9847869873046875,-0.2249298095703125,0.035491943359375
1751013454766442800,4.63244287109375,-0.9857025146484375,-0.223236083984375,0.0352630615234375
1751013454776385800,4.6423857421875,-0.9860992431640625,-0.2236328125,0.034881591796875
1751013454786328800,4.652328857421875,-0.9846649169921875,-0.22637939453125,0.0363616943359375
1751013454796272600,4.662272705078125,-0.9849395751953125,-0.2287139892578125,0.0378570556640625
1751013454806215700,4.672215576171875,-0.98431396484375,-0.2298126220703125,0.03741455078125
1751013454816158700,4.68215869140625,-0.982879638671875,-0.23046875,0.0383148193359375
1751013454826102800,4.692102783203125,-0.9847564697265625,-0.227752685546875,0.0392303466796875
1751013454836045800,4.7020458984375,-0.9882354736328125,-0.2264404296875,0.0381317138671875
1751013454845988900,4.71198876953125,-0.9901580810546875,-0.2271270751953125,0.03948974609375
1751013454855931600,4.721931640625,-0.9881134033203125,-0.22808837890625,0.0418701171875
1751013454865875700,4.731875732421875,-0.9870758056640625,-0.226593017578125,0.042022705078125
1751013454875818800,4.74181884765625,-0.9922027587890625,-0.223663330078125,0.0399627685546875
1751013454885761800,4.75176171875,-0.994171142578125,-0.2218475341796875,0.0372467041015625
1751013454895705600,4.76170556640625,-0.994781494140625,-0.2203826904296875,0.036712646484375
1751013454905648600,4.771648681640625,-0.99420166015625,-0.21929931640625,0.0357666015625
1751013454915591700,4.781591796875,-0.996368408203125,-0.2178192138671875,0.0347900390625
1751013454925534700,4.79153466796875,-0.99774169921875,-0.2186279296875,0.0336456298828125
1751013454935478800,4.801478759765625,-0.9951934814453125,-0.2197265625,0.0348663330078125
1751013454945421600,4.811421630859375,-0.9950103759765625,-0.221160888671875,0.036041259765625
1751013454955364600,4.821364501953125,-0.9922637939453125,-0.224761962890625,0.037322998046875
1751013454965307600,4.8313076171875,-0.989349365234375,-0.22418212890625,0.0422821044921875
1751013454975251700,4.841251708984375,-0.9870452880859375,-0.22467041015625,0.0433807373046875
1751013454985194800,4.85119482421875,-0.9849090576171875,-0.2257232666015625,0.0424041748046875
1751013454995137800,4.8611376953125,-0.98370361328125,-0.2263641357421875,0.0414581298828125
1751013455005081600,4.87108154296875,-0.983642578125,-0.2266998291015625,0.0389251708984375
1751013455015024600,4.881024658203125,-0.9840545654296875,-0.227569580078125,0.036163330078125
1751013455024967700,4.8909677734375,-0.98480224609375,-0.228790283203125,0.03411865234375
1751013455034910700,4.90091064453125,-0.9875640869140625,-0.231475830078125,0.0329132080078125
1751013455044854500,4.9108544921875,-0.9889373779296875,-0.2309112548828125,0.0330352783203125
1751013455054797600,4.920797607421875,-0.9887847900390625,-0.2325286865234375,0.0327606201171875
1751013455064740600,4.93074072265625,-0.9910430908203125,-0.231781005859375,0.033447265625
1751013455074685000,4.940684814453125,-0.99053955078125,-0.231719970703125,0.03375244140625
1751013455084627700,4.950627685546875,-0.9910888671875,-0.23046875,0.0348663330078125
1751013455094570800,4.96057080078125,-0.9873809814453125,-0.23101806640625,0.033721923828125
1751013455104513500,4.970513427734375,-0.9839019775390625,-0.2304840087890625,0.0328216552734375
1751013455114457900,4.980457763671875,-0.9855194091796875,-0.2284088134765625,0.03265380859375
1751013455124401000,4.99040087890625,-0.9878082275390625,-0.22918701171875,0.032562255859375
1751013455134344000,5.000343994140625,-0.99029541015625,-0.2296142578125,0.0334625244140625
1751013455144287700,5.010287841796875,-0.9898529052734375,-0.2283172607421875,0.031707763671875
1751013455154230800,5.020230712890625,-0.989288330078125,-0.2273406982421875,0.0294036865234375
1751013455164173800,5.030173828125,-0.9879913330078125,-0.2274627685546875,0.028472900390625
1751013455174116900,5.040116943359375,-0.98797607421875,-0.2271728515625,0.0285491943359375
1751013455184061000,5.05006103515625,-0.990081787109375,-0.2268218994140625,0.0310211181640625
1751013455194003700,5.060003662109375,-0.989654541015625,-0.2266845703125,0.0345001220703125
1751013455203946800,5.06994677734375,-0.98431396484375,-0.2238311767578125,0.035797119140625
1751013455213890800,5.079890869140625,-0.981964111328125,-0.2203369140625,0.0377655029296875
1751013455223833900,5.089833740234375,-0.98687744140625,-0.220306396484375,0.0384521484375
1751013455233777000,5.09977685546875,-0.988616943359375,-0.2209014892578125,0.0327606201171875
1751013455243720000,5.109719970703125,-0.9879913330078125,-0.2185821533203125,0.0341033935546875
1751013455253663700,5.119663818359375,-0.9894561767578125,-0.21856689453125,0.037567138671875
1751013455263606800,5.129606689453125,-0.9906005859375,-0.2195281982421875,0.0384979248046875
1751013455273549800,5.1395498046875,-0.9872894287109375,-0.2230224609375,0.03680419921875
1751013455283493600,5.14949365234375,-0.983551025390625,-0.22357177734375,0.0352783203125
1751013455293436700,5.159436767578125,-0.9813232421875,-0.224090576171875,0.03717041015625
1751013455303379700,5.169379638671875,-0.9799041748046875,-0.2265625,0.03680419921875
1751013455313322800,5.17932275390625,-0.97943115234375,-0.22674560546875,0.036834716796875
1751013455323266800,5.189266845703125,-0.976715087890625,-0.2285919189453125,0.0372467041015625
1751013455333209900,5.1992099609375,-0.9742889404296875,-0.227630615234375,0.0362548828125
1751013455343152600,5.209152587890625,-0.9786834716796875,-0.227783203125,0.036285400390625
1751013455353096700,5.2190966796875,-0.9822998046875,-0.228607177734375,0.03826904296875
1751013455363036200,5.2290361328125,-0.9842681884765625,-0.227874755859375,0.037872314453125
1751013455372979200,5.238979248046875,-0.98602294921875,-0.2258148193359375,0.034515380859375
1751013455382922200,5.248922119140625,-0.9880828857421875,-0.2255706787109375,0.0308380126953125
1751013455392866000,5.258865966796875,-0.98797607421875,-0.2244415283203125,0.0301361083984375
1751013455402809000,5.26880908203125,-0.987030029296875,-0.223602294921875,0.0313720703125
1751013455412752100,5.278752197265625,-0.9864959716796875,-0.2240447998046875,0.0322113037109375
1751013455422696200,5.2886962890625,-0.9862823486328125,-0.2261962890625,0.0325164794921875
1751013455432639200,5.29863916015625,-0.9866943359375,-0.2270355224609375,0.0364227294921875
1751013455442582000,5.30858203125,-0.9896087646484375,-0.2280120849609375,0.0396728515625
1751013455452525000,5.318525146484375,-0.9915924072265625,-0.2273712158203125,0.0395660400390625
1751013455462469000,5.32846923828125,-0.992645263671875,-0.22467041015625,0.03778076171875
1751013455472412200,5.338412109375,-0.99163818359375,-0.2226715087890625,0.0341033935546875
1751013455482355200,5.348355224609375,-0.9937896728515625,-0.2220611572265625,0.029205322265625
1751013455492299000,5.358299072265625,-0.9973602294921875,-0.220794677734375,0.0297088623046875
1751013455502242000,5.368241943359375,-0.999267578125,-0.2206268310546875,0.0296478271484375
1751013455512185000,5.37818505859375,-0.997039794921875,-0.2214508056640625,0.0293121337890625
1751013455522128100,5.388128173828125,-0.992279052734375,-0.2213897705078125,0.0302886962890625
1751013455532072200,5.398072265625,-0.9900054931640625,-0.220001220703125,0.0339202880859375
1751013455542015000,5.408014892578125,-0.9882659912109375,-0.2209320068359375,0.0354766845703125
1751013455551958000,5.4179580078125,-0.98577880859375,-0.2225341796875,0.036407470703125
1751013455561902000,5.427902099609375,-0.9849853515625,-0.2230987548828125,0.035430908203125
1751013455571845000,5.43784521484375,-0.9862213134765625,-0.223846435546875,0.0357208251953125
1751013455581788200,5.4477880859375,-0.9861602783203125,-0.224700927734375,0.03448486328125
1751013455591731000,5.45773095703125,-0.9871368408203125,-0.2236480712890625,0.0327606201171875
1751013455601675000,5.467675048828125,-0.98846435546875,-0.2231597900390625,0.0335845947265625
1751013455611618000,5.4776181640625,-0.988739013671875,-0.2222747802734375,0.0318145751953125
1751013455621561000,5.48756103515625,-0.9866180419921875,-0.221710205078125,0.029998779296875
1751013455631505000,5.4975048828125,-0.9864044189453125,-0.2226715087890625,0.031494140625
1751013455641448000,5.507447998046875,-0.987579345703125,-0.2243499755859375,0.0329742431640625
1751013455651391000,5.517390869140625,-0.990020751953125,-0.2253875732421875,0.0336761474609375
1751013455661334000,5.527333984375,-0.98773193359375,-0.2273101806640625,0.0354156494140625
1751013455671278000,5.537278076171875,-0.985626220703125,-0.22705078125,0.0383148193359375
1751013455681221000,5.54722119140625,-0.9843292236328125,-0.2277069091796875,0.037200927734375
1751013455691164000,5.557163818359375,-0.98345947265625,-0.2271575927734375,0.035400390625
1751013455701108200,5.567108154296875,-0.9847869873046875,-0.224639892578125,0.033905029296875
1751013455711051300,5.57705126953125,-0.9869537353515625,-0.222564697265625,0.03521728515625
1751013455720994300,5.586994384765625,-0.989471435546875,-0.2232666015625,0.032806396484375
1751013455730937000,5.59693701171875,-0.9909515380859375,-0.2237091064453125,0.0354156494140625
1751013455740881200,5.606881103515625,-0.9878082275390625,-0.2241363525390625,0.0345001220703125
1751013455750824200,5.61682421875,-0.9851837158203125,-0.2236328125,0.03533935546875
1751013455760767200,5.626767333984375,-0.98321533203125,-0.2228851318359375,0.0362091064453125
1751013455770711300,5.636711181640625,-0.98126220703125,-0.22235107421875,0.0376739501953125
1751013455780654000,5.646654052734375,-0.9807586669921875,-0.2221221923828125,0.039642333984375
1751013455790597000,5.65659716796875,-0.9793853759765625,-0.2197265625,0.038360595703125
1751013455800540200,5.6665400390625,-0.9815673828125,-0.220062255859375,0.036376953125
1751013455810484200,5.676484130859375,-0.9852447509765625,-0.2231903076171875,0.0337982177734375
1751013455820427300,5.68642724609375,-0.987457275390625,-0.225067138671875,0.035125732421875
1751013455830370300,5.696370361328125,-0.9881591796875,-0.2242889404296875,0.0337982177734375
1751013455840314000,5.706314208984375,-0.9879302978515625,-0.222564697265625,0.031982421875
1751013455850257200,5.716257080078125,-0.98809814453125,-0.221710205078125,0.0320892333984375
1751013455860200200,5.7262001953125,-0.98699951171875,-0.2211151123046875,0.0344390869140625
1751013455870143200,5.736143310546875,-0.9859619140625,-0.221405029296875,0.03515625
1751013455880087000,5.746087158203125,-0.9832000732421875,-0.2230072021484375,0.036102294921875
1751013455890030000,5.756030029296875,-0.9833221435546875,-0.2243194580078125,0.0354461669921875
1751013455899973000,5.76597314453125,-0.9817352294921875,-0.2258453369140625,0.0360260009765625
1751013455909917200,5.775917236328125,-0.980682373046875,-0.2254791259765625,0.037261962890625
1751013455919860200,5.785860107421875,-0.982025146484375,-0.2238311767578125,0.039093017578125
1751013455929803000,5.795802978515625,-0.9863433837890625,-0.2224273681640625,0.0388946533203125
1751013455939746000,5.80574609375,-0.9878997802734375,-0.222259521484375,0.0379486083984375
1751013455949690000,5.815690185546875,-0.987579345703125,-0.2218780517578125,0.0361175537109375
1751013455959633200,5.825633056640625,-0.988616943359375,-0.222076416015625,0.0352020263671875
1751013455969576200,5.835576171875,-0.991119384765625,-0.222198486328125,0.0370941162109375
1751013455979520000,5.84552001953125,-0.991790771484375,-0.221649169921875,0.038665771484375
1751013455989463000,5.855463134765625,-0.9921875,-0.22137451171875,0.0384521484375
1751013455999406000,5.865406005859375,-0.9898223876953125,-0.2214202880859375,0.0372161865234375
1751013456009350100,5.87535009765625,-0.9874267578125,-0.2194671630859375,0.03912353515625
1751013456019293200,5.885293212890625,-0.9874420166015625,-0.2173004150390625,0.0412445068359375
1751013456029236000,5.895236083984375,-0.989471435546875,-0.2180328369140625,0.03985595703125
1751013456039179000,5.905178955078125,-0.9936981201171875,-0.2180938720703125,0.0393829345703125
1751013456049123000,5.915123046875,-0.99615478515625,-0.217742919921875,0.038177490234375
1751013456059066000,5.925066162109375,-0.9994049072265625,-0.2175445556640625,0.036102294921875
1751013456069009200,5.935009033203125,-1.0005035400390625,-0.21697998046875,0.035980224609375
1751013456078953000,5.944952880859375,-0.9983367919921875,-0.2158203125,0.034332275390625
1751013456088896000,5.95489599609375,-0.996673583984375,-0.2154998779296875,0.033233642578125
1751013456098839000,5.964839111328125,-0.995697021484375,-0.2174072265625,0.0367279052734375
1751013456108782000,5.974781982421875,-0.9900360107421875,-0.21868896484375,0.0393524169921875
1751013456118726000,5.984725830078125,-0.98687744140625,-0.2199249267578125,0.0423431396484375
1751013456128669000,5.9946689453125,-0.9854583740234375,-0.2212982177734375,0.042205810546875
1751013456138612000,6.004612060546875,-0.9850616455078125,-0.2207183837890625,0.0384674072265625
1751013456148556300,6.014556396484375,-0.986907958984375,-0.221405029296875,0.0356597900390625
1751013456158499000,6.0244990234375,-0.9893646240234375,-0.222320556640625,0.03521728515625
1751013456168442000,6.034442138671875,-0.99267578125,-0.223663330078125,0.0357513427734375
1751013456178385000,6.044385009765625,-0.996307373046875,-0.2231903076171875,0.0352020263671875
1751013456188329200,6.0543291015625,-0.9995880126953125,-0.221405029296875,0.0342864990234375
1751013456198272300,6.064272216796875,-0.9961090087890625,-0.2199859619140625,0.0335845947265625
1751013456208215300,6.07421533203125,-0.9913330078125,-0.219512939453125,0.03314208984375
1751013456218159000,6.0841591796875,-0.9851226806640625,-0.2192840576171875,0.034149169921875
1751013456228102100,6.09410205078125,-0.986602783203125,-0.2185516357421875,0.0394287109375
1751013456238045200,6.104045166015625,-0.9871978759765625,-0.219512939453125,0.0417938232421875
1751013456247988200,6.11398828125,-0.987823486328125,-0.219207763671875,0.0414581298828125
1751013456257932300,6.123932373046875,-0.99114990234375,-0.218963623046875,0.0413970947265625
1751013456267875000,6.133875,-0.992919921875,-0.21795654296875,0.04071044921875
1751013456277818000,6.143818115234375,-0.9922332763671875,-0.21673583984375,0.0387420654296875
1751013456287762200,6.15376220703125,-0.99493408203125,-0.21600341796875,0.03814697265625
1751013456297705200,6.163705322265625,-0.9951324462890625,-0.2155303955078125,0.037567138671875
1751013456307648300,6.173648193359375,-0.9931640625,-0.213470458984375,0.0408782958984375
1751013456317591300,6.18359130859375,-0.9961090087890625,-0.211639404296875,0.04266357421875
1751013456327535000,6.19353515625,-0.9990692138671875,-0.2130584716796875,0.045928955078125
1751013456337478100,6.20347802734375,-0.992767333984375,-0.2124481201171875,0.0529632568359375
1751013456347421200,6.213421142578125,-0.9868927001953125,-0.210479736328125,0.0511016845703125
1751013456357365200,6.223365234375,-0.984405517578125,-0.2116546630859375,0.0521392822265625
1751013456367307800,6.233307861328125,-0.9868011474609375,-0.212188720703125,0.0507965087890625
1751013456377250600,6.24325048828125,-0.9891510009765625,-0.2147369384765625,0.0497589111328125
1751013456387194600,6.253194580078125,-0.986541748046875,-0.215667724609375,0.050140380859375
1751013456397137700,6.2631376953125,-0.9851226806640625,-0.213409423828125,0.0493011474609375
1751013456407080700,6.273080810546875,-0.9871063232421875,-0.2100982666015625,0.0460968017578125
1751013456417023700,6.283023681640625,-0.985198974609375,-0.2121734619140625,0.0462493896484375
1751013456426967600,6.292967529296875,-0.9835968017578125,-0.2136993408203125,0.0494537353515625
1751013456436910600,6.30291064453125,-0.9859161376953125,-0.2130584716796875,0.05194091796875
1751013456446853600,6.312853515625,-0.9879150390625,-0.213226318359375,0.0516357421875
1751013456456797700,6.322797607421875,-0.990020751953125,-0.21453857421875,0.0504608154296875
1751013456466740700,6.33274072265625,-0.9925079345703125,-0.2171783447265625,0.0469512939453125
1751013456476683500,6.34268359375,-0.9879608154296875,-0.21588134765625,0.0440521240234375
1751013456486626600,6.35262646484375,-0.986053466796875,-0.2149200439453125,0.04736328125
1751013456496570600,6.362570556640625,-0.988128662109375,-0.2152557373046875,0.0516815185546875
1751013456506513700,6.372513671875,-0.988677978515625,-0.216796875,0.053802490234375
1751013456516456700,6.382456787109375,-0.98583984375,-0.2159271240234375,0.05322265625
1751013456526400800,6.39240087890625,-0.9844970703125,-0.2127532958984375,0.0523529052734375
1751013456536343800,6.40234375,-0.98712158203125,-0.2135162353515625,0.0517578125
1751013456546286600,6.41228662109375,-0.990142822265625,-0.2143707275390625,0.0511474609375
1751013456556229600,6.422229736328125,-0.9935302734375,-0.2134857177734375,0.0509796142578125
1751013456566173700,6.432173583984375,-0.9935760498046875,-0.2130279541015625,0.04974365234375
1751013456576116700,6.44211669921875,-0.99346923828125,-0.214141845703125,0.048583984375
1751013456586059800,6.452059814453125,-0.9923095703125,-0.2145538330078125,0.046966552734375
1751013456596003800,6.46200390625,-0.990997314453125,-0.2139739990234375,0.0472259521484375
1751013456605947000,6.47194677734375,-0.99249267578125,-0.2121124267578125,0.049072265625
1751013456615889700,6.4818896484375,-0.9967803955078125,-0.212249755859375,0.0503082275390625
1751013456625833700,6.491833740234375,-0.9989013671875,-0.2112274169921875,0.050140380859375
1751013456635776800,6.50177685546875,-0.998291015625,-0.2107391357421875,0.0489044189453125
1751013456645719800,6.5117197265625,-0.9962615966796875,-0.2120513916015625,0.0474395751953125
1751013456655662800,6.521662841796875,-0.99664306640625,-0.2120208740234375,0.0450439453125
1751013456665606700,6.531606689453125,-0.9976043701171875,-0.2122344970703125,0.0438079833984375
1751013456675549700,6.5415498046875,-0.9971160888671875,-0.2129058837890625,0.0472259521484375
1751013456685492700,6.55149267578125,-0.995361328125,-0.2145233154296875,0.049652099609375
1751013456695436800,6.561436767578125,-0.992828369140625,-0.2132568359375,0.050048828125
1751013456705379800,6.5713798828125,-0.9902496337890625,-0.215667724609375,0.04840087890625
1751013456715322600,6.581322509765625,-0.9893035888671875,-0.21728515625,0.0482025146484375
1751013456725265700,6.591265625,-0.9883270263671875,-0.2190399169921875,0.0488128662109375
1751013456735209700,6.601209716796875,-0.987030029296875,-0.2190093994140625,0.0487213134765625
1751013456745152800,6.61115283203125,-0.987060546875,-0.2195892333984375,0.047821044921875
1751013456755095800,6.621095703125,-0.9866180419921875,-0.2203521728515625,0.04632568359375
1751013456765039600,6.63103955078125,-0.9853668212890625,-0.2207183837890625,0.0446624755859375
1751013456774982700,6.640982666015625,-0.9826507568359375,-0.2195587158203125,0.043792724609375
1751013456784925700,6.65092578125,-0.9825286865234375,-0.2166900634765625,0.044525146484375
1751013456794869800,6.660869873046875,-0.98187255859375,-0.2165374755859375,0.0473175048828125
1751013456804812500,6.6708125,-0.98175048828125,-0.2185516357421875,0.0496673583984375
1751013456814755600,6.680755615234375,-0.9828948974609375,-0.2194976806640625,0.0511932373046875
1751013456824698600,6.69069873046875,-0.9835357666015625,-0.2176055908203125,0.0498199462890625
1751013456834642700,6.700642578125,-0.9849090576171875,-0.2178497314453125,0.05078125
1751013456844585700,6.710585693359375,-0.987762451171875,-0.216156005859375,0.0533294677734375
1751013456854528800,6.72052880859375,-0.988311767578125,-0.215179443359375,0.054443359375
1751013456864472600,6.73047265625,-0.987579345703125,-0.2117767333984375,0.05609130859375
1751013456874415600,6.74041552734375,-0.9896392822265625,-0.2093505859375,0.058380126953125
1751013456884358700,6.750358642578125,-0.9885406494140625,-0.2075653076171875,0.0593109130859375
1751013456894301700,6.7603017578125,-0.986297607421875,-0.2082672119140625,0.059478759765625
1751013456904245500,6.77024560546875,-0.984405517578125,-0.208221435546875,0.059112548828125
1751013456914188500,6.7801884765625,-0.9857177734375,-0.2074737548828125,0.0582275390625
1751013456924131600,6.790131591796875,-0.98126220703125,-0.2118377685546875,0.0634307861328125
1751013456934075600,6.80007568359375,-0.9748992919921875,-0.2125701904296875,0.061309814453125
1751013456944018700,6.810018798828125,-1.000030517578125,-0.21258544921875,0.0493621826171875
1751013456953961700,6.819961669921875,-0.995452880859375,-0.2157745361328125,0.0587005615234375
1751013456963905800,6.82990576171875,-0.9929656982421875,-0.2135162353515625,0.064788818359375
1751013456973848800,6.839848876953125,-0.9889678955078125,-0.2113189697265625,0.05914306640625
1751013456983791600,6.84979150390625,-0.9909820556640625,-0.21343994140625,0.0543670654296875
1751013456993734700,6.859734619140625,-0.9904937744140625,-0.2147369384765625,0.0573272705078125
1751013457003678700,6.8696787109375,-0.98809814453125,-0.2124786376953125,0.0626068115234375
1751013457013621800,6.879621826171875,-0.986846923828125,-0.20977783203125,0.063140869140625
1751013457023564800,6.889564697265625,-0.9837493896484375,-0.2103271484375,0.0620269775390625
1751013457033508900,6.8995087890625,-0.98309326171875,-0.210205078125,0.058990478515625
1751013457043452000,6.909451904296875,-0.9857177734375,-0.2103424072265625,0.0579071044921875
1751013457053394700,6.919394775390625,-0.9862823486328125,-0.2126007080078125,0.057037353515625
1751013457063337700,6.929337646484375,-0.9866790771484375,-0.2135162353515625,0.056121826171875
1751013457073281800,6.93928173828125,-0.9875335693359375,-0.212982177734375,0.056732177734375
1751013457083224800,6.949224853515625,-0.990447998046875,-0.2126922607421875,0.058502197265625
1751013457093167900,6.95916796875,-0.993865966796875,-0.212432861328125,0.0595703125
1751013457103111700,6.969111572265625,-0.9947357177734375,-0.212677001953125,0.05621337890625
1751013457113054700,6.9790546875,-0.994049072265625,-0.2146148681640625,0.0537261962890625
1751013457122997800,6.988997802734375,-0.9938812255859375,-0.216400146484375,0.05328369140625
1751013457132941800,6.99894189453125,-0.99407958984375,-0.214019775390625,0.053863525390625
1751013457142884600,7.008884521484375,-0.9955596923828125,-0.2102508544921875,0.053985595703125
1751013457152827600,7.01882763671875,-0.996978759765625,-0.2099151611328125,0.0554351806640625
1751013457162770700,7.028770751953125,-0.992340087890625,-0.2119293212890625,0.0566253662109375
1751013457172714800,7.03871484375,-0.98736572265625,-0.212310791015625,0.0551910400390625
1751013457182657800,7.04865771484375,-0.98492431640625,-0.21307373046875,0.05572509765625
1751013457192600800,7.058600830078125,-0.9833221435546875,-0.21527099609375,0.0567779541015625
1751013457202544600,7.068544677734375,-0.9867095947265625,-0.2152862548828125,0.05584716796875
1751013457212487700,7.07848779296875,-0.99090576171875,-0.2126312255859375,0.0559844970703125
1751013457222430700,7.0884306640625,-0.9932861328125,-0.2146759033203125,0.0556793212890625
1751013457232373800,7.098373779296875,-0.9946136474609375,-0.2159271240234375,0.05078125
1751013457242317600,7.108317626953125,-0.9953460693359375,-0.21319580078125,0.048492431640625
1751013457252260600,7.118260498046875,-0.9943389892578125,-0.2110137939453125,0.0480499267578125
1751013457262203600,7.12820361328125,-0.9904937744140625,-0.2091217041015625,0.049407958984375
1751013457272147700,7.138147705078125,-0.9881439208984375,-0.2102508544921875,0.053070068359375
1751013457282090800,7.1480908203125,-0.986419677734375,-0.211029052734375,0.0568695068359375
1751013457292033800,7.15803369140625,-0.9830474853515625,-0.21044921875,0.0577850341796875
1751013457301977600,7.1679775390625,-0.984100341796875,-0.211273193359375,0.05865478515625
1751013457311920600,7.177920654296875,-0.9838409423828125,-0.2115478515625,0.058135986328125
1751013457321863700,7.18786376953125,-0.986358642578125,-0.2112274169921875,0.05712890625
1751013457331806700,7.197806640625,-0.988861083984375,-0.214141845703125,0.0573883056640625
1751013457341750500,7.20775048828125,-0.990020751953125,-0.2140045166015625,0.056396484375
1751013457351693600,7.217693603515625,-0.9893798828125,-0.2127838134765625,0.05419921875
1751013457361636600,7.22763671875,-0.990234375,-0.2123870849609375,0.0562591552734375
1751013457371580400,7.237580322265625,-0.991241455078125,-0.212158203125,0.055938720703125
1751013457381523500,7.2475234375,-0.9889373779296875,-0.213104248046875,0.0531005859375
1751013457391466500,7.257466552734375,-0.98480224609375,-0.2142333984375,0.0517578125
1751013457401410300,7.267410400390625,-0.984893798828125,-0.21490478515625,0.052581787109375
1751013457411353300,7.277353271484375,-0.987060546875,-0.2165679931640625,0.0543060302734375
1751013457421296400,7.28729638671875,-0.986907958984375,-0.2168121337890625,0.0536041259765625
1751013457431239400,7.297239501953125,-0.9891510009765625,-0.215972900390625,0.0507965087890625
1751013457441183500,7.30718359375,-0.9881591796875,-0.214111328125,0.0514373779296875
1751013457451126300,7.317126220703125,-0.9888763427734375,-0.2146759033203125,0.05206298828125
1751013457461069300,7.3270693359375,-0.9875640869140625,-0.213531494140625,0.050689697265625
1751013457471013600,7.337013671875,-0.9815673828125,-0.2135467529296875,0.0481719970703125
1751013457480956700,7.346956787109375,-0.97894287109375,-0.2148284912109375,0.046966552734375
1751013457490899500,7.3568994140625,-0.9800567626953125,-0.21685791015625,0.0481719970703125
1751013457500843500,7.366843505859375,-0.983642578125,-0.2171478271484375,0.0488433837890625
1751013457510786600,7.37678662109375,-0.9874725341796875,-0.2170257568359375,0.0470733642578125
1751013457520729600,7.3867294921875,-0.991485595703125,-0.2179718017578125,0.0489501953125
1751013457530672600,7.396672607421875,-0.991668701171875,-0.2187042236328125,0.0488128662109375
1751013457540616400,7.406616455078125,-0.9942779541015625,-0.2164459228515625,0.0452728271484375
1751013457550559500,7.4165595703125,-0.99542236328125,-0.214263916015625,0.040618896484375
1751013457560502500,7.42650244140625,-0.9967803955078125,-0.2135009765625,0.04046630859375
1751013457570446600,7.436446533203125,-1.0012359619140625,-0.211822509765625,0.044281005859375
1751013457580389400,7.446389404296875,-1.00213623046875,-0.213134765625,0.0446624755859375
1751013457590332400,7.45633251953125,-1.0047760009765625,-0.2147369384765625,0.0461578369140625
1751013457600275500,7.466275390625,-1.0035552978515625,-0.2154541015625,0.0460205078125
1751013457610219500,7.476219482421875,-1.004852294921875,-0.2138519287109375,0.04248046875
1751013457620162600,7.48616259765625,-1.006103515625,-0.212646484375,0.0419769287109375
1751013457630105600,7.496105712890625,-1.001434326171875,-0.2128448486328125,0.044769287109375
1751013457640049400,7.50604931640625,-0.996612548828125,-0.2135467529296875,0.0455780029296875
1751013457649992400,7.515992431640625,-0.9895172119140625,-0.21551513671875,0.04522705078125
1751013457659935500,7.525935546875,-0.9858856201171875,-0.216217041015625,0.0479583740234375
1751013457669879600,7.535879638671875,-0.9884033203125,-0.21807861328125,0.0502471923828125
1751013457679822300,7.545822265625,-0.9893341064453125,-0.2182769775390625,0.048919677734375
1751013457689765400,7.555765380859375,-0.9864501953125,-0.218902587890625,0.04595947265625
1751013457699708400,7.56570849609375,-0.987548828125,-0.2178955078125,0.0452117919921875
1751013457709652500,7.575652587890625,-0.9904327392578125,-0.217041015625,0.0450897216796875
1751013457719595500,7.585595458984375,-0.987335205078125,-0.217041015625,0.0447845458984375
1751013457729538600,7.59553857421875,-0.9844512939453125,-0.2164459228515625,0.0443572998046875
1751013457739482400,7.605482421875,-0.984344482421875,-0.2163543701171875,0.0455780029296875
1751013457749425400,7.61542529296875,-0.9829559326171875,-0.215789794921875,0.0474853515625
1751013457759368400,7.625368408203125,-0.98211669921875,-0.21478271484375,0.0492095947265625
1751013457769312300,7.635312255859375,-0.981353759765625,-0.2143402099609375,0.05072021484375
1751013457779255300,7.64525537109375,-0.983001708984375,-0.216400146484375,0.0482940673828125
1751013457789198300,7.6551982421875,-0.983551025390625,-0.21502685546875,0.0447998046875
1751013457799141400,7.665141357421875,-0.9853363037109375,-0.2138214111328125,0.04437255859375
1751013457809085400,7.67508544921875,-0.986968994140625,-0.2162017822265625,0.0419921875
1751013457819028500,7.685028564453125,-0.9888916015625,-0.218963623046875,0.042022705078125
1751013457828971300,7.69497119140625,-0.989532470703125,-0.218780517578125,0.0431976318359375
1751013457838915300,7.704915283203125,-0.986724853515625,-0.217498779296875,0.0446014404296875
1751013457848858400,7.7148583984375,-0.9845123291015625,-0.217041015625,0.0455780029296875
1751013457858801400,7.724801513671875,-0.98468017578125,-0.216644287109375,0.0461273193359375
1751013457868745500,7.734745361328125,-0.9833831787109375,-0.2161102294921875,0.0466461181640625
1751013457878688300,7.744688232421875,-0.982452392578125,-0.21661376953125,0.0479888916015625
1751013457888631300,7.75463134765625,-0.9842681884765625,-0.217041015625,0.0509185791015625
1751013457898574300,7.76457421875,-0.9867706298828125,-0.2177886962890625,0.0497589111328125
1751013457908518700,7.7745185546875,-0.988983154296875,-0.21826171875,0.0478973388671875
1751013457918461400,7.78446142578125,-0.9910888671875,-0.2177734375,0.047271728515625
1751013457928404500,7.794404541015625,-0.9914093017578125,-0.2176361083984375,0.0462188720703125
1751013457938348500,7.8043486328125,-0.9885711669921875,-0.2176513671875,0.0432891845703125
1751013457948291600,7.81429150390625,-0.9869842529296875,-0.21942138671875,0.0412750244140625
1751013457958234600,7.824234619140625,-0.9868621826171875,-0.2204742431640625,0.0420989990234375
1751013457968178400,7.834178466796875,-0.9889678955078125,-0.2204437255859375,0.04364013671875
1751013457978121500,7.84412158203125,-0.98944091796875,-0.221771240234375,0.0435791015625
1751013457988064500,7.854064453125,-0.9891510009765625,-0.2208404541015625,0.042205810546875
1751013457998007600,7.864007568359375,-0.9906463623046875,-0.2200164794921875,0.0414581298828125
1751013458007951600,7.87395166015625,-0.9886627197265625,-0.2193145751953125,0.03912353515625
1751013458017894400,7.883894287109375,-0.9905853271484375,-0.2189788818359375,0.0400848388671875
1751013458027837400,7.89383740234375,-0.9896240234375,-0.21978759765625,0.041748046875
1751013458037781500,7.903781494140625,-0.9898529052734375,-0.2191314697265625,0.0406341552734375
1751013458047724500,7.913724609375,-0.991241455078125,-0.2196502685546875,0.04229736328125
1751013458057667600,7.92366748046875,-0.9934844970703125,-0.2194061279296875,0.04376220703125
1751013458067611400,7.933611328125,-0.9896240234375,-0.219268798828125,0.043914794921875
1751013458077554400,7.943554443359375,-0.9861297607421875,-0.2191009521484375,0.0433197021484375
1751013458087497500,7.95349755859375,-0.984283447265625,-0.2194671630859375,0.0465240478515625
1751013458097440500,7.9634404296875,-0.986419677734375,-0.219635009765625,0.0474395751953125
1751013458107384300,7.97338427734375,-0.987152099609375,-0.2201690673828125,0.0454864501953125
1751013458117327400,7.983327392578125,-0.9826812744140625,-0.2200927734375,0.04241943359375
1751013458127270400,7.9932705078125,-0.9849395751953125,-0.2183837890625,0.0435028076171875
1751013458137214500,8.00321435546875,-0.9866943359375,-0.2176513671875,0.0459442138671875
1751013458147157500,8.013157470703124,-0.9870452880859375,-0.217803955078125,0.0474853515625
1751013458157100500,8.0231005859375,-0.98883056640625,-0.217620849609375,0.0493011474609375
1751013458167044400,8.03304443359375,-0.9904327392578125,-0.2171783447265625,0.0491180419921875
1751013458176987400,8.0429873046875,-0.9917144775390625,-0.21539306640625,0.04681396484375
1751013458186930400,8.052930419921875,-0.9925384521484375,-0.21435546875,0.0446929931640625
1751013458196873500,8.06287353515625,-0.9952850341796875,-0.2158050537109375,0.045440673828125
1751013458206817300,8.0728173828125,-0.9898681640625,-0.2163238525390625,0.0473480224609375
1751013458216760300,8.08276025390625,-0.98529052734375,-0.2158203125,0.0489959716796875
1751013458226703400,8.092703369140626,-0.98663330078125,-0.21771240234375,0.05303955078125
1751013458236647400,8.1026474609375,-0.9899444580078125,-0.219085693359375,0.05718994140625
1751013458246590500,8.112590576171876,-0.989959716796875,-0.216400146484375,0.055419921875
1751013458256533500,8.122533447265624,-0.9901580810546875,-0.2159271240234375,0.0534210205078125
1751013458266477300,8.132477294921875,-0.990966796875,-0.216400146484375,0.05047607421875
1751013458276420400,8.14242041015625,-0.9911651611328125,-0.2174224853515625,0.04840087890625
1751013458286363400,8.15236328125,-0.991455078125,-0.2163543701171875,0.047607421875
1751013458296306400,8.162306396484375,-0.9909515380859375,-0.216094970703125,0.0461273193359375
1751013458306250200,8.172250244140624,-0.991180419921875,-0.2171173095703125,0.0478363037109375
1751013458316193300,8.182193359375,-0.9918365478515625,-0.2193450927734375,0.04901123046875
1751013458326136300,8.19213623046875,-0.9909820556640625,-0.21929931640625,0.0492401123046875
1751013458336080600,8.20208056640625,-0.986572265625,-0.2195892333984375,0.0501251220703125
1751013458346023700,8.212023681640625,-0.9859771728515625,-0.2189178466796875,0.0516204833984375
1751013458355966500,8.221966552734376,-0.9876708984375,-0.21966552734375,0.0498809814453125
1751013458365910800,8.231910888671875,-0.988006591796875,-0.2191162109375,0.04864501953125
1751013458375853800,8.241853759765625,-0.9864349365234375,-0.2169036865234375,0.0483551025390625
1751013458385796900,8.251796875,-0.9859466552734375,-0.2180328369140625,0.0476226806640625
1751013458395741000,8.261740966796875,-0.9885711669921875,-0.2187347412109375,0.0465087890625
1751013458405683700,8.27168359375,-0.9897918701171875,-0.21820068359375,0.046875
1751013458415626800,8.281626708984374,-0.98602294921875,-0.2174224853515625,0.04974365234375
1751013458425569800,8.29156982421875,-0.983001708984375,-0.2157745361328125,0.0517425537109375
1751013458435513900,8.301513916015624,-0.9813385009765625,-0.2147674560546875,0.050750732421875
1751013458445457000,8.311456787109375,-0.9829864501953125,-0.212371826171875,0.048675537109375
1751013458455399700,8.321399658203125,-0.98394775390625,-0.2137603759765625,0.0496368408203125
1751013458465344000,8.331343994140624,-0.986114501953125,-0.214385986328125,0.05126953125
1751013458475287000,8.341287109375,-0.9885101318359375,-0.215484619140625,0.0496368408203125
1751013458485230000,8.35122998046875,-0.9891815185546875,-0.2160491943359375,0.0487213134765625
1751013458495174000,8.361173828125,-0.9889678955078125,-0.21728515625,0.04888916015625
1751013458505117000,8.371116943359375,-0.9925079345703125,-0.2186279296875,0.048370361328125
1751013458515060000,8.38106005859375,-0.9945526123046875,-0.218414306640625,0.05010986328125
1751013458525003000,8.3910029296875,-0.99713134765625,-0.2182769775390625,0.0511627197265625
1751013458534946800,8.40094677734375,-0.99505615234375,-0.2203826904296875,0.0520782470703125
1751013458544889900,8.410889892578124,-0.9932403564453125,-0.2201080322265625,0.052490234375
1751013458554833000,8.4208330078125,-0.9920654296875,-0.2188262939453125,0.0521392822265625
1751013458564777000,8.43077685546875,-0.9923553466796875,-0.219390869140625,0.0544586181640625
1751013458574720000,8.440719970703125,-0.990570068359375,-0.2201385498046875,0.0545654296875
1751013458584663000,8.4506630859375,-0.9910430908203125,-0.21795654296875,0.053802490234375
1751013458594606800,8.46060693359375,-0.9932098388671875,-0.21795654296875,0.0552825927734375
1751013458604550000,8.4705498046875,-0.993316650390625,-0.2198333740234375,0.054107666015625
1751013458614493000,8.480492919921875,-0.9934234619140625,-0.219451904296875,0.05413818359375
1751013458624436000,8.49043603515625,-0.9926910400390625,-0.2177276611328125,0.052337646484375
1751013458634379800,8.5003798828125,-0.9910736083984375,-0.2196502685546875,0.0523834228515625
1751013458644322800,8.51032275390625,-0.9897308349609375,-0.2204437255859375,0.0538177490234375
1751013458654265900,8.520265869140625,-0.98779296875,-0.22125244140625,0.0562591552734375
1751013458664210000,8.5302099609375,-0.9869842529296875,-0.2196197509765625,0.0560455322265625
1751013458674153000,8.540153076171874,-0.986114501953125,-0.2197265625,0.0545196533203125
1751013458684095700,8.550095703125,-0.9862060546875,-0.217987060546875,0.0559539794921875
1751013458694039800,8.560039794921876,-0.9873199462890625,-0.2186737060546875,0.0560455322265625
1751013458703982800,8.56998291015625,-0.98486328125,-0.2203521728515625,0.05450439453125
1751013458713926000,8.57992578125,-0.9836883544921875,-0.2187347412109375,0.0524444580078125
1751013458723869700,8.58986962890625,-0.982025146484375,-0.21710205078125,0.0530853271484375
1751013458733812700,8.599812744140625,-0.984527587890625,-0.2163238525390625,0.0572967529296875
1751013458743755800,8.609755859375,-0.9881591796875,-0.2151947021484375,0.0569000244140625
1751013458753698800,8.61969873046875,-0.9886474609375,-0.2154541015625,0.0534820556640625
1751013458763643000,8.629642822265625,-0.9850006103515625,-0.2154693603515625,0.0510406494140625
1751013458773586000,8.6395859375,-0.98516845703125,-0.2162322998046875,0.05181884765625
1751013458783528700,8.64952880859375,-0.9822845458984375,-0.21820068359375,0.0522003173828125
1751013458793472800,8.65947265625,-0.9787139892578125,-0.2196807861328125,0.054229736328125
1751013458803415800,8.669415771484376,-0.9775848388671875,-0.2203216552734375,0.0557861328125
1751013458813358800,8.67935888671875,-0.9801483154296875,-0.220245361328125,0.0567626953125
1751013458823303000,8.689302978515625,-0.9846343994140625,-0.2215576171875,0.058837890625
1751013458833245700,8.69924560546875,-0.9853668212890625,-0.2211456298828125,0.057525634765625
1751013458843188700,8.709188720703125,-0.9840850830078125,-0.220458984375,0.0548248291015625
1751013458853133000,8.719133056640626,-0.983154296875,-0.2207794189453125,0.053558349609375
1751013458863076000,8.729076171875,-0.9863128662109375,-0.2197418212890625,0.0492401123046875
1751013458873019000,8.739018798828125,-0.98858642578125,-0.2191162109375,0.0500946044921875
1751013458882961700,8.748961669921876,-0.987701416015625,-0.219329833984375,0.0505828857421875
1751013458892906000,8.758906005859375,-0.9885711669921875,-0.220611572265625,0.053009033203125
1751013458902849000,8.76884912109375,-0.9911956787109375,-0.2201690673828125,0.0556488037109375
1751013458912792000,8.7787919921875,-0.9921112060546875,-0.218505859375,0.056854248046875
1751013458922735900,8.78873583984375,-0.991180419921875,-0.2196807861328125,0.057281494140625
1751013458932679000,8.798678955078126,-0.9904937744140625,-0.219085693359375,0.0549774169921875
1751013458942622000,8.8086220703125,-0.9882965087890625,-0.21990966796875,0.05426025390625
1751013458952566000,8.81856591796875,-0.987396240234375,-0.21868896484375,0.0513153076171875
1751013458962508800,8.8285087890625,-0.9887542724609375,-0.2191162109375,0.053253173828125
1751013458972451800,8.838451904296875,-0.99371337890625,-0.218902587890625,0.05511474609375
1751013458982395000,8.848394775390625,-0.9929351806640625,-0.21771240234375,0.051605224609375
1751013458992339000,8.8583388671875,-0.989898681640625,-0.2163848876953125,0.0511322021484375
1751013459002282000,8.868281982421875,-0.9889068603515625,-0.217620849609375,0.051666259765625
1751013459012225000,8.87822509765625,-0.98931884765625,-0.22039794921875,0.0508575439453125
1751013459022168800,8.8881689453125,-0.9876251220703125,-0.22283935546875,0.0513763427734375
1751013459032111900,8.89811181640625,-0.9853363037109375,-0.2216339111328125,0.0515899658203125
1751013459042055000,8.908054931640624,-0.9843597412109375,-0.2230224609375,0.0530548095703125
1751013459051999000,8.9179990234375,-0.984466552734375,-0.2231903076171875,0.05377197265625
1751013459061941800,8.927941650390625,-0.983001708984375,-0.2203216552734375,0.0558929443359375
1751013459071884800,8.937884765625,-0.9826812744140625,-0.2198486328125,0.0558624267578125
1751013459081828900,8.947828857421875,-0.9818572998046875,-0.2192535400390625,0.053192138671875
1751013459091772000,8.95777197265625,-0.983856201171875,-0.2182159423828125,0.054351806640625
1751013459101715000,8.96771484375,-0.9864959716796875,-0.2179718017578125,0.0555572509765625
1751013459111658000,8.977657958984375,-0.9877777099609375,-0.218353271484375,0.0561676025390625
1751013459121601800,8.987601806640624,-0.987335205078125,-0.2187347412109375,0.05413818359375
1751013459131544800,8.997544921875,-0.9860687255859375,-0.2176055908203125,0.053253173828125
1751013459141487900,9.00748779296875,-0.98760986328125,-0.2156829833984375,0.0526885986328125
1751013459151431700,9.017431640625,-0.9896087646484375,-0.21539306640625,0.0515289306640625
1751013459161374700,9.027374755859375,-0.9915924072265625,-0.215789794921875,0.050628662109375
1751013459171317800,9.03731787109375,-0.9919586181640625,-0.2173309326171875,0.051910400390625
1751013459181261800,9.04726171875,-0.9910125732421875,-0.2178955078125,0.0509796142578125
1751013459191204900,9.057204833984375,-0.9925384521484375,-0.21807861328125,0.0509796142578125
1751013459201148000,9.06714794921875,-0.9912109375,-0.217559814453125,0.050201416015625
1751013459211091700,9.077091796875,-0.99285888671875,-0.216888427734375,0.0496368408203125
1751013459221034800,9.08703466796875,-0.994415283203125,-0.2187957763671875,0.050140380859375
1751013459230977800,9.096977783203124,-0.9953765869140625,-0.21881103515625,0.049835205078125
1751013459240920800,9.1069208984375,-0.993804931640625,-0.21856689453125,0.0502471923828125
1751013459250865000,9.116864990234374,-0.9922027587890625,-0.2189483642578125,0.0489349365234375
1751013459260807700,9.1268076171875,-0.994842529296875,-0.2183380126953125,0.0503997802734375
1751013459270750700,9.136750732421875,-0.9945220947265625,-0.2192230224609375,0.0511016845703125
1751013459280695000,9.146695068359374,-0.99273681640625,-0.2179718017578125,0.0478973388671875
1751013459290638000,9.15663818359375,-0.9927215576171875,-0.21685791015625,0.046966552734375
1751013459300580900,9.166580810546876,-0.991943359375,-0.2176666259765625,0.045440673828125
1751013459310525000,9.17652490234375,-0.9906768798828125,-0.21697998046875,0.042938232421875
1751013459320468000,9.186468017578125,-0.9885711669921875,-0.2180328369140625,0.043701171875
1751013459330411000,9.196410888671876,-0.9868621826171875,-0.21954345703125,0.0483245849609375
1751013459340354000,9.20635400390625,-0.98486328125,-0.2194366455078125,0.0491943359375
1751013459350297900,9.2162978515625,-0.983978271484375,-0.22021484375,0.0495147705078125
1751013459360241000,9.226240966796874,-0.982757568359375,-0.2196044921875,0.0506591796875
1751013459370184000,9.236183837890625,-0.9819793701171875,-0.2199859619140625,0.048980712890625
1751013459380128000,9.2461279296875,-0.980316162109375,-0.2195281982421875,0.0468292236328125
1751013459390071000,9.256071044921875,-0.9790191650390625,-0.21923828125,0.0460662841796875
1751013459400013800,9.266013916015625,-0.9793701171875,-0.2188568115234375,0.0468597412109375
1751013459409958000,9.2759580078125,-0.981689453125,-0.219940185546875,0.0505218505859375
1751013459419901000,9.28590087890625,-0.980743408203125,-0.220001220703125,0.0506744384765625
1751013459429844000,9.295843994140625,-0.98095703125,-0.219085693359375,0.0513763427734375
1751013459439787800,9.305787841796874,-0.980865478515625,-0.216949462890625,0.0543212890625
1751013459449730800,9.315730712890625,-0.9813385009765625,-0.2151031494140625,0.05517578125
1751013459459673900,9.325673828125,-0.9833221435546875,-0.2126617431640625,0.0543365478515625
1751013459469618000,9.335617919921875,-0.9835968017578125,-0.212799072265625,0.0517578125
1751013459479561000,9.34556103515625,-0.9833221435546875,-0.2148284912109375,0.051910400390625
1751013459489503700,9.355503662109374,-0.985107421875,-0.2148590087890625,0.0516204833984375
1751013459499446800,9.36544677734375,-0.988311767578125,-0.213623046875,0.051116943359375
1751013459509390800,9.375390869140626,-0.9924774169921875,-0.213714599609375,0.0515594482421875
1751013459519334000,9.385333984375,-0.9944915771484375,-0.2147369384765625,0.05181884765625
1751013459529277000,9.39527685546875,-0.994903564453125,-0.212890625,0.0488433837890625
1751013459539220700,9.405220703125,-0.994964599609375,-0.2119293212890625,0.0452880859375
1751013459549163800,9.415163818359375,-0.9962310791015625,-0.2115020751953125,0.0482330322265625
1751013459559106800,9.42510693359375,-0.9941558837890625,-0.2106781005859375,0.0514068603515625
1751013459569051000,9.43505078125,-0.99627685546875,-0.2080841064453125,0.0469512939453125
1751013459578994000,9.444993896484375,-1.0051727294921875,-0.2097015380859375,0.0451812744140625
1751013459588936700,9.454936767578126,-0.98358154296875,-0.2208709716796875,0.055938720703125
1751013459598880800,9.464880859375,-0.9816131591796875,-0.2131805419921875,0.0542755126953125
1751013459608823800,9.47482373046875,-0.988128662109375,-0.210479736328125,0.0493011474609375
1751013459618766800,9.484766845703126,-0.9969940185546875,-0.21630859375,0.042510986328125
1751013459628710000,9.4947099609375,-0.998443603515625,-0.2191925048828125,0.043304443359375
1751013459638653700,9.50465380859375,-0.99554443359375,-0.218597412109375,0.0517120361328125
1751013459648596700,9.5145966796875,-0.9948577880859375,-0.2205810546875,0.0527801513671875
1751013459658539800,9.524539794921875,-0.9900665283203125,-0.2216949462890625,0.0468292236328125
1751013459668483800,9.53448388671875,-0.9869842529296875,-0.2199249267578125,0.04473876953125
1751013459678426600,9.544426513671874,-0.990020751953125,-0.218475341796875,0.046966552734375
1751013459688369700,9.55436962890625,-0.9904937744140625,-0.216766357421875,0.047027587890625
1751013459698313700,9.564313720703124,-0.9912261962890625,-0.2149658203125,0.04736328125
1751013459708256800,9.5742568359375,-0.9912872314453125,-0.2131195068359375,0.046539306640625
1751013459718199800,9.58419970703125,-0.9909210205078125,-0.2116546630859375,0.04632568359375
1751013459728144000,9.594143798828124,-0.9921417236328125,-0.210845947265625,0.046417236328125
1751013459738087000,9.6040869140625,-0.992401123046875,-0.21014404296875,0.047821044921875
1751013459748029700,9.61402978515625,-0.9918975830078125,-0.207000732421875,0.0518341064453125
1751013459757972700,9.62397265625,-0.994537353515625,-0.2042083740234375,0.0523223876953125
1751013459767916800,9.633916748046875,-0.9982147216796875,-0.2046356201171875,0.05413818359375
1751013459777859800,9.64385986328125,-0.9941253662109375,-0.207489013671875,0.05584716796875
1751013459787803000,9.653802978515625,-0.9904327392578125,-0.2071990966796875,0.05377197265625
1751013459797747000,9.663746826171876,-0.99072265625,-0.207855224609375,0.054229736328125
1751013459807690000,9.67368994140625,-0.989715576171875,-0.2100982666015625,0.0561981201171875
1751013459817633000,9.683633056640625,-0.98614501953125,-0.20880126953125,0.05694580078125
1751013459827576800,9.693576904296876,-0.9852752685546875,-0.2066802978515625,0.0566558837890625
1751013459837520000,9.703519775390625,-0.9819793701171875,-0.2071075439453125,0.0556488037109375
1751013459847463000,9.713462890625,-0.9831085205078125,-0.2053680419921875,0.0536956787109375
1751013459857407000,9.723406982421874,-0.9883880615234375,-0.20623779296875,0.0546417236328125
1751013459867349800,9.733349853515625,-0.987762451171875,-0.2075958251953125,0.053009033203125
1751013459877292800,9.743292724609375,-0.988494873046875,-0.2084503173828125,0.05035400390625
1751013459887235800,9.75323583984375,-0.9908599853515625,-0.20867919921875,0.0507354736328125
1751013459897180000,9.763179931640625,-0.9931488037109375,-0.20880126953125,0.052886962890625
1751013459907123000,9.773123046875,-0.98992919921875,-0.2064208984375,0.052337646484375
1751013459917066000,9.78306591796875,-0.988983154296875,-0.2062225341796875,0.050262451171875
1751013459927009800,9.793009765625,-0.9901275634765625,-0.2071075439453125,0.05059814453125
1751013459936952800,9.802952880859374,-0.987823486328125,-0.2089996337890625,0.05364990234375
1751013459946896000,9.812895751953125,-0.986572265625,-0.2093048095703125,0.0505523681640625
1751013459956839700,9.822839599609376,-0.9842529296875,-0.209564208984375,0.0474700927734375
1751013459966782700,9.83278271484375,-0.9852752685546875,-0.2095947265625,0.0513153076171875
1751013459976725800,9.842725830078125,-0.9885711669921875,-0.208984375,0.0531463623046875
1751013459986669800,9.852669921875,-0.9921875,-0.2095489501953125,0.0491790771484375
1751013459996612900,9.86261279296875,-0.993743896484375,-0.2094268798828125,0.045806884765625
1751013460006556000,9.872555908203125,-0.996673583984375,-0.2105560302734375,0.044189453125
1751013460016498700,9.882498779296874,-0.9986419677734375,-0.2110748291015625,0.0424041748046875
1751013460026442800,9.89244287109375,-0.9942779541015625,-0.2111358642578125,0.04254150390625
1751013460036385800,9.9023857421875,-0.98687744140625,-0.2104949951171875,0.0464019775390625
1751013460046328800,9.912328857421874,-0.9842376708984375,-0.210113525390625,0.0519866943359375
1751013460056272600,9.922272705078125,-0.9866790771484375,-0.2083587646484375,0.054473876953125
1751013460066215700,9.932215576171876,-0.9895172119140625,-0.2082061767578125,0.0541229248046875
1751013460076158700,9.94215869140625,-0.9905242919921875,-0.20770263671875,0.053436279296875
1751013460086102800,9.952102783203125,-0.9938201904296875,-0.207427978515625,0.050628662109375
1751013460096045800,9.9620458984375,-0.9966278076171875,-0.2060089111328125,0.04937744140625
1751013460105988900,9.97198876953125,-0.998992919921875,-0.203216552734375,0.0464019775390625
1751013460115933000,9.981932861328126,-1.0002288818359375,-0.204315185546875,0.0445098876953125
1751013460125875700,9.991875732421875,-0.999664306640625,-0.204315185546875,0.046234130859375
1751013460135818800,10.00181884765625,-0.99700927734375,-0.203704833984375,0.0487518310546875
1751013460145761800,10.01176171875,-0.9953460693359375,-0.203948974609375,0.0520172119140625
1751013460155705900,10.021705810546875,-0.9943389892578125,-0.203582763671875,0.0535430908203125
1751013460165649000,10.03164892578125,-0.9945526123046875,-0.2053375244140625,0.0536956787109375
1751013460175592000,10.041592041015624,-0.993927001953125,-0.2066192626953125,0.0533599853515625
1751013460185536000,10.051535888671875,-0.99334716796875,-0.206878662109375,0.0501556396484375
1751013460195479000,10.06147900390625,-0.9933624267578125,-0.2055816650390625,0.04620361328125
1751013460205421800,10.071421875,-0.9975433349609375,-0.2053680419921875,0.047088623046875
1751013460215366000,10.081365966796875,-0.9960174560546875,-0.206695556640625,0.048370361328125
1751013460225309000,10.091308837890624,-0.99072265625,-0.2054595947265625,0.0493927001953125
1751013460235252000,10.101251953125,-0.9854736328125,-0.2050018310546875,0.05035400390625
1751013460245195800,10.11119580078125,-0.9851837158203125,-0.2058258056640625,0.0504913330078125
1751013460255138800,10.121138916015624,-0.984405517578125,-0.207611083984375,0.049530029296875
1751013460265081900,10.131081787109375,-0.9848175048828125,-0.2078704833984375,0.0511322021484375
1751013460275026000,10.14102587890625,-0.9839019775390625,-0.2082977294921875,0.054779052734375
1751013460284969000,10.150968994140625,-0.9855499267578125,-0.2081298828125,0.0544891357421875
1751013460294911700,10.160911865234375,-0.987335205078125,-0.2087249755859375,0.05169677734375
1751013460304854800,10.170854736328126,-0.987884521484375,-0.2082366943359375,0.0494842529296875
1751013460314798800,10.180798828125,-0.989105224609375,-0.208221435546875,0.0482330322265625
1751013460324742000,10.190741943359376,-0.9899749755859375,-0.2080841064453125,0.04766845703125
1751013460334685000,10.200684814453124,-0.9889068603515625,-0.20660400390625,0.0479736328125
1751013460344628700,10.210628662109375,-0.988800048828125,-0.2045440673828125,0.05084228515625
1751013460354571800,10.22057177734375,-0.98736572265625,-0.20458984375,0.051513671875
1751013460364514800,10.230514892578125,-0.9864044189453125,-0.202392578125,0.050323486328125
1751013460374459100,10.240459228515626,-0.988525390625,-0.201385498046875,0.049835205078125
1751013460384402000,10.25040185546875,-0.987548828125,-0.20220947265625,0.0484161376953125
1751013460394345000,10.260344970703125,-0.9883270263671875,-0.2022857666015625,0.045562744140625
1751013460404289000,10.2702890625,-0.9932708740234375,-0.2029266357421875,0.0435333251953125
1751013460414232000,10.280232177734375,-0.9970245361328125,-0.20440673828125,0.0435638427734375
1751013460424175000,10.290175048828125,-0.9955596923828125,-0.203857421875,0.0431060791015625
1751013460434118100,10.3001181640625,-0.9974517822265625,-0.202667236328125,0.03973388671875
1751013460444062200,10.310062255859375,-0.998870849609375,-0.2041778564453125,0.0360107421875
1751013460454005000,10.3200048828125,-0.9988861083984375,-0.206268310546875,0.04022216796875
1751013460463948000,10.329947998046874,-0.9981231689453125,-0.2049407958984375,0.04327392578125
1751013460473892000,10.33989208984375,-0.9960174560546875,-0.2053680419921875,0.0432891845703125
1751013460483835100,10.349835205078126,-0.9976806640625,-0.2086639404296875,0.04376220703125
1751013460493778200,10.359778076171875,-0.9960784912109375,-0.20880126953125,0.0434722900390625
1751013460503722200,10.36972216796875,-0.994842529296875,-0.2066650390625,0.0421295166015625
1751013460513665300,10.379665283203124,-0.9930267333984375,-0.207366943359375,0.04278564453125
1751013460523608300,10.3896083984375,-0.992218017578125,-0.2070465087890625,0.0412750244140625
1751013460533552000,10.39955224609375,-0.99176025390625,-0.2071685791015625,0.043121337890625
1751013460543495200,10.4094951171875,-0.99072265625,-0.20623779296875,0.0441436767578125
1751013460553438200,10.419438232421875,-0.9871063232421875,-0.2070159912109375,0.0448760986328125
1751013460563381200,10.42938134765625,-0.98846435546875,-0.20635986328125,0.0433807373046875
1751013460573325000,10.439324951171875,-0.9901885986328125,-0.206298828125,0.049041748046875
1751013460583268000,10.44926806640625,-0.9893798828125,-0.203216552734375,0.0540008544921875
1751013460593211100,10.459211181640624,-0.989013671875,-0.1999359130859375,0.053680419921875
1751013460603155200,10.4691552734375,-0.9899749755859375,-0.199951171875,0.04852294921875
1751013460613098200,10.47909814453125,-0.987701416015625,-0.202392578125,0.0457763671875
1751013460623041300,10.489041259765624,-0.986419677734375,-0.2029571533203125,0.053131103515625
1751013460632985000,10.498985107421875,-0.9888458251953125,-0.2019195556640625,0.0596466064453125
1751013460642928000,10.50892822265625,-0.9897308349609375,-0.2020111083984375,0.054168701171875
1751013460652871200,10.51887109375,-0.988311767578125,-0.201629638671875,0.0451202392578125
1751013460662815000,10.52881494140625,-0.9907379150390625,-0.2014312744140625,0.04022216796875
1751013460672758000,10.538758056640624,-0.9662017822265625,-0.195587158203125,0.0453948974609375
1751013460682701000,10.548701171875,-0.8949432373046875,-0.174560546875,0.0700225830078125
1751013460692644000,10.55864404296875,-0.99481201171875,-0.192138671875,0.0617218017578125
1751013460702588200,10.568588134765625,-1.008575439453125,-0.2086181640625,0.04595947265625
1751013460712531200,10.57853125,-1.0290679931640625,-0.221893310546875,0.060302734375
1751013460722474000,10.588473876953126,-1.026397705078125,-0.22064208984375,0.061737060546875
1751013460732418000,10.59841796875,-1.01751708984375,-0.229949951171875,0.0507659912109375
1751013460742361000,10.608361083984375,-1.0395660400390625,-0.236541748046875,0.0362091064453125
1751013460752304000,10.61830419921875,-1.044342041015625,-0.2396697998046875,0.029876708984375
1751013460762248000,10.628248046875,-1.03765869140625,-0.2332611083984375,0.0407562255859375
1751013460772191000,10.63819091796875,-1.0114288330078125,-0.2208251953125,0.0599822998046875
