time,seconds_elapsed,z,y,x
1751013984514311400,0.1133115234375,-1.0235443115234375,-0.0988006591796875,-0.035614013671875
1751013984524255200,0.123255126953125,-1.027679443359375,-0.095855712890625,-0.0345458984375
1751013984534199300,0.13319921875,-1.019287109375,-0.0977935791015625,-0.0326080322265625
1751013984544143400,0.143143310546875,-1.007049560546875,-0.096038818359375,-0.0279998779296875
1751013984554086100,0.153086181640625,-1.004791259765625,-0.087310791015625,-0.02435302734375
1751013984564030500,0.163030517578125,-1.009185791015625,-0.0805206298828125,-0.02105712890625
1751013984573974300,0.172974365234375,-1.0131988525390625,-0.079803466796875,-0.02099609375
1751013984583918300,0.18291845703125,-1.0128631591796875,-0.0769195556640625,-0.0241241455078125
1751013984593861400,0.192861328125,-1.0140533447265625,-0.0762481689453125,-0.027740478515625
1751013984603805200,0.20280517578125,-1.0198822021484375,-0.0777740478515625,-0.0322113037109375
1751013984613749200,0.212749267578125,-1.0240020751953125,-0.0787506103515625,-0.0372314453125
1751013984623693300,0.222693359375,-1.02392578125,-0.076995849609375,-0.0449981689453125
1751013984633636400,0.23263623046875,-1.0227813720703125,-0.0759124755859375,-0.0469970703125
1751013984643580400,0.242580322265625,-1.0285491943359375,-0.0766143798828125,-0.048614501953125
1751013984653524500,0.2525244140625,-1.030914306640625,-0.075347900390625,-0.0467987060546875
1751013984663468300,0.26246826171875,-1.0255889892578125,-0.073944091796875,-0.048736572265625
1751013984673411300,0.272411376953125,-1.0193939208984375,-0.075103759765625,-0.04852294921875
1751013984683355400,0.28235546875,-1.0128631591796875,-0.0709228515625,-0.0407562255859375
1751013984693299200,0.29229931640625,-1.0031890869140625,-0.0662384033203125,-0.03350830078125
1751013984703242200,0.3022421875,-0.994476318359375,-0.067840576171875,-0.02886962890625
1751013984713186300,0.312186279296875,-0.9914703369140625,-0.0752410888671875,-0.0269927978515625
1751013984723130000,0.322130126953125,-0.9957733154296875,-0.0847320556640625,-0.025909423828125
1751013984733074400,0.332074462890625,-1.000244140625,-0.095458984375,-0.02899169921875
1751013984743017500,0.342017578125,-1.005523681640625,-0.0977630615234375,-0.0268402099609375
1751013984752961300,0.351961181640625,-1.00823974609375,-0.0905303955078125,-0.0263519287109375
1751013984762905300,0.3619052734375,-1.005035400390625,-0.08795166015625,-0.03521728515625
1751013984772849400,0.371849365234375,-1.010162353515625,-0.0795135498046875,-0.0390472412109375
1751013984782792400,0.38179248046875,-1.01800537109375,-0.0686187744140625,-0.042694091796875
1751013984792736300,0.391736328125,-1.018798828125,-0.0678253173828125,-0.04852294921875
1751013984802680300,0.401680419921875,-1.0168914794921875,-0.071319580078125,-0.05328369140625
1751013984812624100,0.4116240234375,-1.0165252685546875,-0.0746612548828125,-0.0556488037109375
1751013984822567200,0.421567138671875,-1.0197601318359375,-0.0795135498046875,-0.0561981201171875
1751013984832511500,0.431511474609375,-1.019378662109375,-0.0827789306640625,-0.0511016845703125
1751013984842455300,0.441455322265625,-1.0192718505859375,-0.08563232421875,-0.0475006103515625
1751013984852399400,0.4513994140625,-1.0138397216796875,-0.0858612060546875,-0.0412445068359375
1751013984862342400,0.46134228515625,-1.0047454833984375,-0.08526611328125,-0.037689208984375
1751013984872286200,0.4712861328125,-1.0039825439453125,-0.0829925537109375,-0.041290283203125
1751013984882228700,0.481228759765625,-1.0118255615234375,-0.0793609619140625,-0.0472412109375
1751013984892172500,0.491172607421875,-1.015472412109375,-0.078704833984375,-0.055816650390625
1751013984902115600,0.501115478515625,-1.0135955810546875,-0.0818023681640625,-0.0645294189453125
1751013984912059600,0.5110595703125,-1.0131988525390625,-0.0848236083984375,-0.0694732666015625
1751013984922003500,0.52100341796875,-1.011505126953125,-0.083892822265625,-0.0721588134765625
1751013984931947500,0.530947509765625,-1.0037994384765625,-0.0830841064453125,-0.0695343017578125
1751013984941890600,0.540890625,-0.9952239990234375,-0.08575439453125,-0.0615081787109375
1751013984951834600,0.550834716796875,-0.98797607421875,-0.093170166015625,-0.05352783203125
1751013984961778700,0.56077880859375,-0.9855194091796875,-0.0988311767578125,-0.046661376953125
1751013984971722500,0.570722412109375,-0.984466552734375,-0.1013031005859375,-0.04443359375
1751013984981665500,0.58066552734375,-0.9797515869140625,-0.1052703857421875,-0.0395965576171875
1751013984991609600,0.590609619140625,-0.9764862060546875,-0.1070556640625,-0.0350189208984375
1751013985001553400,0.600553466796875,-0.9839935302734375,-0.1049346923828125,-0.038970947265625
1751013985011497500,0.61049755859375,-0.9923095703125,-0.1007843017578125,-0.03729248046875
1751013985021440500,0.6204404296875,-0.9921722412109375,-0.0975341796875,-0.0348358154296875
1751013985031384600,0.630384521484375,-0.99169921875,-0.089508056640625,-0.0338592529296875
1751013985041328600,0.64032861328125,-0.999114990234375,-0.08026123046875,-0.0342559814453125
1751013985051272700,0.650272705078125,-1.0050506591796875,-0.075653076171875,-0.0372467041015625
1751013985061215700,0.6602158203125,-1.00970458984375,-0.0737152099609375,-0.040435791015625
1751013985071159600,0.67015966796875,-1.014373779296875,-0.0748443603515625,-0.0477447509765625
1751013985081103600,0.680103515625,-1.01788330078125,-0.078460693359375,-0.054351806640625
1751013985091046700,0.690046630859375,-1.0208587646484375,-0.0836944580078125,-0.0572662353515625
1751013985100990500,0.699990478515625,-1.0242919921875,-0.0865478515625,-0.0616607666015625
1751013985110934500,0.7099345703125,-1.021240234375,-0.0924835205078125,-0.060333251953125
1751013985120878300,0.71987841796875,-1.015045166015625,-0.0946502685546875,-0.05474853515625
1751013985130821400,0.7298212890625,-1.0079345703125,-0.09844970703125,-0.0495452880859375
1751013985140765700,0.739765625,-1.006378173828125,-0.102752685546875,-0.0507049560546875
1751013985150709500,0.74970947265625,-1.0116119384765625,-0.0998992919921875,-0.049468994140625
1751013985160653600,0.759653564453125,-1.0123748779296875,-0.09002685546875,-0.0504913330078125
1751013985170596600,0.7695966796875,-1.0122222900390625,-0.079559326171875,-0.049896240234375
1751013985180540700,0.779540771484375,-1.0140380859375,-0.070220947265625,-0.049835205078125
1751013985190484500,0.789484375,-1.019378662109375,-0.066619873046875,-0.056427001953125
1751013985200428500,0.799428466796875,-1.0324859619140625,-0.0682373046875,-0.055419921875
1751013985210371600,0.80937158203125,-1.0417633056640625,-0.0696258544921875,-0.0487823486328125
1751013985220315400,0.8193154296875,-1.039947509765625,-0.072296142578125,-0.0481109619140625
1751013985230259700,0.829259765625,-1.029083251953125,-0.072662353515625,-0.045013427734375
1751013985240203500,0.83920361328125,-1.01922607421875,-0.06982421875,-0.0396728515625
1751013985250146600,0.849146484375,-1.0163726806640625,-0.067169189453125,-0.0327911376953125
1751013985260090600,0.859090576171875,-1.017913818359375,-0.0657196044921875,-0.0251312255859375
1751013985270034400,0.869034423828125,-1.0203399658203125,-0.0628204345703125,-0.019805908203125
1751013985279978500,0.878978515625,-1.0209503173828125,-0.0618133544921875,-0.0173492431640625
1751013985289921500,0.888921630859375,-1.02191162109375,-0.061767578125,-0.0157928466796875
1751013985299865600,0.898865478515625,-1.02191162109375,-0.061614990234375,-0.0173187255859375
1751013985309809700,0.9088095703125,-1.019866943359375,-0.060699462890625,-0.0159149169921875
1751013985319752400,0.91875244140625,-1.0222930908203125,-0.058685302734375,-0.0155487060546875
1751013985329696800,0.92869677734375,-1.0198974609375,-0.0581512451171875,-0.017791748046875
1751013985339640600,0.938640625,-1.0220489501953125,-0.0572052001953125,-0.01629638671875
1751013985349584600,0.948584716796875,-1.029296875,-0.051422119140625,-0.0158233642578125
1751013985359527700,0.958527587890625,-1.0243988037109375,-0.0486907958984375,-0.0228729248046875
1751013985369471500,0.968471435546875,-1.015655517578125,-0.0482635498046875,-0.02197265625
1751013985379415600,0.97841552734375,-1.012176513671875,-0.050079345703125,-0.02001953125
1751013985389359400,0.988359375,-1.0121612548828125,-0.0554046630859375,-0.0231170654296875
1751013985399302400,0.998302490234375,-1.010009765625,-0.0621490478515625,-0.026641845703125
1751013985409246700,1.008246826171875,-1.0037841796875,-0.0697479248046875,-0.026092529296875
1751013985419190500,1.0181904296875,-1.0016326904296875,-0.0761871337890625,-0.024993896484375
1751013985429134600,1.028134521484375,-0.999481201171875,-0.0799713134765625,-0.0241241455078125
1751013985439077600,1.03807763671875,-0.9994049072265625,-0.076995849609375,-0.01910400390625
1751013985449021700,1.048021728515625,-1.000396728515625,-0.0711212158203125,-0.0183563232421875
1751013985458965500,1.057965576171875,-1.00604248046875,-0.0617218017578125,-0.0240631103515625
1751013985468909600,1.06790966796875,-1.011322021484375,-0.0602569580078125,-0.0326080322265625
1751013985478852600,1.0778525390625,-1.01043701171875,-0.0637054443359375,-0.0404815673828125
1751013985488796400,1.08779638671875,-1.0124359130859375,-0.06304931640625,-0.040191650390625
1751013985498740700,1.09774072265625,-1.012176513671875,-0.06793212890625,-0.042724609375
1751013985508684500,1.1076845703125,-1.0112762451171875,-0.0731201171875,-0.04473876953125
1751013985518627600,1.117627685546875,-1.0121917724609375,-0.0791015625,-0.042755126953125
1751013985528571600,1.127571533203125,-1.0076751708984375,-0.084075927734375,-0.045928955078125
1751013985538515500,1.137515380859375,-1.0006256103515625,-0.0846099853515625,-0.0407257080078125
1751013985548459500,1.14745947265625,-0.9999237060546875,-0.082977294921875,-0.0387115478515625
1751013985558402600,1.157402587890625,-0.99774169921875,-0.0815277099609375,-0.041412353515625
1751013985568346600,1.1673466796875,-0.9974822998046875,-0.080474853515625,-0.0451202392578125
1751013985578290400,1.17729052734375,-0.9991302490234375,-0.0810699462890625,-0.0510711669921875
1751013985588234800,1.18723486328125,-1.0029754638671875,-0.0799560546875,-0.05426025390625
1751013985598177800,1.197177734375,-1.0072784423828125,-0.0756072998046875,-0.05487060546875
1751013985608121600,1.20712158203125,-1.0080718994140625,-0.0745086669921875,-0.0540771484375
1751013985618065700,1.217065673828125,-1.004364013671875,-0.0754547119140625,-0.0538787841796875
1751013985628008700,1.2270087890625,-1.003021240234375,-0.071807861328125,-0.0510711669921875
1751013985637952500,1.236952392578125,-1.002105712890625,-0.0733489990234375,-0.0534210205078125
1751013985647896600,1.246896484375,-1.003021240234375,-0.0817108154296875,-0.0560150146484375
1751013985657840400,1.25684033203125,-1.0037078857421875,-0.0871124267578125,-0.0599517822265625
1751013985667783400,1.266783447265625,-1.004638671875,-0.0883026123046875,-0.063262939453125
1751013985677727500,1.2767275390625,-1.005706787109375,-0.091583251953125,-0.06549072265625
1751013985687671600,1.286671630859375,-1.00482177734375,-0.095306396484375,-0.0667877197265625
1751013985697615600,1.29661572265625,-1.0006866455078125,-0.0962066650390625,-0.06817626953125
1751013985707558700,1.30655859375,-1.003173828125,-0.0912933349609375,-0.066375732421875
1751013985717502700,1.316502685546875,-1.0043487548828125,-0.08831787109375,-0.067718505859375
1751013985727446500,1.326446533203125,-1.0018310546875,-0.0853424072265625,-0.067626953125
1751013985737390600,1.336390625,-1.0046844482421875,-0.079833984375,-0.0652313232421875
1751013985747333600,1.346333740234375,-1.0109405517578125,-0.076690673828125,-0.066070556640625
1751013985757277400,1.35627734375,-1.0143280029296875,-0.075958251953125,-0.067657470703125
1751013985767221800,1.3662216796875,-1.0181121826171875,-0.077484130859375,-0.0700531005859375
1751013985777165600,1.37616552734375,-1.0233001708984375,-0.0780181884765625,-0.073822021484375
1751013985787108600,1.386108642578125,-1.0281219482421875,-0.081146240234375,-0.07666015625
1751013985797052700,1.396052734375,-1.0267486572265625,-0.08355712890625,-0.0748138427734375
1751013985806996500,1.40599658203125,-1.0262603759765625,-0.0835418701171875,-0.0733489990234375
1751013985816940500,1.4159404296875,-1.0268096923828125,-0.08502197265625,-0.0727386474609375
1751013985826883600,1.425883544921875,-1.03131103515625,-0.0807952880859375,-0.0719757080078125
1751013985836827400,1.435827392578125,-1.043365478515625,-0.0777130126953125,-0.0701751708984375
1751013985846771500,1.445771484375,-1.045745849609375,-0.0786895751953125,-0.0760040283203125
1751013985856714500,1.455714599609375,-1.0358123779296875,-0.07891845703125,-0.0778045654296875
1751013985866658600,1.465658447265625,-1.027618408203125,-0.0739898681640625,-0.0665740966796875
1751013985876603100,1.47560302734375,-1.0200042724609375,-0.070465087890625,-0.050872802734375
1751013985886547200,1.485547119140625,-1.007110595703125,-0.07110595703125,-0.0396728515625
1751013985896490000,1.495489990234375,-0.994415283203125,-0.0713958740234375,-0.0334625244140625
1751013985906434000,1.50543408203125,-0.98748779296875,-0.0713958740234375,-0.0349578857421875
1751013985916378000,1.515378173828125,-0.9821624755859375,-0.06890869140625,-0.0345306396484375
1751013985926322000,1.525322021484375,-0.985198974609375,-0.06695556640625,-0.03594970703125
1751013985936265000,1.535264892578125,-0.9904632568359375,-0.0649261474609375,-0.0377197265625
1751013985946209000,1.545208984375,-0.9957122802734375,-0.067169189453125,-0.03961181640625
1751013985956153000,1.555153076171875,-1.0012664794921875,-0.070709228515625,-0.0500640869140625
1751013985966097200,1.56509716796875,-1.005340576171875,-0.07391357421875,-0.05938720703125
1751013985976040200,1.575040283203125,-1.0137939453125,-0.0764007568359375,-0.0629730224609375
1751013985985984000,1.58498388671875,-1.0177001953125,-0.0788421630859375,-0.0648040771484375
1751013985995928000,1.594927978515625,-1.012451171875,-0.07696533203125,-0.0648193359375
1751013986005872000,1.6048720703125,-1.0150146484375,-0.0771636962890625,-0.065948486328125
1751013986015815000,1.61481494140625,-1.020660400390625,-0.075927734375,-0.065948486328125
1751013986025759000,1.624759033203125,-1.02490234375,-0.073455810546875,-0.0659332275390625
1751013986035703300,1.634703369140625,-1.0194091796875,-0.068634033203125,-0.064483642578125
1751013986045647000,1.644647216796875,-1.01129150390625,-0.0638885498046875,-0.061431884765625
1751013986055590100,1.654590087890625,-1.0059661865234375,-0.0618743896484375,-0.055572509765625
1751013986065534200,1.6645341796875,-0.9991912841796875,-0.0620574951171875,-0.0558624267578125
1751013986075478000,1.67447802734375,-0.9959564208984375,-0.0626983642578125,-0.0568695068359375
1751013986085421000,1.684421142578125,-0.998321533203125,-0.0649261474609375,-0.0549468994140625
1751013986095365000,1.694365234375,-0.9992828369140625,-0.06927490234375,-0.0510406494140625
1751013986105309000,1.704308837890625,-1.0067138671875,-0.077117919921875,-0.055450439453125
1751013986115253000,1.7142529296875,-1.0172271728515625,-0.0823516845703125,-0.058349609375
1751013986125196000,1.724196044921875,-1.0183868408203125,-0.0846405029296875,-0.0628509521484375
1751013986135140000,1.73414013671875,-1.018798828125,-0.0825958251953125,-0.0668792724609375
1751013986145084200,1.744084228515625,-1.02508544921875,-0.075927734375,-0.0689544677734375
1751013986155028200,1.7540283203125,-1.0257110595703125,-0.072052001953125,-0.0684967041015625
1751013986164971000,1.763970947265625,-1.0213470458984375,-0.0667266845703125,-0.0684814453125
1751013986174915000,1.7739150390625,-1.0170745849609375,-0.0665435791015625,-0.0665740966796875
1751013986184859100,1.783859130859375,-1.01483154296875,-0.0690155029296875,-0.0595550537109375
1751013986194803000,1.793802978515625,-1.011932373046875,-0.0740509033203125,-0.0538787841796875
1751013986204746000,1.80374609375,-1.0098876953125,-0.0797882080078125,-0.0526580810546875
1751013986214690000,1.81368994140625,-1.0076141357421875,-0.0834808349609375,-0.048095703125
1751013986224634000,1.823634033203125,-1.0039825439453125,-0.08392333984375,-0.046539306640625
1751013986234578200,1.833578125,-1.0019683837890625,-0.081817626953125,-0.046783447265625
1751013986244521200,1.843521240234375,-1.0017852783203125,-0.0775146484375,-0.0461578369140625
1751013986254465000,1.853465087890625,-1.0062713623046875,-0.0739288330078125,-0.0485382080078125
1751013986264409000,1.8634091796875,-1.0086212158203125,-0.07269287109375,-0.054901123046875
1751013986274352000,1.87335205078125,-1.0055999755859375,-0.071746826171875,-0.0599517822265625
1751013986284296000,1.8832958984375,-1.005096435546875,-0.069732666015625,-0.062042236328125
1751013986294240000,1.893239990234375,-1.009246826171875,-0.0727691650390625,-0.05792236328125
1751013986304184000,1.90318408203125,-1.011566162109375,-0.0777435302734375,-0.0570220947265625
1751013986314126800,1.913126953125,-1.0108184814453125,-0.0788116455078125,-0.05963134765625
1751013986324071200,1.9230712890625,-1.0133819580078125,-0.0771331787109375,-0.0628814697265625
1751013986334015200,1.93301513671875,-1.0154571533203125,-0.0795135498046875,-0.0621185302734375
1751013986343959000,1.942958984375,-1.0173492431640625,-0.083251953125,-0.063720703125
1751013986353902000,1.952902099609375,-1.01654052734375,-0.0848236083984375,-0.0681304931640625
1751013986363846100,1.96284619140625,-1.01580810546875,-0.0863037109375,-0.0658111572265625
1751013986373790000,1.9727900390625,-1.0147705078125,-0.087646484375,-0.06353759765625
1751013986383734000,1.982734130859375,-1.0121002197265625,-0.088775634765625,-0.058563232421875
1751013986393677000,1.992677001953125,-1.0104827880859375,-0.0890655517578125,-0.05706787109375
1751013986403620900,2.002620849609375,-1.0093231201171875,-0.0862884521484375,-0.0571441650390625
1751013986413565200,2.012565185546875,-1.0038604736328125,-0.0867767333984375,-0.056976318359375
1751013986423509200,2.02250927734375,-1.0046844482421875,-0.0861663818359375,-0.0572052001953125
1751013986433452000,2.0324521484375,-1.0079803466796875,-0.0855865478515625,-0.059661865234375
1751013986443396000,2.04239599609375,-1.010986328125,-0.081695556640625,-0.0597991943359375
1751013986453340200,2.052340087890625,-1.0128936767578125,-0.0817718505859375,-0.0624542236328125
1751013986463283000,2.062282958984375,-1.009979248046875,-0.0812835693359375,-0.0618743896484375
1751013986473227000,2.07222705078125,-1.0098876953125,-0.080780029296875,-0.0608062744140625
1751013986483171000,2.082171142578125,-1.0093994140625,-0.0822906494140625,-0.0597991943359375
1751013986493115100,2.092115234375,-1.00469970703125,-0.080413818359375,-0.0570068359375
1751013986503058000,2.102057861328125,-0.9992218017578125,-0.07818603515625,-0.05499267578125
1751013986513002200,2.112002197265625,-0.998779296875,-0.078643798828125,-0.051849365234375
1751013986522946000,2.121946044921875,-1.001068115234375,-0.0805511474609375,-0.052093505859375
1751013986532890000,2.13189013671875,-1.0061492919921875,-0.083892822265625,-0.054901123046875
1751013986542833200,2.141833251953125,-1.0072479248046875,-0.0884246826171875,-0.057281494140625
1751013986552777000,2.15177685546875,-1.01129150390625,-0.08917236328125,-0.061279296875
1751013986562721000,2.161720947265625,-1.015350341796875,-0.0829010009765625,-0.0633087158203125
1751013986572665000,2.1716650390625,-1.0148468017578125,-0.076324462890625,-0.06524658203125
1751013986582608000,2.18160791015625,-1.010528564453125,-0.0706939697265625,-0.0667724609375
1751013986592552200,2.19155224609375,-1.0131378173828125,-0.067718505859375,-0.0683135986328125
1751013986602496300,2.201496337890625,-1.01531982421875,-0.07244873046875,-0.0737152099609375
1751013986612440000,2.211440185546875,-1.01336669921875,-0.078887939453125,-0.072601318359375
1751013986622383000,2.221383056640625,-1.0110015869140625,-0.0877227783203125,-0.0678558349609375
1751013986632327200,2.2313271484375,-1.0137939453125,-0.0928802490234375,-0.0651702880859375
1751013986642271000,2.24127099609375,-1.017791748046875,-0.093780517578125,-0.0664215087890625
1751013986652214000,2.251214111328125,-1.019073486328125,-0.093658447265625,-0.068572998046875
1751013986662158000,2.261157958984375,-1.0173797607421875,-0.0929412841796875,-0.0706634521484375
1751013986672102000,2.271101806640625,-1.0240325927734375,-0.0900726318359375,-0.074310302734375
1751013986682046200,2.281046142578125,-1.02825927734375,-0.0885467529296875,-0.0812530517578125
1751013986691989200,2.2909892578125,-1.022369384765625,-0.087493896484375,-0.080780029296875
1751013986701933000,2.30093310546875,-1.0139923095703125,-0.0886993408203125,-0.0787506103515625
1751013986711877000,2.310877197265625,-1.0051116943359375,-0.096099853515625,-0.076690673828125
1751013986721821200,2.3208212890625,-0.9975738525390625,-0.1045684814453125,-0.072723388671875
1751013986731764000,2.330763916015625,-0.9882354736328125,-0.116973876953125,-0.0745086669921875
1751013986741708000,2.3407080078125,-0.98822021484375,-0.1385650634765625,-0.072540283203125
1751013986751652000,2.350652099609375,-0.99713134765625,-0.1477508544921875,-0.0639190673828125
1751013986761596000,2.360595947265625,-0.9947357177734375,-0.1263275146484375,-0.0585479736328125
1751013986771539000,2.3705390625,-0.983642578125,-0.0984954833984375,-0.06134033203125
1751013986781483300,2.380483154296875,-0.9856109619140625,-0.0792694091796875,-0.0590362548828125
1751013986791427000,2.390427001953125,-0.9987030029296875,-0.0565032958984375,-0.0575408935546875
1751013986801371100,2.40037109375,-1.0126495361328125,-0.03594970703125,-0.0594329833984375
1751013986811314200,2.410314208984375,-1.01947021484375,-0.025482177734375,-0.0706329345703125
1751013986821258000,2.420258056640625,-1.01904296875,-0.021270751953125,-0.076416015625
1751013986831202000,2.4302021484375,-1.0248565673828125,-0.019500732421875,-0.0757598876953125
1751013986841145000,2.44014501953125,-1.03082275390625,-0.022369384765625,-0.0700531005859375
1751013986851089000,2.4500888671875,-1.027008056640625,-0.0299530029296875,-0.0625457763671875
1751013986861033000,2.460032958984375,-1.0232086181640625,-0.039764404296875,-0.057464599609375
1751013986870977300,2.469977294921875,-1.0238189697265625,-0.050872802734375,-0.05889892578125
1751013986880924200,2.479924072265625,-1.023712158203125,-0.0612640380859375,-0.0606689453125
1751013986890868200,2.4898681640625,-1.0247344970703125,-0.0686492919921875,-0.0605010986328125
1751013986900812000,2.49981201171875,-1.02099609375,-0.0713958740234375,-0.0571441650390625
1751013986910756000,2.509756103515625,-1.0173492431640625,-0.068450927734375,-0.0543212890625
1751013986920699100,2.51969921875,-1.0133056640625,-0.063507080078125,-0.0525360107421875
1751013986930643200,2.529643310546875,-1.0042266845703125,-0.058685302734375,-0.0468292236328125
1751013986940587000,2.5395869140625,-0.996185302734375,-0.055511474609375,-0.0410919189453125
1751013986950531000,2.549531005859375,-0.99420166015625,-0.0547943115234375,-0.03955078125
1751013986960474000,2.55947412109375,-0.991546630859375,-0.058868408203125,-0.0383758544921875
1751013986970418200,2.569418212890625,-0.9871978759765625,-0.0630950927734375,-0.039154052734375
1751013986980362200,2.5793623046875,-0.99066162109375,-0.0663604736328125,-0.04083251953125
1751013986990306000,2.58930615234375,-1.0013275146484375,-0.071807861328125,-0.04669189453125
1751013987000249000,2.5992490234375,-1.0081939697265625,-0.07659912109375,-0.0565185546875
1751013987010193200,2.609193115234375,-1.0115966796875,-0.0817718505859375,-0.0620880126953125
1751013987020137000,2.619136962890625,-1.01678466796875,-0.08685302734375,-0.0652923583984375
1751013987030080000,2.629080078125,-1.020050048828125,-0.08697509765625,-0.0648193359375
1751013987040024000,2.639024169921875,-1.018798828125,-0.079437255859375,-0.06231689453125
1751013987049968000,2.648968017578125,-1.014923095703125,-0.07562255859375,-0.0609893798828125
1751013987059912200,2.658912109375,-1.0171661376953125,-0.072052001953125,-0.0594329833984375
1751013987069855200,2.668855224609375,-1.0245819091796875,-0.0680084228515625,-0.0594940185546875
1751013987079799300,2.67879931640625,-1.023590087890625,-0.06646728515625,-0.06036376953125
1751013987089743000,2.6887431640625,-1.024932861328125,-0.068023681640625,-0.0615386962890625
1751013987099687200,2.698687255859375,-1.0287322998046875,-0.0683135986328125,-0.063995361328125
1751013987109630200,2.708630126953125,-1.0252838134765625,-0.0684051513671875,-0.0645294189453125
1751013987119574000,2.718573974609375,-1.0196990966796875,-0.0716094970703125,-0.0623779296875
1751013987129518000,2.72851806640625,-1.0162200927734375,-0.070098876953125,-0.0590362548828125
1751013987139461000,2.738461181640625,-1.0127105712890625,-0.06756591796875,-0.0552825927734375
1751013987149405000,2.748405029296875,-1.009307861328125,-0.069610595703125,-0.0559844970703125
1751013987159349200,2.758349365234375,-1.0095672607421875,-0.0668792724609375,-0.05523681640625
1751013987169293000,2.76829296875,-1.0091705322265625,-0.0674896240234375,-0.0526275634765625
1751013987179236000,2.778236083984375,-1.0079193115234375,-0.0702056884765625,-0.05535888671875
1751013987189180200,2.78818017578125,-1.00750732421875,-0.0702362060546875,-0.05487060546875
1751013987199124200,2.798124267578125,-1.0050506591796875,-0.06805419921875,-0.053253173828125
1751013987209068000,2.808068115234375,-1.0015106201171875,-0.06610107421875,-0.0528106689453125
1751013987219011000,2.818010986328125,-0.99951171875,-0.0643157958984375,-0.055511474609375
1751013987228955100,2.827955078125,-0.999755859375,-0.0675811767578125,-0.0603485107421875
1751013987238899200,2.837899169921875,-1.003387451171875,-0.0683135986328125,-0.066192626953125
1751013987248843300,2.84784326171875,-1.0101165771484375,-0.07135009765625,-0.07171630859375
1751013987258786300,2.857786376953125,-1.0090484619140625,-0.0747528076171875,-0.076171875
1751013987268730000,2.867730224609375,-1.00567626953125,-0.0764923095703125,-0.0744781494140625
1751013987278674200,2.877674072265625,-1.0046844482421875,-0.0780029296875,-0.0685272216796875
1751013987288617200,2.8876171875,-1.00140380859375,-0.080047607421875,-0.0650177001953125
1751013987298561000,2.89756103515625,-0.9973297119140625,-0.07952880859375,-0.0599517822265625
1751013987308505000,2.907505126953125,-0.9991302490234375,-0.0780029296875,-0.055816650390625
1751013987318449000,2.917448974609375,-1.000030517578125,-0.077178955078125,-0.058502197265625
1751013987328392000,2.927391845703125,-1.0023345947265625,-0.0771026611328125,-0.0635528564453125
1751013987338336300,2.937336181640625,-1.005706787109375,-0.07611083984375,-0.067535400390625
1751013987348280000,2.947280029296875,-1.0120391845703125,-0.076141357421875,-0.07135009765625
1751013987358224100,2.95722412109375,-1.014892578125,-0.0774078369140625,-0.0748291015625
1751013987368167200,2.967167236328125,-1.0086669921875,-0.0763092041015625,-0.072174072265625
1751013987378111200,2.977111328125,-1.00360107421875,-0.0701904296875,-0.0661773681640625
1751013987388055000,2.987054931640625,-1.006805419921875,-0.06903076171875,-0.0615234375
1751013987397999000,2.9969990234375,-1.0068206787109375,-0.0748443603515625,-0.06298828125
1751013987407942100,3.006942138671875,-1.0035552978515625,-0.0764923095703125,-0.0633087158203125
1751013987417886000,3.016885986328125,-1.0054931640625,-0.0755615234375,-0.062835693359375
1751013987427830300,3.026830322265625,-1.00665283203125,-0.07843017578125,-0.061492919921875
1751013987437774000,3.036774169921875,-1.00616455078125,-0.079925537109375,-0.0655517578125
1751013987447717000,3.046717041015625,-1.004852294921875,-0.0825042724609375,-0.0731964111328125
1751013987457661200,3.0566611328125,-1.0173492431640625,-0.0822601318359375,-0.07757568359375
1751013987467605000,3.06660498046875,-1.031341552734375,-0.071258544921875,-0.069366455078125
1751013987477548000,3.076548095703125,-1.022613525390625,-0.0694732666015625,-0.0692596435546875
1751013987487492000,3.0864921875,-1.016265869140625,-0.0738983154296875,-0.07568359375
1751013987497436200,3.096436279296875,-1.0233917236328125,-0.0706634521484375,-0.0771942138671875
1751013987507380000,3.1063798828125,-1.0309600830078125,-0.0650177001953125,-0.0810546875
1751013987517323000,3.116322998046875,-1.02978515625,-0.071624755859375,-0.090728759765625
1751013987527267300,3.126267333984375,-1.023193359375,-0.078338623046875,-0.09051513671875
1751013987537211100,3.136211181640625,-1.0189361572265625,-0.0794677734375,-0.08135986328125
1751013987547155200,3.1461552734375,-1.01226806640625,-0.084136962890625,-0.0786285400390625
1751013987557098200,3.15609814453125,-1.008880615234375,-0.086517333984375,-0.073883056640625
1751013987567042000,3.1660419921875,-1.0037078857421875,-0.086029052734375,-0.068450927734375
1751013987576986000,3.175986083984375,-1.001129150390625,-0.0850677490234375,-0.0649871826171875
1751013987586929200,3.18592919921875,-0.9983673095703125,-0.084136962890625,-0.0632171630859375
1751013987596873000,3.195873046875,-0.9972686767578125,-0.0841522216796875,-0.063018798828125
1751013987606817000,3.205817138671875,-0.9990234375,-0.0824737548828125,-0.065277099609375
1751013987616761000,3.215760986328125,-1.001953125,-0.0838165283203125,-0.069580078125
1751013987626704100,3.2257041015625,-0.998321533203125,-0.084716796875,-0.0697021484375
1751013987636648200,3.235648193359375,-0.9908905029296875,-0.087310791015625,-0.0678558349609375
1751013987646592300,3.24559228515625,-0.9864501953125,-0.0903167724609375,-0.065948486328125
1751013987656536000,3.2555361328125,-0.9763946533203125,-0.093994140625,-0.061431884765625
1751013987666479000,3.26547900390625,-0.9642333984375,-0.09625244140625,-0.06097412109375
1751013987676423200,3.275423095703125,-0.961334228515625,-0.0937347412109375,-0.0625762939453125
1751013987686367000,3.285366943359375,-0.9698333740234375,-0.0937347412109375,-0.0659332275390625
1751013987696311000,3.29531103515625,-0.9766387939453125,-0.098846435546875,-0.0680694580078125
1751013987706254000,3.305254150390625,-0.9835968017578125,-0.096160888671875,-0.06964111328125
1751013987716198100,3.3151982421875,-1.00054931640625,-0.0880889892578125,-0.0715484619140625
1751013987726142200,3.32514208984375,-1.015228271484375,-0.0823516845703125,-0.0755157470703125
1751013987736085200,3.335085205078125,-1.024139404296875,-0.0730743408203125,-0.07666015625
1751013987746029000,3.345029052734375,-1.0276336669921875,-0.06304931640625,-0.0762176513671875
1751013987755973000,3.35497314453125,-1.029510498046875,-0.057830810546875,-0.0769195556640625
1751013987765917200,3.364917236328125,-1.03411865234375,-0.0541839599609375,-0.078460693359375
1751013987775860000,3.37485986328125,-1.0348052978515625,-0.05157470703125,-0.0781707763671875
1751013987785804000,3.384803955078125,-1.0296478271484375,-0.051727294921875,-0.07464599609375
1751013987795748000,3.394748046875,-1.025909423828125,-0.0562896728515625,-0.0742645263671875
1751013987805692200,3.404692138671875,-1.0206451416015625,-0.061767578125,-0.0712127685546875
1751013987815635200,3.41463525390625,-1.01605224609375,-0.0656280517578125,-0.067901611328125
1751013987825579300,3.424579345703125,-1.0121917724609375,-0.0684356689453125,-0.0671234130859375
1751013987835523000,3.434523193359375,-1.010650634765625,-0.069793701171875,-0.0687408447265625
1751013987845467100,3.444467041015625,-1.0139923095703125,-0.07208251953125,-0.071197509765625
1751013987855410200,3.45441015625,-1.015289306640625,-0.076507568359375,-0.0760345458984375
1751013987865354000,3.46435400390625,-1.014739990234375,-0.0765533447265625,-0.07916259765625
1751013987875298000,3.474298095703125,-1.0186614990234375,-0.0703582763671875,-0.080718994140625
1751013987885236700,3.48423681640625,-1.0206146240234375,-0.0710906982421875,-0.0814361572265625
1751013987895180800,3.494180908203125,-1.0198822021484375,-0.075347900390625,-0.081573486328125
1751013987905124900,3.504124755859375,-1.018768310546875,-0.07470703125,-0.08349609375
1751013987915069000,3.51406884765625,-1.017730712890625,-0.077056884765625,-0.0850372314453125
1751013987925012000,3.524011962890625,-1.0176849365234375,-0.0810699462890625,-0.0861968994140625
1751013987934955800,3.533955810546875,-1.0115509033203125,-0.08306884765625,-0.0856170654296875
1751013987944899800,3.54389990234375,-1.0042724609375,-0.0843353271484375,-0.08306884765625
1751013987954843600,3.55384375,-1.0028228759765625,-0.0840606689453125,-0.0762786865234375
1751013987964786700,3.56378662109375,-0.9980316162109375,-0.086700439453125,-0.069000244140625
1751013987974730800,3.573730712890625,-0.9977264404296875,-0.0882568359375,-0.067047119140625
1751013987984674800,3.5836748046875,-1.0030975341796875,-0.080718994140625,-0.0644378662109375
1751013987994617900,3.593617919921875,-1.0062713623046875,-0.074676513671875,-0.0663299560546875
1751013988004562000,3.60356201171875,-1.0156097412109375,-0.062774658203125,-0.064971923828125
1751013988014506000,3.613506103515625,-1.013092041015625,-0.061859130859375,-0.0687408447265625
1751013988024449800,3.62344970703125,-0.99468994140625,-0.0786285400390625,-0.080810546875
1751013988034392800,3.633392822265625,-1.0046539306640625,-0.0927581787109375,-0.093231201171875
1751013988044337000,3.6433369140625,-1.03485107421875,-0.10076904296875,-0.1132659912109375
1751013988054280700,3.65328076171875,-1.0381011962890625,-0.1015625,-0.1280975341796875
1751013988064224800,3.663224853515625,-1.0218048095703125,-0.0933685302734375,-0.1031341552734375
1751013988074167800,3.673167724609375,-0.99835205078125,-0.0854034423828125,-0.079010009765625
1751013988084112000,3.68311181640625,-0.98193359375,-0.07501220703125,-0.0650787353515625
1751013988094056000,3.693055908203125,-0.97509765625,-0.063629150390625,-0.05670166015625
1751013988103999700,3.702999755859375,-0.977813720703125,-0.0655975341796875,-0.061492919921875
1751013988113942800,3.71294287109375,-0.9854583740234375,-0.0735015869140625,-0.074249267578125
1751013988123886800,3.722886962890625,-1.0013275146484375,-0.079132080078125,-0.0855560302734375
1751013988133831000,3.732830810546875,-1.018585205078125,-0.0828857421875,-0.093780517578125
1751013988143773700,3.742773681640625,-1.03143310546875,-0.0824432373046875,-0.09967041015625
1751013988153717800,3.7527177734375,-1.0366363525390625,-0.079620361328125,-0.107513427734375
1751013988163661800,3.762661865234375,-1.0369110107421875,-0.071685791015625,-0.108001708984375
1751013988173606000,3.77260595703125,-1.0396881103515625,-0.0582733154296875,-0.1024322509765625
1751013988183549000,3.782548828125,-1.0372161865234375,-0.0473175048828125,-0.09991455078125
1751013988193493000,3.792492919921875,-1.0301361083984375,-0.041900634765625,-0.09527587890625
1751013988203436800,3.802436767578125,-1.026519775390625,-0.0429840087890625,-0.0895233154296875
1751013988213380900,3.812380859375,-1.0203399658203125,-0.0479736328125,-0.0823974609375
1751013988223324000,3.822323974609375,-1.0106964111328125,-0.0532073974609375,-0.0785980224609375
1751013988233267700,3.832267822265625,-1.004150390625,-0.0619964599609375,-0.07550048828125
1751013988243211800,3.842211669921875,-1.00213623046875,-0.070343017578125,-0.0727081298828125
1751013988253154800,3.85215478515625,-1.0002288818359375,-0.0749053955078125,-0.0726470947265625
1751013988263098600,3.8620986328125,-1.0007781982421875,-0.07666015625,-0.0736846923828125
1751013988273043000,3.87204296875,-1.0030670166015625,-0.0772705078125,-0.0762176513671875
1751013988282986800,3.88198681640625,-1.0032196044921875,-0.0797271728515625,-0.0786285400390625
1751013988292929800,3.8919296875,-0.99853515625,-0.08154296875,-0.077880859375
1751013988302873900,3.901873779296875,-0.9943695068359375,-0.083251953125,-0.0752716064453125
1751013988312818000,3.91181787109375,-0.9904327392578125,-0.08380126953125,-0.0714111328125
1751013988322761700,3.92176171875,-0.9859161376953125,-0.08984375,-0.0669097900390625
1751013988332704800,3.931704833984375,-0.9772796630859375,-0.0985565185546875,-0.0603179931640625
1751013988342648800,3.94164892578125,-0.9798431396484375,-0.0954132080078125,-0.063873291015625
1751013988352592600,3.951592529296875,-0.985260009765625,-0.0888519287109375,-0.0637359619140625
1751013988362537000,3.961536865234375,-1.0008087158203125,-0.0876007080078125,-0.0697174072265625
1751013988372480000,3.97147998046875,-1.014495849609375,-0.0890960693359375,-0.0839385986328125
1751013988382423800,3.981423828125,-1.020111083984375,-0.091033935546875,-0.09307861328125
1751013988392367900,3.991367919921875,-1.027435302734375,-0.0852508544921875,-0.0934906005859375
1751013988402311000,4.001310791015625,-1.036163330078125,-0.08282470703125,-0.093048095703125
1751013988412254700,4.011254638671875,-1.0395965576171875,-0.0790252685546875,-0.0947113037109375
1751013988422198800,4.02119873046875,-1.0377197265625,-0.07342529296875,-0.09649658203125
1751013988432142800,4.031142822265625,-1.033782958984375,-0.0719146728515625,-0.0933990478515625
1751013988442085600,4.041085693359375,-1.032562255859375,-0.0734100341796875,-0.087554931640625
1751013988452029700,4.05102978515625,-1.0313720703125,-0.079376220703125,-0.0851287841796875
1751013988461974000,4.06097412109375,-1.0237884521484375,-0.0829010009765625,-0.0811767578125
1751013988471917800,4.070917724609375,-1.0138702392578125,-0.08453369140625,-0.076812744140625
1751013988481860900,4.08086083984375,-1.0036773681640625,-0.085296630859375,-0.0720062255859375
1751013988491805000,4.090804931640625,-1.00030517578125,-0.086456298828125,-0.0670166015625
1751013988501748700,4.100748779296875,-0.9970245361328125,-0.0892181396484375,-0.0670166015625
1751013988511691800,4.11069189453125,-0.99383544921875,-0.0932769775390625,-0.0690155029296875
1751013988521635800,4.1206357421875,-0.992340087890625,-0.0942535400390625,-0.0724029541015625
1751013988531579600,4.13057958984375,-0.994873046875,-0.0916900634765625,-0.0696258544921875
1751013988541524000,4.14052392578125,-0.998077392578125,-0.0915679931640625,-0.069183349609375
1751013988551466800,4.150466796875,-0.99615478515625,-0.0901031494140625,-0.07293701171875
1751013988561410800,4.160410888671875,-0.99761962890625,-0.0890960693359375,-0.073577880859375
1751013988571355000,4.17035498046875,-0.99920654296875,-0.0886077880859375,-0.0719757080078125
1751013988581299000,4.180298828125,-1.00482177734375,-0.086822509765625,-0.0740203857421875
1751013988591241700,4.19024169921875,-1.004150390625,-0.0870513916015625,-0.0800323486328125
1751013988601185800,4.200185791015625,-0.9897308349609375,-0.0904693603515625,-0.0746307373046875
1751013988611129900,4.2101298828125,-0.9798431396484375,-0.0896148681640625,-0.0616455078125
1751013988621073000,4.220072998046875,-0.9788360595703125,-0.086090087890625,-0.0416717529296875
1751013988631016700,4.2300166015625,-0.9782867431640625,-0.0936431884765625,-0.0291290283203125
1751013988640961000,4.2399609375,-0.974609375,-0.09503173828125,-0.0411529541015625
1751013988650904800,4.24990478515625,-0.9793701171875,-0.08612060546875,-0.0536651611328125
1751013988660847900,4.259847900390625,-0.9996337890625,-0.091705322265625,-0.0717315673828125
1751013988670792000,4.2697919921875,-1.0199432373046875,-0.105072021484375,-0.0842742919921875
1751013988680735700,4.27973583984375,-1.03131103515625,-0.1148681640625,-0.097381591796875
1751013988690679800,4.2896796875,-1.0322113037109375,-0.11822509765625,-0.109954833984375
1751013988700622800,4.299622802734375,-1.0317230224609375,-0.1149749755859375,-0.110992431640625
1751013988710566700,4.309566650390625,-1.0328521728515625,-0.1108856201171875,-0.103759765625
1751013988720510700,4.3195107421875,-1.0287933349609375,-0.10504150390625,-0.0911712646484375
1751013988730453800,4.329453857421875,-1.023590087890625,-0.1014251708984375,-0.0827789306640625
1751013988740397800,4.339397705078125,-1.014892578125,-0.1036224365234375,-0.080413818359375
1751013988750342000,4.349341796875,-1.00830078125,-0.10430908203125,-0.0789031982421875
1751013988760286000,4.359285888671875,-1.006011962890625,-0.1029510498046875,-0.072296142578125
1751013988770228700,4.369228759765625,-1.007110595703125,-0.102935791015625,-0.067901611328125
1751013988780172800,4.3791728515625,-1.008087158203125,-0.104644775390625,-0.065093994140625
1751013988790116900,4.389116943359375,-1.004425048828125,-0.10601806640625,-0.06512451171875
1751013988800060700,4.399060791015625,-1.005035400390625,-0.1040496826171875,-0.064605712890625
1751013988810003700,4.409003662109375,-1.013671875,-0.1017303466796875,-0.06854248046875
1751013988819947800,4.41894775390625,-1.0174713134765625,-0.1015777587890625,-0.0783233642578125
1751013988829891800,4.428891845703125,-1.018310546875,-0.1016082763671875,-0.0868072509765625
1751013988839835000,4.4388349609375,-1.01812744140625,-0.102081298828125,-0.0875396728515625
1751013988849779000,4.448779052734375,-1.0196990966796875,-0.1027374267578125,-0.0866546630859375
1751013988859722800,4.45872265625,-1.01763916015625,-0.104583740234375,-0.0851287841796875
1751013988869666800,4.468666748046875,-1.010040283203125,-0.1053619384765625,-0.0813140869140625
1751013988879610400,4.4786103515625,-1.0030670166015625,-0.1071014404296875,-0.077178955078125
1751013988889554200,4.48855419921875,-0.999603271484375,-0.1118011474609375,-0.077880859375
1751013988899498200,4.498498291015625,-0.9977569580078125,-0.115142822265625,-0.0741119384765625
1751013988909442300,4.5084423828125,-0.9927215576171875,-0.119354248046875,-0.070556640625
1751013988919385300,4.51838525390625,-0.988494873046875,-0.121246337890625,-0.07220458984375
1751013988929329400,4.528329345703125,-0.988677978515625,-0.1208648681640625,-0.0720672607421875
1751013988939273500,4.5382734375,-0.9896697998046875,-0.1192474365234375,-0.07196044921875
1751013988949216300,4.54821630859375,-0.98974609375,-0.117645263671875,-0.0728607177734375
1751013988959160300,4.558160400390625,-0.9922332763671875,-0.1187744140625,-0.0729827880859375
1751013988969104400,4.5681044921875,-0.9933013916015625,-0.1197967529296875,-0.0764617919921875
1751013988979048200,4.578048095703125,-0.9944610595703125,-0.1179962158203125,-0.0787811279296875
1751013988988991200,4.5879912109375,-0.99420166015625,-0.1219482421875,-0.08099365234375
1751013988998935300,4.597935302734375,-1.001190185546875,-0.127685546875,-0.0879669189453125
1751013989008879400,4.60787939453125,-1.01226806640625,-0.126678466796875,-0.090484619140625
1751013989018822400,4.617822509765625,-1.025054931640625,-0.1212310791015625,-0.0886077880859375
1751013989028766500,4.627766357421875,-1.0356597900390625,-0.1129150390625,-0.0813751220703125
1751013989038710300,4.637710205078125,-1.0383148193359375,-0.105621337890625,-0.082183837890625
1751013989048654300,4.647654296875,-1.0346832275390625,-0.09356689453125,-0.08184814453125
1751013989058597400,4.657597412109375,-1.0334930419921875,-0.0774993896484375,-0.0780181884765625
1751013989068541200,4.667541259765625,-1.0389862060546875,-0.063568115234375,-0.0749969482421875
1751013989078485200,4.6774853515625,-1.040283203125,-0.0609283447265625,-0.079010009765625
1751013989088429300,4.68742919921875,-1.0367584228515625,-0.0684051513671875,-0.08282470703125
1751013989098372000,4.6973720703125,-1.033477783203125,-0.076934814453125,-0.08477783203125
1751013989108316400,4.70731640625,-1.0313720703125,-0.0791168212890625,-0.0801849365234375
1751013989118260500,4.717260498046875,-1.0264892578125,-0.083221435546875,-0.07476806640625
1751013989128203500,4.72720361328125,-1.01812744140625,-0.0895233154296875,-0.07244873046875
1751013989138147300,4.737147216796875,-1.0076446533203125,-0.0938720703125,-0.0713653564453125
1751013989148091400,4.74709130859375,-1.002410888671875,-0.09686279296875,-0.072174072265625
1751013989158035200,4.75703515625,-1.0025787353515625,-0.0984039306640625,-0.06878662109375
1751013989167978200,4.766978271484375,-0.9998321533203125,-0.101898193359375,-0.071563720703125
1751013989177922300,4.77692236328125,-0.9891510009765625,-0.1073760986328125,-0.0752410888671875
1751013989187866000,4.7868662109375,-0.981781005859375,-0.106903076171875,-0.076446533203125
1751013989197810400,4.796810546875,-0.98529052734375,-0.102386474609375,-0.0756072998046875
1751013989207753500,4.80675341796875,-0.9914093017578125,-0.10162353515625,-0.0779571533203125
1751013989217697300,4.816697265625,-0.9887542724609375,-0.09857177734375,-0.0760650634765625
1751013989227641300,4.826641357421875,-0.9845428466796875,-0.0961151123046875,-0.0739593505859375
1751013989237584400,4.83658447265625,-0.98419189453125,-0.0957489013671875,-0.0749359130859375
1751013989247528200,4.846528076171875,-0.988861083984375,-0.094390869140625,-0.0740966796875
1751013989257472300,4.85647216796875,-0.9917755126953125,-0.096099853515625,-0.0741119384765625
1751013989267416300,4.866416259765625,-0.9915008544921875,-0.0974578857421875,-0.076873779296875
1751013989277359400,4.876359375,-0.9870147705078125,-0.0992889404296875,-0.0802459716796875
1751013989287303200,4.88630322265625,-0.988525390625,-0.1014251708984375,-0.0788726806640625
1751013989297247500,4.89624755859375,-0.9908599853515625,-0.1029052734375,-0.0754547119140625
1751013989307190500,4.9061904296875,-0.9940185546875,-0.1041107177734375,-0.0708160400390625
1751013989317134300,4.91613427734375,-0.994873046875,-0.105438232421875,-0.0682220458984375
1751013989327078400,4.926078369140625,-0.996429443359375,-0.10626220703125,-0.0663909912109375
1751013989337022200,4.936022216796875,-1.002410888671875,-0.105255126953125,-0.0667572021484375
1751013989346965200,4.94596533203125,-1.00653076171875,-0.1037139892578125,-0.069244384765625
1751013989356909300,4.955909423828125,-1.008575439453125,-0.0994720458984375,-0.0733489990234375
1751013989366853000,4.96585302734375,-1.013336181640625,-0.0941162109375,-0.074127197265625
1751013989376797400,4.97579736328125,-1.016082763671875,-0.09033203125,-0.0767669677734375
1751013989386740200,4.985740234375,-1.0167388916015625,-0.091033935546875,-0.078338623046875
1751013989396684300,4.995684326171875,-1.0168609619140625,-0.0886383056640625,-0.0777587890625
1751013989406628400,5.00562841796875,-1.01629638671875,-0.0840911865234375,-0.0724639892578125
1751013989416572400,5.015572509765625,-1.013671875,-0.0823974609375,-0.067169189453125
1751013989426515500,5.025515380859375,-1.007476806640625,-0.082733154296875,-0.0617218017578125
1751013989436459300,5.035459228515625,-1.000885009765625,-0.0804290771484375,-0.055572509765625
1751013989446403300,5.0454033203125,-1.001922607421875,-0.07525634765625,-0.055023193359375
1751013989456346400,5.055346435546875,-1.003662109375,-0.07415771484375,-0.0589141845703125
1751013989466290200,5.065290283203125,-1.00372314453125,-0.0779571533203125,-0.0628509521484375
1751013989476234500,5.075234375,-1.005462646484375,-0.08245849609375,-0.0683441162109375
1751013989486178300,5.08517822265625,-1.0104522705078125,-0.0902252197265625,-0.0757293701171875
1751013989496121300,5.095121337890625,-1.0179901123046875,-0.0950775146484375,-0.0876312255859375
1751013989506065400,5.1050654296875,-1.0213470458984375,-0.0981597900390625,-0.0970916748046875
1751013989516009200,5.11500927734375,-1.0203399658203125,-0.105926513671875,-0.102081298828125
1751013989525952300,5.1249521484375,-1.01812744140625,-0.1132049560546875,-0.104339599609375
1751013989535896300,5.134896240234375,-1.0137786865234375,-0.1192626953125,-0.1022186279296875
1751013989545840400,5.14484033203125,-1.0077056884765625,-0.12420654296875,-0.094696044921875
1751013989555784200,5.1547841796875,-1.0000457763671875,-0.1233978271484375,-0.0853424072265625
1751013989565727200,5.164727294921875,-0.995513916015625,-0.1166839599609375,-0.0773468017578125
1751013989575671600,5.174671630859375,-0.9951019287109375,-0.11029052734375,-0.075286865234375
1751013989585615400,5.184615478515625,-0.99945068359375,-0.107330322265625,-0.0819091796875
1751013989595559400,5.194559326171875,-1.000030517578125,-0.103546142578125,-0.0855560302734375
1751013989605502500,5.20450244140625,-1.00347900390625,-0.1008453369140625,-0.087890625
1751013989615446300,5.2144462890625,-1.00823974609375,-0.0999755859375,-0.0943450927734375
1751013989625390300,5.224390380859375,-1.00946044921875,-0.1000518798828125,-0.0979766845703125
1751013989635333400,5.23433349609375,-1.0093231201171875,-0.1031951904296875,-0.097900390625
1751013989645277200,5.244277099609375,-1.0085906982421875,-0.1036376953125,-0.0938262939453125
1751013989655221200,5.25422119140625,-1.0079498291015625,-0.1022796630859375,-0.0876922607421875
1751013989665165300,5.264165283203125,-1.00616455078125,-0.1014862060546875,-0.0827789306640625
1751013989675108400,5.2741083984375,-1.0037078857421875,-0.0984039306640625,-0.0799713134765625
1751013989685052400,5.284052490234375,-1.005096435546875,-0.094635009765625,-0.0804443359375
1751013989694996500,5.29399658203125,-1.0082244873046875,-0.092193603515625,-0.0804290771484375
1751013989704939300,5.303939208984375,-1.0108795166015625,-0.09075927734375,-0.0831451416015625
1751013989714883300,5.31388330078125,-1.01251220703125,-0.091278076171875,-0.0877838134765625
1751013989724827400,5.323827392578125,-1.0096893310546875,-0.0908966064453125,-0.086029052734375
1751013989734771200,5.333771240234375,-1.0087738037109375,-0.090301513671875,-0.084686279296875
1751013989744714200,5.34371435546875,-1.0076141357421875,-0.0939788818359375,-0.08319091796875
1751013989754658300,5.353658203125,-1.0074615478515625,-0.0977630615234375,-0.0851898193359375
1751013989764602400,5.363602294921875,-1.0098419189453125,-0.1017608642578125,-0.088653564453125
1751013989774546400,5.37354638671875,-1.0118865966796875,-0.103851318359375,-0.0879974365234375
1751013989784489500,5.383489501953125,-1.013092041015625,-0.1031646728515625,-0.088226318359375
1751013989794433300,5.393433349609375,-1.010986328125,-0.0983734130859375,-0.0861053466796875
1751013989804377300,5.40337744140625,-1.00726318359375,-0.092376708984375,-0.08349609375
1751013989814320400,5.4133203125,-1.007049560546875,-0.0867462158203125,-0.0802154541015625
1751013989824264200,5.42326416015625,-1.00726318359375,-0.085601806640625,-0.07989501953125
1751013989834208300,5.433208251953125,-1.0064239501953125,-0.0897979736328125,-0.085418701171875
1751013989844152300,5.44315234375,-1.0051422119140625,-0.0941009521484375,-0.090423583984375
1751013989854095000,5.45309521484375,-1.006439208984375,-0.0963134765625,-0.0918426513671875
1751013989864039400,5.463039306640625,-1.0098114013671875,-0.0982818603515625,-0.09228515625
1751013989873983500,5.4729833984375,-1.0085601806640625,-0.10406494140625,-0.0929107666015625
1751013989883926300,5.48292626953125,-1.0041046142578125,-0.1054534912109375,-0.09112548828125
1751013989893870300,5.492870361328125,-1.0018768310546875,-0.1004638671875,-0.08856201171875
1751013989903814400,5.502814453125,-1.0011749267578125,-0.099853515625,-0.08892822265625
1751013989913758200,5.51275830078125,-1.000518798828125,-0.09930419921875,-0.0931243896484375
1751013989923701200,5.522701171875,-1.003021240234375,-0.096771240234375,-0.0943145751953125
1751013989933645300,5.532645263671875,-1.0093841552734375,-0.0957489013671875,-0.0989990234375
1751013989943589000,5.542589111328125,-1.0103912353515625,-0.09716796875,-0.10302734375
1751013989953533400,5.552533447265625,-1.006988525390625,-0.0984344482421875,-0.101165771484375
1751013989963476500,5.5624765625,-1.006927490234375,-0.09832763671875,-0.0983734130859375
1751013989973420300,5.572420166015625,-1.0055999755859375,-0.1017303466796875,-0.09674072265625
1751013989983364400,5.5823642578125,-1.001983642578125,-0.10528564453125,-0.094573974609375
1751013989993307400,5.592307373046875,-0.9979095458984375,-0.10272216796875,-0.0901947021484375
1751013990003251200,5.602251220703125,-0.9972991943359375,-0.099853515625,-0.087860107421875
1751013990013195300,5.6121953125,-0.998687744140625,-0.097076416015625,-0.0905303955078125
1751013990023139300,5.622139404296875,-1.001312255859375,-0.0941314697265625,-0.0919342041015625
1751013990033082400,5.632082275390625,-1.006866455078125,-0.0901336669921875,-0.097869873046875
1751013990043026200,5.642026123046875,-1.0107879638671875,-0.0889129638671875,-0.1019439697265625
1751013990052970500,5.651970458984375,-1.0162353515625,-0.08880615234375,-0.1063232421875
1751013990062913500,5.66191357421875,-1.014923095703125,-0.0902557373046875,-0.1098175048828125
1751013990072857300,5.671857421875,-1.0082855224609375,-0.0918121337890625,-0.1072845458984375
1751013990082801400,5.681801513671875,-1.004669189453125,-0.092987060546875,-0.1003570556640625
1751013990092745200,5.6917451171875,-1.003387451171875,-0.091339111328125,-0.0948944091796875
1751013990102688300,5.701688232421875,-1.00738525390625,-0.0900115966796875,-0.0936126708984375
1751013990112632300,5.71163232421875,-1.0067291259765625,-0.09320068359375,-0.0981292724609375
1751013990122576100,5.721576171875,-1.0024871826171875,-0.0953369140625,-0.10089111328125
1751013990132520400,5.7315205078125,-1.00006103515625,-0.0933685302734375,-0.098907470703125
1751013990142463200,5.741463134765625,-1.0015106201171875,-0.0920562744140625,-0.0978851318359375
1751013990152407300,5.7514072265625,-1.003387451171875,-0.0949859619140625,-0.0983734130859375
1751013990162351400,5.761351318359375,-1.0036468505859375,-0.0975341796875,-0.0977783203125
1751013990172294400,5.77129443359375,-1.0019073486328125,-0.0957183837890625,-0.0974884033203125
1751013990182238500,5.781238525390625,-0.998992919921875,-0.095245361328125,-0.0964813232421875
1751013990192182300,5.791182373046875,-0.9983062744140625,-0.0965423583984375,-0.0940704345703125
1751013990202126300,5.801126220703125,-0.999542236328125,-0.0978546142578125,-0.0950927734375
1751013990212069400,5.8110693359375,-0.999481201171875,-0.098663330078125,-0.0964202880859375
1751013990222013200,5.82101318359375,-1.001556396484375,-0.096923828125,-0.093536376953125
1751013990231957500,5.83095751953125,-0.9998016357421875,-0.0966949462890625,-0.0886383056640625
1751013990241900300,5.840900390625,-1.0001678466796875,-0.0972900390625,-0.0807647705078125
1751013990251844400,5.85084423828125,-1.00311279296875,-0.096649169921875,-0.07562255859375
1751013990261788400,5.860788330078125,-1.003204345703125,-0.094512939453125,-0.074310302734375
1751013990271732200,5.870732177734375,-1.00250244140625,-0.0955963134765625,-0.075958251953125
1751013990281675300,5.88067529296875,-1.0087127685546875,-0.096221923828125,-0.081787109375
1751013990291619300,5.890619384765625,-1.009918212890625,-0.09710693359375,-0.0859527587890625
1751013990301563100,5.900563232421875,-1.010833740234375,-0.099456787109375,-0.0872955322265625
1751013990311507200,5.910507080078125,-1.0083160400390625,-0.0985260009765625,-0.0845184326171875
1751013990321450200,5.9204501953125,-1.01104736328125,-0.0963134765625,-0.0839691162109375
1751013990331394600,5.93039453125,-1.0112152099609375,-0.0947418212890625,-0.085235595703125
1751013990341338400,5.94033837890625,-1.014404296875,-0.09429931640625,-0.08050537109375
1751013990351281400,5.950281494140625,-1.015869140625,-0.0954437255859375,-0.0765228271484375
1751013990361225500,5.9602255859375,-1.017669677734375,-0.0976715087890625,-0.075347900390625
1751013990371169300,5.970169189453125,-1.019378662109375,-0.100921630859375,-0.075958251953125
1751013990381113300,5.98011328125,-1.0239105224609375,-0.1020660400390625,-0.078704833984375
1751013990391056400,5.990056396484375,-1.023345947265625,-0.0979461669921875,-0.0826416015625
1751013990401000200,6.000000244140625,-1.02105712890625,-0.0931854248046875,-0.086669921875
1751013990410944300,6.0099443359375,-1.0240631103515625,-0.0876922607421875,-0.0896148681640625
1751013990420887300,6.01988720703125,-1.0199127197265625,-0.0887451171875,-0.090484619140625
1751013990430831400,6.029831298828125,-1.0147552490234375,-0.0930328369140625,-0.09222412109375
1751013990440775400,6.039775390625,-1.0102996826171875,-0.0999298095703125,-0.095672607421875
1751013990450719200,6.04971923828125,-1.0109710693359375,-0.1061553955078125,-0.0996856689453125
1751013990460662300,6.059662353515625,-1.0152130126953125,-0.1081390380859375,-0.1022186279296875
1751013990470606300,6.0696064453125,-1.015960693359375,-0.1045684814453125,-0.1019439697265625
1751013990480550400,6.07955029296875,-1.0154266357421875,-0.103424072265625,-0.1052398681640625
1751013990490494200,6.089494140625,-1.0212554931640625,-0.10198974609375,-0.1102294921875
1751013990500437200,6.099437255859375,-1.0333404541015625,-0.0948028564453125,-0.1149749755859375
1751013990510381300,6.10938134765625,-1.049835205078125,-0.088958740234375,-0.1142425537109375
1751013990520325400,6.119325439453125,-1.0658111572265625,-0.0899810791015625,-0.1096038818359375
1751013990530268400,6.129268310546875,-1.0759429931640625,-0.0905303955078125,-0.114166259765625
1751013990540212500,6.13921240234375,-1.0802764892578125,-0.086395263671875,-0.1192779541015625
1751013990550156300,6.14915625,-1.07550048828125,-0.0848388671875,-0.113616943359375
1751013990560100400,6.159100341796875,-1.0611114501953125,-0.086151123046875,-0.0973663330078125
1751013990570043400,6.16904345703125,-1.0412445068359375,-0.0851287841796875,-0.0822296142578125
1751013990579987200,6.1789873046875,-1.0152587890625,-0.07818603515625,-0.0720977783203125
1751013990589931300,6.18893115234375,-0.9965667724609375,-0.0804901123046875,-0.0693206787109375
1751013990599875300,6.198875244140625,-0.987701416015625,-0.086883544921875,-0.067626953125
1751013990609818000,6.208818115234375,-0.9766845703125,-0.09210205078125,-0.067962646484375
1751013990619762400,6.218762451171875,-0.9654083251953125,-0.0986175537109375,-0.069427490234375
1751013990629706500,6.22870654296875,-0.961273193359375,-0.1031646728515625,-0.069091796875
1751013990639649300,6.238649169921875,-0.9656829833984375,-0.1040496826171875,-0.0702667236328125
1751013990649593300,6.24859326171875,-0.9642333984375,-0.1072540283203125,-0.0729217529296875
1751013990659537400,6.258537353515625,-0.9609375,-0.112030029296875,-0.069091796875
1751013990669481200,6.268481201171875,-0.9628448486328125,-0.1144866943359375,-0.062835693359375
1751013990679424300,6.27842431640625,-0.965240478515625,-0.1152191162109375,-0.062255859375
1751013990689368300,6.288368408203125,-0.970458984375,-0.11639404296875,-0.0662994384765625
1751013990699312000,6.29831201171875,-0.9747161865234375,-0.1171417236328125,-0.07208251953125
1751013990709255200,6.308255126953125,-0.9791412353515625,-0.1170806884765625,-0.0790557861328125
1751013990719199500,6.318199462890625,-0.981842041015625,-0.112548828125,-0.0849609375
1751013990729143300,6.328143310546875,-0.9866485595703125,-0.1066131591796875,-0.091156005859375
1751013990739087400,6.33808740234375,-0.9922332763671875,-0.1035919189453125,-0.0941619873046875
1751013990749030400,6.348030517578125,-0.9954376220703125,-0.1024322509765625,-0.09210205078125
1751013990758974200,6.35797412109375,-0.9972076416015625,-0.1014556884765625,-0.090606689453125
1751013990768918300,6.367918212890625,-0.9998321533203125,-0.102325439453125,-0.096282958984375
1751013990778862300,6.3778623046875,-1.006988525390625,-0.1078338623046875,-0.1029815673828125
1751013990788805000,6.38780517578125,-1.0175018310546875,-0.11224365234375,-0.106231689453125
1751013990798749200,6.397749267578125,-1.0239105224609375,-0.1135101318359375,-0.1079864501953125
1751013990808693500,6.407693603515625,-1.0209808349609375,-0.12823486328125,-0.1071929931640625
1751013990818636500,6.417636474609375,-1.0160369873046875,-0.145843505859375,-0.104766845703125
1751013990828580400,6.427580322265625,-1.011322021484375,-0.147705078125,-0.098846435546875
1751013990838524400,6.4375244140625,-1.0052490234375,-0.124725341796875,-0.0850830078125
1751013990848468200,6.44746826171875,-0.9893341064453125,-0.100494384765625,-0.079254150390625
1751013990858411300,6.457411376953125,-0.9736328125,-0.082733154296875,-0.0817413330078125
1751013990868355300,6.467355224609375,-0.9732208251953125,-0.0702056884765625,-0.0900726318359375
1751013990878299100,6.477299072265625,-0.9809417724609375,-0.0669708251953125,-0.10211181640625
1751013990888246300,6.487246337890625,-0.9924163818359375,-0.07183837890625,-0.0962677001953125
1751013990898190300,6.4971904296875,-1.0089263916015625,-0.082550048828125,-0.078399658203125
1751013990908134400,6.507134521484375,-1.009857177734375,-0.0963287353515625,-0.0691680908203125
1751013990918078500,6.517078369140625,-0.99530029296875,-0.1042633056640625,-0.0674591064453125
1751013990928021500,6.527021484375,-0.9862213134765625,-0.1045074462890625,-0.0623016357421875
1751013990937965300,6.53696533203125,-0.98602294921875,-0.1015167236328125,-0.051513671875
1751013990947909400,6.546909423828125,-0.9813995361328125,-0.0990753173828125,-0.0436553955078125
1751013990957853400,6.556853515625,-0.978515625,-0.0957794189453125,-0.0437774658203125
1751013990967796200,6.566796142578125,-0.9864044189453125,-0.0884857177734375,-0.0484771728515625
1751013990977740300,6.576740234375,-0.9962921142578125,-0.08050537109375,-0.0501251220703125
1751013990987684400,6.586684326171875,-1.002410888671875,-0.079925537109375,-0.052398681640625
1751013990997627100,6.596627197265625,-1.0038909912109375,-0.0814208984375,-0.0524749755859375
1751013991007571500,6.606571533203125,-1.0022430419921875,-0.08148193359375,-0.0540771484375
1751013991017515500,6.616515625,-1.002410888671875,-0.0846710205078125,-0.052154541015625
1751013991027459300,6.626459228515625,-1.004486083984375,-0.093017578125,-0.0567779541015625
1751013991037402400,6.63640234375,-1.0052947998046875,-0.099517822265625,-0.06634521484375
1751013991047346400,6.646346435546875,-1.009918212890625,-0.105438232421875,-0.071563720703125
1751013991057290200,6.656290283203125,-1.0136871337890625,-0.112152099609375,-0.0692901611328125
1751013991067234300,6.666234375,-1.010986328125,-0.11407470703125,-0.069305419921875
1751013991077177300,6.67617724609375,-1.012237548828125,-0.1077117919921875,-0.06634521484375
1751013991087121200,6.68612109375,-1.0193634033203125,-0.0993194580078125,-0.0634002685546875
1751013991097065500,6.6960654296875,-1.02069091796875,-0.095184326171875,-0.0632476806640625
1751013991107008500,6.706008544921875,-1.0158538818359375,-0.097015380859375,-0.062103271484375
1751013991116952300,6.715952392578125,-1.0159912109375,-0.1009979248046875,-0.0663299560546875
1751013991126896400,6.725896484375,-1.0220489501953125,-0.107391357421875,-0.0720367431640625
1751013991136840400,6.73584033203125,-1.0265045166015625,-0.1144866943359375,-0.0736846923828125
1751013991146783200,6.745783203125,-1.01837158203125,-0.1139373779296875,-0.0726776123046875
1751013991156727300,6.755727294921875,-1.006378173828125,-0.104278564453125,-0.0641937255859375
1751013991166671400,6.76567138671875,-1.0074920654296875,-0.091949462890625,-0.0533447265625
1751013991176615400,6.775615478515625,-1.010528564453125,-0.0819854736328125,-0.051605224609375
1751013991186558200,6.78555810546875,-1.010589599609375,-0.0722198486328125,-0.05078125
1751013991196502500,6.79550244140625,-1.0074615478515625,-0.06768798828125,-0.0533905029296875
1751013991206446300,6.8054462890625,-1.009918212890625,-0.0713958740234375,-0.0594024658203125
1751013991216389400,6.815389404296875,-1.0124664306640625,-0.080474853515625,-0.0637359619140625
1751013991226333400,6.82533349609375,-1.010833740234375,-0.0922393798828125,-0.06475830078125
1751013991236277200,6.83527734375,-1.0074310302734375,-0.0999603271484375,-0.06146240234375
1751013991246221300,6.84522119140625,-0.9977569580078125,-0.101715087890625,-0.0568695068359375
1751013991256164400,6.855164306640625,-0.9937286376953125,-0.10003662109375,-0.0560455322265625
1751013991266108200,6.865108154296875,-1.002105712890625,-0.0966644287109375,-0.0537261962890625
1751013991276052500,6.875052490234375,-1.004547119140625,-0.0939178466796875,-0.05438232421875
1751013991285996500,6.88499658203125,-1.002044677734375,-0.0923309326171875,-0.0617523193359375
1751013991295939300,6.894939208984375,-1.0077362060546875,-0.0881195068359375,-0.066253662109375
1751013991305883400,6.90488330078125,-1.01605224609375,-0.0854034423828125,-0.0714874267578125
1751013991315827500,6.914827392578125,-1.0138092041015625,-0.0886688232421875,-0.073516845703125
1751013991325770500,6.9247705078125,-1.0052337646484375,-0.0923004150390625,-0.068878173828125
1751013991335714300,6.93471435546875,-1.003326416015625,-0.0949859619140625,-0.06146240234375
1751013991345658400,6.944658447265625,-1.001617431640625,-0.0970001220703125,-0.0562286376953125
1751013991355602200,6.954602294921875,-0.9952239990234375,-0.099273681640625,-0.0506591796875
1751013991365545200,6.964545166015625,-0.99615478515625,-0.096466064453125,-0.0464324951171875
1751013991375489500,6.974489501953125,-1.001007080078125,-0.0954132080078125,-0.0456695556640625
1751013991385433300,6.984433349609375,-1.002410888671875,-0.09576416015625,-0.0494384765625
1751013991395377400,6.99437744140625,-1.0006561279296875,-0.0926055908203125,-0.0508270263671875
1751013991405320400,7.004320556640625,-1.005859375,-0.0890045166015625,-0.054107666015625
1751013991415264300,7.01426416015625,-1.0115966796875,-0.0875244140625,-0.0583648681640625
1751013991425208300,7.024208251953125,-1.0107879638671875,-0.08587646484375,-0.0574188232421875
1751013991435151400,7.0341513671875,-1.0079803466796875,-0.0852813720703125,-0.05517578125
1751013991445095400,7.044095458984375,-1.0070343017578125,-0.08636474609375,-0.0507049560546875
1751013991455039200,7.054039306640625,-1.0075531005859375,-0.0870819091796875,-0.0477447509765625
1751013991464983600,7.063983642578125,-1.0096435546875,-0.08648681640625,-0.0482025146484375
1751013991474926600,7.073926513671875,-1.0133819580078125,-0.08697509765625,-0.0511016845703125
1751013991484870400,7.083870361328125,-1.017242431640625,-0.0868072509765625,-0.0521240234375
1751013991494814500,7.093814453125,-1.02197265625,-0.0858001708984375,-0.0534210205078125
1751013991504757500,7.103757568359375,-1.0279388427734375,-0.0854644775390625,-0.05706787109375
1751013991514701300,7.113701416015625,-1.0340576171875,-0.08343505859375,-0.060516357421875
1751013991524645400,7.123645263671875,-1.0398712158203125,-0.07952880859375,-0.065673828125
1751013991534589200,7.133589111328125,-1.0415496826171875,-0.0803375244140625,-0.072601318359375
1751013991544532200,7.1435322265625,-1.04217529296875,-0.0859375,-0.0764312744140625
1751013991554476300,7.153476318359375,-1.0426025390625,-0.0897979736328125,-0.08001708984375
1751013991564420400,7.16342041015625,-1.0366058349609375,-0.0941009521484375,-0.0768280029296875
1751013991574364400,7.173364501953125,-1.028289794921875,-0.0926666259765625,-0.0655975341796875
1751013991584307500,7.183307373046875,-1.0213775634765625,-0.09344482421875,-0.0625
1751013991594251500,7.19325146484375,-1.0130767822265625,-0.0904083251953125,-0.0565948486328125
1751013991604195300,7.2031953125,-1.002960205078125,-0.083465576171875,-0.0496978759765625
1751013991614138400,7.213138427734375,-0.99951171875,-0.0754852294921875,-0.030517578125
1751013991624082400,7.22308251953125,-0.99560546875,-0.0800323486328125,-0.0235137939453125
1751013991634026200,7.233026123046875,-0.99285888671875,-0.0830841064453125,-0.0252227783203125
1751013991643970300,7.24297021484375,-0.99102783203125,-0.08538818359375,-0.0273590087890625
1751013991653913300,7.252913330078125,-0.991851806640625,-0.0906524658203125,-0.0304107666015625
1751013991663857400,7.262857421875,-0.9876861572265625,-0.093536376953125,-0.0292205810546875
1751013991673801500,7.272801513671875,-0.9887542724609375,-0.093536376953125,-0.0279083251953125
1751013991683745300,7.282745361328125,-0.9930877685546875,-0.08966064453125,-0.0275421142578125
1751013991693688300,7.292688232421875,-0.9987945556640625,-0.08795166015625,-0.03057861328125
1751013991703632400,7.30263232421875,-1.00152587890625,-0.086334228515625,-0.0372467041015625
1751013991713576200,7.312576171875,-1.00799560546875,-0.0786285400390625,-0.043975830078125
1751013991723519200,7.322519287109375,-1.0142669677734375,-0.07244873046875,-0.0501556396484375
1751013991733463300,7.33246337890625,-1.0169525146484375,-0.0703125,-0.0544586181640625
1751013991743407400,7.342407470703125,-1.0176544189453125,-0.0705108642578125,-0.05657958984375
1751013991753351400,7.352351318359375,-1.019439697265625,-0.0718231201171875,-0.056488037109375
1751013991763294500,7.36229443359375,-1.017730712890625,-0.0746307373046875,-0.054931640625
1751013991773238500,7.372238525390625,-1.016143798828125,-0.0749664306640625,-0.0530853271484375
1751013991783182300,7.382182373046875,-1.0155181884765625,-0.073699951171875,-0.0457611083984375
1751013991793125400,7.39212548828125,-1.0150909423828125,-0.076416015625,-0.0452728271484375
1751013991803069400,7.4020693359375,-1.008056640625,-0.0782012939453125,-0.04547119140625
1751013991813013200,7.41201318359375,-1.0045623779296875,-0.0782928466796875,-0.0454254150390625
1751013991822957300,7.421957275390625,-1.007415771484375,-0.079742431640625,-0.0457000732421875
1751013991832900400,7.431900390625,-1.0118560791015625,-0.08441162109375,-0.0467071533203125
1751013991842844200,7.44184423828125,-1.0121307373046875,-0.088897705078125,-0.0469512939453125
1751013991852788500,7.45178857421875,-1.010162353515625,-0.0886077880859375,-0.0520782470703125
1751013991862732300,7.461732177734375,-1.0041351318359375,-0.0906219482421875,-0.0507659912109375
1751013991872675300,7.47167529296875,-1.0014190673828125,-0.0923004150390625,-0.044342041015625
1751013991882615000,7.481614990234375,-1.0002899169921875,-0.0902252197265625,-0.0405426025390625
1751013991892559000,7.49155908203125,-0.999420166015625,-0.0897216796875,-0.0426788330078125
1751013991902502100,7.501502197265625,-0.9978179931640625,-0.0934906005859375,-0.04425048828125
1751013991912446000,7.511446044921875,-0.9997406005859375,-0.0947723388671875,-0.0397186279296875
1751013991922390000,7.52139013671875,-1.003936767578125,-0.09417724609375,-0.0367431640625
1751013991932334000,7.531333984375,-1.0001678466796875,-0.0947265625,-0.0411834716796875
1751013991942276900,7.54127685546875,-0.9967041015625,-0.09405517578125,-0.0422210693359375
1751013991952221200,7.55122119140625,-0.995391845703125,-0.092010498046875,-0.0397796630859375
1751013991962165000,7.5611650390625,-0.9996490478515625,-0.090728759765625,-0.039703369140625
1751013991972109000,7.571109130859375,-1.005859375,-0.0850677490234375,-0.04229736328125
1751013991982052000,7.581052001953125,-1.0099639892578125,-0.0817413330078125,-0.042724609375
1751013991991996200,7.59099609375,-1.015228271484375,-0.0854644775390625,-0.048248291015625
1751013992001940000,7.60093994140625,-1.0145111083984375,-0.0929412841796875,-0.0538787841796875
1751013992011883000,7.610883056640625,-1.008636474609375,-0.0973663330078125,-0.0519561767578125
1751013992021827000,7.6208271484375,-1.0070037841796875,-0.098358154296875,-0.046905517578125
1751013992031771100,7.630771240234375,-1.00579833984375,-0.1031494140625,-0.041290283203125
1751013992041715200,7.640715087890625,-1.001495361328125,-0.1074981689453125,-0.0365447998046875
1751013992051658200,7.650658203125,-1.0042572021484375,-0.100738525390625,-0.0332794189453125
1751013992061602000,7.66060205078125,-1.013397216796875,-0.092010498046875,-0.0362396240234375
1751013992071546000,7.670546142578125,-1.0243682861328125,-0.0874786376953125,-0.0453338623046875
1751013992081490000,7.680489990234375,-1.031524658203125,-0.084686279296875,-0.0585174560546875
1751013992091433000,7.690432861328125,-1.0389862060546875,-0.077117919921875,-0.066986083984375
1751013992101377000,7.700376953125,-1.0479278564453125,-0.0706024169921875,-0.0717620849609375
1751013992111321000,7.710321044921875,-1.048797607421875,-0.0727081298828125,-0.072235107421875
1751013992121263900,7.720263916015625,-1.043182373046875,-0.0791778564453125,-0.070526123046875
1751013992131208200,7.730208251953125,-1.0380859375,-0.081939697265625,-0.0659942626953125
1751013992141152300,7.74015234375,-1.0289764404296875,-0.08404541015625,-0.0592498779296875
1751013992151096000,7.750095947265625,-1.0178070068359375,-0.0884246826171875,-0.0540924072265625
1751013992161039000,7.7600390625,-1.008880615234375,-0.0909423828125,-0.0523681640625
1751013992170983200,7.769983154296875,-1.0081329345703125,-0.092254638671875,-0.05108642578125
1751013992180927000,7.779927001953125,-1.0113983154296875,-0.0932464599609375,-0.0502777099609375
1751013992190870000,7.7898701171875,-1.0113372802734375,-0.0973968505859375,-0.0581207275390625
1751013992200814000,7.79981396484375,-1.007232666015625,-0.0979766845703125,-0.061187744140625
1751013992210758000,7.8097578125,-1.0050201416015625,-0.095733642578125,-0.060882568359375
1751013992220702200,7.8197021484375,-1.00592041015625,-0.0947723388671875,-0.0618743896484375
1751013992230645200,7.829645263671875,-1.0074310302734375,-0.0965118408203125,-0.0674285888671875
1751013992240589000,7.839589111328125,-1.0024261474609375,-0.0947418212890625,-0.0676116943359375
1751013992250533000,7.849533203125,-0.9995880126953125,-0.0905914306640625,-0.0601959228515625
1751013992260477200,7.859477294921875,-0.999114990234375,-0.0896453857421875,-0.0552825927734375
1751013992270420000,7.869419921875,-0.9977264404296875,-0.08856201171875,-0.0527191162109375
1751013992280364000,7.879364013671875,-0.996368408203125,-0.0875091552734375,-0.0492095947265625
1751013992290308000,7.88930810546875,-0.9952392578125,-0.0890045166015625,-0.0486907958984375
1751013992300251000,7.8992509765625,-0.9958038330078125,-0.087921142578125,-0.047576904296875
1751013992310195000,7.90919482421875,-1.000335693359375,-0.087982177734375,-0.05206298828125
1751013992320139300,7.91913916015625,-1.0042724609375,-0.089202880859375,-0.0566253662109375
1751013992330083000,7.9290830078125,-1.0048370361328125,-0.090972900390625,-0.060302734375
1751013992340026000,7.939026123046875,-1.00872802734375,-0.0916748046875,-0.0609283447265625
1751013992349970200,7.94897021484375,-1.0115814208984375,-0.090789794921875,-0.061004638671875
1751013992359914000,7.9589140625,-1.0106964111328125,-0.0894317626953125,-0.062103271484375
1751013992369858000,7.968858154296875,-1.0059814453125,-0.0874481201171875,-0.0563812255859375
1751013992379801000,7.978801025390625,-1.0027008056640625,-0.085845947265625,-0.0519866943359375
1751013992389745000,7.988744873046875,-1.005523681640625,-0.091033935546875,-0.0562591552734375
1751013992399689000,7.99868896484375,-1.01263427734375,-0.097747802734375,-0.060821533203125
1751013992409632000,8.008632080078126,-1.010772705078125,-0.1051788330078125,-0.0611724853515625
1751013992419576000,8.018576171875,-1.0086212158203125,-0.107940673828125,-0.0561676025390625
1751013992429520100,8.02852001953125,-1.008087158203125,-0.1056365966796875,-0.051361083984375
1751013992439464200,8.038464111328125,-1.009033203125,-0.1024322509765625,-0.0459442138671875
1751013992449407000,8.048406982421875,-1.0124359130859375,-0.097869873046875,-0.043212890625
1751013992459351000,8.05835107421875,-1.0117950439453125,-0.0947113037109375,-0.04486083984375
1751013992469295000,8.068295166015625,-1.0114593505859375,-0.092620849609375,-0.04376220703125
1751013992479238100,8.078238037109376,-1.01171875,-0.0920562744140625,-0.0431671142578125
1751013992489182000,8.088181884765625,-1.014068603515625,-0.0911712646484375,-0.0445709228515625
1751013992499126000,8.0981259765625,-1.01373291015625,-0.0906524658203125,-0.0459136962890625
1751013992509070000,8.108070068359375,-1.019805908203125,-0.089324951171875,-0.046417236328125
1751013992519013000,8.11801318359375,-1.0261077880859375,-0.0892181396484375,-0.0478363037109375
1751013992528957200,8.127957275390624,-1.0268402099609375,-0.088897705078125,-0.048370361328125
1751013992538901000,8.13790087890625,-1.0226898193359375,-0.0875701904296875,-0.0471649169921875
1751013992548844000,8.147843994140626,-1.0191802978515625,-0.0830230712890625,-0.0452423095703125
1751013992558788000,8.1577880859375,-1.020172119140625,-0.081634521484375,-0.04437255859375
1751013992568732000,8.16773193359375,-1.0218963623046875,-0.0837860107421875,-0.046875
1751013992578676000,8.177676025390625,-1.0200042724609375,-0.088043212890625,-0.0503387451171875
1751013992588619000,8.187618896484375,-1.0154266357421875,-0.0896148681640625,-0.0472564697265625
1751013992598563000,8.19756298828125,-1.0152435302734375,-0.09063720703125,-0.0433197021484375
1751013992608507100,8.207507080078125,-1.012847900390625,-0.091888427734375,-0.0416717529296875
1751013992618451200,8.217451171875,-1.0081939697265625,-0.093780517578125,-0.043701171875
1751013992628394200,8.227394287109375,-1.0062103271484375,-0.0929718017578125,-0.043365478515625
1751013992638338000,8.237338134765626,-1.0044708251953125,-0.0921630859375,-0.0402374267578125
1751013992648282000,8.2472822265625,-1.0001678466796875,-0.0936737060546875,-0.039764404296875
1751013992658225200,8.25722509765625,-0.99786376953125,-0.0935516357421875,-0.03863525390625
1751013992668169000,8.2671689453125,-0.9984893798828125,-0.0908966064453125,-0.037109375
1751013992678113000,8.277113037109375,-0.9986419677734375,-0.0912017822265625,-0.0386810302734375
1751013992688057000,8.28705712890625,-0.9980010986328125,-0.0945892333984375,-0.039642333984375
1751013992698000000,8.296999755859375,-0.9974822998046875,-0.097900390625,-0.039703369140625
1751013992707944200,8.306944091796876,-0.995880126953125,-0.0995025634765625,-0.038818359375
1751013992717888000,8.316887939453125,-0.9961395263671875,-0.0996551513671875,-0.036346435546875
1751013992727832000,8.32683203125,-0.9986114501953125,-0.1002349853515625,-0.036285400390625
1751013992737775000,8.336775146484374,-1.003173828125,-0.100372314453125,-0.0361785888671875
1751013992747719200,8.34671923828125,-1.0070343017578125,-0.097198486328125,-0.0365753173828125
1751013992757663000,8.3566630859375,-1.0094146728515625,-0.0940704345703125,-0.040008544921875
1751013992767606000,8.36660595703125,-1.01129150390625,-0.09307861328125,-0.043792724609375
1751013992777550000,8.376550048828125,-1.0152740478515625,-0.0937042236328125,-0.050079345703125
1751013992787494100,8.386494140625,-1.0193328857421875,-0.094696044921875,-0.05535888671875
1751013992797438200,8.396438232421875,-1.021942138671875,-0.097625732421875,-0.0627899169921875
1751013992807381200,8.40638134765625,-1.02545166015625,-0.104034423828125,-0.069427490234375
1751013992817325000,8.416324951171875,-1.0299835205078125,-0.112640380859375,-0.069427490234375
1751013992827269000,8.42626904296875,-1.0291748046875,-0.1193084716796875,-0.0675506591796875
1751013992837212200,8.436212158203125,-1.02447509765625,-0.1201171875,-0.0654144287109375
1751013992847156000,8.446156005859375,-1.02099609375,-0.120025634765625,-0.0619354248046875
1751013992857100000,8.45610009765625,-1.018157958984375,-0.1225128173828125,-0.05694580078125
1751013992867044000,8.466044189453125,-1.01275634765625,-0.1264801025390625,-0.0536346435546875
1751013992876987000,8.47598681640625,-1.0072021484375,-0.128753662109375,-0.0499267578125
1751013992886935300,8.485935302734376,-1.0059814453125,-0.1284027099609375,-0.04595947265625
1751013992896879000,8.495879150390625,-1.0041656494140625,-0.1251068115234375,-0.0472259521484375
1751013992906822100,8.505822265625,-1.00677490234375,-0.1208343505859375,-0.046844482421875
1751013992916766200,8.51576611328125,-1.006927490234375,-0.113067626953125,-0.0352630615234375
1751013992926710000,8.5257099609375,-1.0024871826171875,-0.1151123046875,-0.039154052734375
1751013992936654000,8.535654052734374,-0.9994964599609375,-0.1122589111328125,-0.0424346923828125
1751013992946597000,8.54559716796875,-0.9980621337890625,-0.1035308837890625,-0.0420074462890625
1751013992956541200,8.555541259765626,-0.9940032958984375,-0.1020050048828125,-0.0393524169921875
1751013992966485200,8.5654853515625,-0.9924163818359375,-0.102996826171875,-0.0394287109375
1751013992976429300,8.57542919921875,-0.99224853515625,-0.1002960205078125,-0.037811279296875
1751013992986372400,8.585372314453124,-0.9904632568359375,-0.1006011962890625,-0.0368804931640625
1751013992996316200,8.595316162109375,-0.9888916015625,-0.1051177978515625,-0.0361785888671875
1751013993006260200,8.60526025390625,-0.98675537109375,-0.108642578125,-0.0370635986328125
1751013993016203300,8.615203369140625,-0.9894866943359375,-0.111907958984375,-0.0398101806640625
1751013993026147000,8.62514697265625,-0.9881591796875,-0.1147308349609375,-0.04205322265625
1751013993036091100,8.635091064453125,-0.98602294921875,-0.116363525390625,-0.040374755859375
1751013993046035200,8.64503515625,-0.986053466796875,-0.114166259765625,-0.0426483154296875
1751013993055978200,8.654978271484374,-0.98931884765625,-0.114288330078125,-0.041168212890625
1751013993065922300,8.66492236328125,-0.9864501953125,-0.1131591796875,-0.039794921875
1751013993075866000,8.6748662109375,-0.98388671875,-0.10906982421875,-0.0398406982421875
1751013993085809200,8.68480908203125,-0.9969940185546875,-0.10662841796875,-0.0438385009765625
1751013993095753200,8.694753173828126,-1.0064849853515625,-0.109161376953125,-0.0536651611328125
1751013993105697300,8.704697265625,-1.003753662109375,-0.1116180419921875,-0.0597381591796875
1751013993115641000,8.71464111328125,-1.0022125244140625,-0.1113739013671875,-0.0603485107421875
1751013993125584100,8.724584228515624,-1.005126953125,-0.1109466552734375,-0.0558929443359375
1751013993135528200,8.734528076171875,-1.004486083984375,-0.112640380859375,-0.05328369140625
1751013993145472300,8.74447216796875,-1.0030975341796875,-0.114776611328125,-0.05169677734375
1751013993155415300,8.754415283203125,-1.00439453125,-0.1148529052734375,-0.05108642578125
1751013993165359400,8.764359375,-1.004852294921875,-0.114593505859375,-0.052154541015625
1751013993175303200,8.77430322265625,-1.00439453125,-0.11566162109375,-0.054962158203125
1751013993185247200,8.784247314453125,-1.00531005859375,-0.1161346435546875,-0.05792236328125
1751013993195190300,8.794190185546874,-1.0053558349609375,-0.1185760498046875,-0.0599365234375
1751013993205134000,8.804134033203125,-1.004547119140625,-0.1216278076171875,-0.057769775390625
1751013993215078100,8.814078125,-1.0067138671875,-0.1208648681640625,-0.0585174560546875
1751013993225022000,8.82402197265625,-1.0110931396484375,-0.12139892578125,-0.0595245361328125
1751013993234965000,8.833965087890626,-1.0124969482421875,-0.122222900390625,-0.057464599609375
1751013993244909300,8.843909423828125,-1.014190673828125,-0.1234130859375,-0.0557861328125
1751013993254853400,8.853853271484375,-1.019683837890625,-0.12457275390625,-0.0613555908203125
1751013993264796200,8.863796142578124,-1.020416259765625,-0.123443603515625,-0.0658416748046875
1751013993274740200,8.873740234375,-1.0215911865234375,-0.12017822265625,-0.067474365234375
1751013993284684300,8.883684326171876,-1.0230560302734375,-0.1184844970703125,-0.068084716796875
1751013993294628000,8.893628173828125,-1.02166748046875,-0.117279052734375,-0.06573486328125
1751013993304571100,8.903571044921875,-1.020111083984375,-0.1156005859375,-0.064422607421875
1751013993314515200,8.91351513671875,-1.0222625732421875,-0.117218017578125,-0.064697265625
1751013993324459300,8.923459228515625,-1.02301025390625,-0.1190032958984375,-0.0635986328125
1751013993334402000,8.933402099609374,-1.0209197998046875,-0.118316650390625,-0.062042236328125
1751013993344346400,8.943346435546875,-1.0193939208984375,-0.1181640625,-0.0627593994140625
1751013993354290200,8.953290283203126,-1.01641845703125,-0.1178131103515625,-0.0637359619140625
1751013993364234200,8.963234130859375,-1.01397705078125,-0.11322021484375,-0.0621795654296875
1751013993374177300,8.97317724609375,-1.014129638671875,-0.112030029296875,-0.0596923828125
1751013993384121000,8.98312109375,-1.0135498046875,-0.112701416015625,-0.0622711181640625
1751013993394065200,8.993065185546875,-1.0119476318359375,-0.108856201171875,-0.0631866455078125
1751013993404008200,9.00300830078125,-1.0116119384765625,-0.103485107421875,-0.062896728515625
1751013993413952000,9.012951904296875,-1.011077880859375,-0.104736328125,-0.06378173828125
1751013993423896300,9.022896240234376,-1.0084381103515625,-0.107513427734375,-0.0627288818359375
1751013993433840400,9.03284033203125,-1.0038909912109375,-0.1103973388671875,-0.060943603515625
1751013993443783200,9.042783203125,-1.0043182373046875,-0.1117401123046875,-0.0589447021484375
1751013993453727200,9.052727294921874,-1.00640869140625,-0.1173553466796875,-0.059600830078125
1751013993463671300,9.06267138671875,-1.0067138671875,-0.1216888427734375,-0.0590362548828125
1751013993473614300,9.0726142578125,-1.005859375,-0.122894287109375,-0.0625
1751013993483558100,9.08255810546875,-1.0052490234375,-0.1199493408203125,-0.064483642578125
1751013993493502200,9.092502197265626,-1.006866455078125,-0.115997314453125,-0.06524658203125
1751013993503446000,9.102446044921875,-1.00897216796875,-0.1112213134765625,-0.0654144287109375
1751013993513389000,9.11238916015625,-1.0092315673828125,-0.1103515625,-0.0692596435546875
1751013993523333400,9.12233349609375,-1.006927490234375,-0.1089935302734375,-0.070037841796875
1751013993533277200,9.132277099609375,-1.0043487548828125,-0.108489990234375,-0.067962646484375
1751013993543221200,9.14222119140625,-0.99627685546875,-0.1107635498046875,-0.060943603515625
1751013993553164300,9.152164306640625,-0.9913330078125,-0.112762451171875,-0.0559844970703125
1751013993563108000,9.162108154296876,-0.9906463623046875,-0.1162109375,-0.057952880859375
1751013993573052200,9.17205224609375,-0.988800048828125,-0.120849609375,-0.057830810546875
1751013993582995200,9.1819951171875,-0.989593505859375,-0.1251068115234375,-0.0562286376953125
1751013993592939300,9.191939208984374,-0.997650146484375,-0.1251220703125,-0.0566558837890625
1751013993602883000,9.201883056640625,-1.005645751953125,-0.1257476806640625,-0.0624542236328125
1751013993612826000,9.211826171875,-1.010650634765625,-0.1235504150390625,-0.0685882568359375
1751013993622770400,9.2217705078125,-1.0101776123046875,-0.118560791015625,-0.0664520263671875
1751013993632714200,9.23171435546875,-1.0088958740234375,-0.11279296875,-0.0632171630859375
1751013993642658300,9.241658203125,-1.005645751953125,-0.10443115234375,-0.064208984375
1751013993652601300,9.251601318359375,-1.0038909912109375,-0.1005401611328125,-0.059967041015625
1751013993662545200,9.261545166015624,-1.0077972412109375,-0.10125732421875,-0.055206298828125
1751013993672489200,9.2714892578125,-1.0092315673828125,-0.1041259765625,-0.0552978515625
1751013993682433000,9.28143310546875,-1.0089111328125,-0.1064453125,-0.059173583984375
1751013993692376000,9.2913759765625,-1.0083160400390625,-0.1102142333984375,-0.0558929443359375
1751013993702320000,9.301320068359376,-1.0128631591796875,-0.1150970458984375,-0.0547027587890625
1751013993712264200,9.31126416015625,-1.014312744140625,-0.1149444580078125,-0.0578155517578125
1751013993722207200,9.321207275390625,-1.01220703125,-0.1113739013671875,-0.059539794921875
1751013993732151300,9.3311513671875,-1.0089874267578125,-0.10736083984375,-0.056640625
1751013993742095400,9.341095458984375,-1.0084228515625,-0.106201171875,-0.049468994140625
1751013993752039200,9.3510390625,-1.0076141357421875,-0.1055908203125,-0.0446929931640625
1751013993761982200,9.360982177734375,-1.0049285888671875,-0.1040191650390625,-0.04498291015625
1751013993771926300,9.37092626953125,-1.0051116943359375,-0.101531982421875,-0.046417236328125
1751013993781870000,9.3808701171875,-1.0088958740234375,-0.1038055419921875,-0.047332763671875
1751013993791813000,9.390813232421875,-1.007110595703125,-0.107635498046875,-0.048583984375
1751013993801757200,9.400757080078124,-1.009063720703125,-0.105712890625,-0.045501708984375
1751013993811701200,9.410701171875,-1.012451171875,-0.107757568359375,-0.04766845703125
1751013993821645300,9.420645263671876,-1.0175018310546875,-0.1085205078125,-0.0520782470703125
1751013993831588400,9.43058837890625,-1.0169830322265625,-0.1056060791015625,-0.0551910400390625
1751013993841532200,9.4405322265625,-1.0157470703125,-0.10296630859375,-0.0531768798828125
1751013993851476200,9.450476318359375,-1.01873779296875,-0.0969390869140625,-0.0450592041015625
1751013993861419300,9.460419189453125,-1.022857666015625,-0.0862884521484375,-0.034393310546875
1751013993871363000,9.470363037109376,-1.0113983154296875,-0.0797882080078125,-0.0280914306640625
1751013993881307100,9.48030712890625,-0.9951324462890625,-0.0806732177734375,-0.030059814453125
1751013993891247000,9.4902470703125,-0.98297119140625,-0.0946807861328125,-0.043243408203125
1751013993901190100,9.500190185546876,-0.9925689697265625,-0.113922119140625,-0.05999755859375
1751013993911134000,9.510134033203125,-1.0252227783203125,-0.118927001953125,-0.0657196044921875
1751013993921078000,9.520078125,-1.0378875732421875,-0.1188507080078125,-0.062591552734375
1751013993931021000,9.53002099609375,-1.0141448974609375,-0.1175689697265625,-0.0573883056640625
1751013993940964900,9.53996484375,-0.9908294677734375,-0.1170654296875,-0.0577239990234375
1751013993950909000,9.549908935546876,-0.9920501708984375,-0.1214599609375,-0.0574188232421875
1751013993960852700,9.559852783203125,-1.003692626953125,-0.1204833984375,-0.0659637451171875
1751013993970795800,9.569795654296875,-1.01214599609375,-0.1094512939453125,-0.06378173828125
1751013993980739800,9.57973974609375,-1.0064239501953125,-0.1105194091796875,-0.0599517822265625
1751013993990684200,9.58968408203125,-0.9995880126953125,-0.121856689453125,-0.0544281005859375
1751013994000627000,9.599626953125,-0.99822998046875,-0.1259765625,-0.0542449951171875
1751013994010571000,9.609571044921875,-1.0003814697265625,-0.1218109130859375,-0.053955078125
1751013994020515000,9.61951513671875,-1.0001068115234375,-0.1192779541015625,-0.0487518310546875
1751013994030459000,9.629458984375,-0.995758056640625,-0.1196746826171875,-0.045654296875
1751013994040402000,9.63940185546875,-0.9922332763671875,-0.1219482421875,-0.0455474853515625
1751013994050346000,9.649345947265624,-0.9964752197265625,-0.1228485107421875,-0.04913330078125
1751013994060289800,9.659289794921875,-1.0012969970703125,-0.1230621337890625,-0.0555419921875
1751013994070232800,9.66923291015625,-1.0032196044921875,-0.1248779296875,-0.0545654296875
1751013994080177000,9.679177001953125,-0.9991607666015625,-0.12713623046875,-0.051422119140625
1751013994090121000,9.689120849609376,-0.993133544921875,-0.1213226318359375,-0.043975830078125
1751013994100064000,9.69906396484375,-0.9925079345703125,-0.114410400390625,-0.041259765625
1751013994110008000,9.709008056640625,-0.9956207275390625,-0.110382080078125,-0.039154052734375
1751013994119952000,9.718951904296874,-0.99822998046875,-0.10943603515625,-0.03619384765625
1751013994129896000,9.72889599609375,-0.99664306640625,-0.1097564697265625,-0.0403594970703125
1751013994139839000,9.7388388671875,-1.001190185546875,-0.1098175048828125,-0.0417633056640625
1751013994149782800,9.74878271484375,-1.0072174072265625,-0.1147613525390625,-0.046539306640625
1751013994159726800,9.758726806640626,-1.010040283203125,-0.120025634765625,-0.0495147705078125
1751013994169670000,9.768669921875,-1.0148468017578125,-0.120758056640625,-0.05303955078125
1751013994179614000,9.778614013671875,-1.0155029296875,-0.1216583251953125,-0.0576171875
1751013994189558000,9.78855810546875,-1.019317626953125,-0.121002197265625,-0.0611419677734375
1751013994199502000,9.798502197265625,-1.02239990234375,-0.11761474609375,-0.0637969970703125
1751013994209445000,9.808445068359376,-1.0208587646484375,-0.1142730712890625,-0.064361572265625
1751013994219389000,9.818388916015625,-1.01483154296875,-0.11309814453125,-0.0624542236328125
1751013994229333000,9.8283330078125,-1.009246826171875,-0.1147308349609375,-0.061248779296875
1751013994239276000,9.838276123046874,-1.011383056640625,-0.1131439208984375,-0.0584259033203125
1751013994249219800,9.8482197265625,-1.015167236328125,-0.1091156005859375,-0.0541534423828125
1751013994259164000,9.858163818359374,-1.010498046875,-0.1094512939453125,-0.0515899658203125
1751013994269108000,9.86810791015625,-1.0051422119140625,-0.1126251220703125,-0.049346923828125
1751013994279050800,9.87805078125,-1.005859375,-0.1158294677734375,-0.0504608154296875
1751013994288995000,9.8879951171875,-1.0099334716796875,-0.1194305419921875,-0.056182861328125
1751013994298939000,9.89793896484375,-1.013946533203125,-0.122100830078125,-0.05718994140625
1751013994308882000,9.9078818359375,-1.0148162841796875,-0.126953125,-0.0576934814453125
1751013994318826000,9.917825927734375,-1.00701904296875,-0.1276397705078125,-0.0572357177734375
1751013994328770000,9.92777001953125,-1.0061492919921875,-0.1186065673828125,-0.0582275390625
1751013994338713900,9.9377138671875,-1.007049560546875,-0.113800048828125,-0.0608062744140625
1751013994348657000,9.947656982421876,-1.00665283203125,-0.112060546875,-0.0637359619140625
1751013994358601000,9.95760107421875,-1.0034332275390625,-0.1115264892578125,-0.065521240234375
1751013994368545000,9.967544921875,-0.9998321533203125,-0.1131744384765625,-0.0611114501953125
1751013994378488000,9.977488037109374,-0.9972381591796875,-0.1174468994140625,-0.056732177734375
1751013994388432100,9.98743212890625,-0.9943389892578125,-0.12066650390625,-0.055206298828125
1751013994398376000,9.9973759765625,-0.9901885986328125,-0.120697021484375,-0.05096435546875
1751013994408319000,10.007319091796875,-0.9888763427734375,-0.1203155517578125,-0.0494232177734375
1751013994418263000,10.017262939453126,-0.9884796142578125,-0.1154327392578125,-0.0483245849609375
1751013994428206800,10.027206787109375,-0.9943389892578125,-0.1095733642578125,-0.0497589111328125
1751013994438151000,10.03715087890625,-1.0027313232421875,-0.107177734375,-0.05718994140625
1751013994448094000,10.047093994140624,-1.0095672607421875,-0.10626220703125,-0.069091796875
1751013994458037800,10.057037841796875,-1.0084075927734375,-0.1087646484375,-0.073028564453125
1751013994467982000,10.066982177734374,-1.0048828125,-0.1127777099609375,-0.0639190673828125
1751013994477925000,10.076925048828125,-1.00592041015625,-0.1168365478515625,-0.0464630126953125
1751013994487869000,10.086868896484376,-1.0125579833984375,-0.1164093017578125,-0.0355987548828125
1751013994497813000,10.09681298828125,-1.0184173583984375,-0.109771728515625,-0.029632568359375
1751013994507757000,10.106757080078125,-1.0146942138671875,-0.10369873046875,-0.0283966064453125
1751013994517699800,10.116699951171874,-1.0126800537109375,-0.099700927734375,-0.0263214111328125
1751013994527644000,10.126643798828125,-1.0127410888671875,-0.099639892578125,-0.0302276611328125
1751013994537588000,10.136587890625,-1.0108795166015625,-0.1011199951171875,-0.037994384765625
1751013994547531000,10.146531005859375,-1.0096282958984375,-0.102935791015625,-0.046478271484375
1751013994557474800,10.156474853515626,-1.00872802734375,-0.1065521240234375,-0.0547332763671875
1751013994567419100,10.166419189453125,-1.0045928955078125,-0.104095458984375,-0.0512847900390625
1751013994577363000,10.176363037109375,-0.9980926513671875,-0.1009368896484375,-0.0414276123046875
1751013994587306000,10.186305908203124,-0.9940185546875,-0.1023101806640625,-0.0392913818359375
1751013994597250000,10.19625,-0.992034912109375,-0.104339599609375,-0.04302978515625
1751013994607193900,10.20619384765625,-0.992462158203125,-0.1051788330078125,-0.050323486328125
1751013994617137000,10.216136962890625,-0.9959259033203125,-0.103729248046875,-0.0538482666015625
1751013994627081000,10.2260810546875,-1.000091552734375,-0.1038360595703125,-0.0593414306640625
1751013994637024800,10.236024658203124,-0.963287353515625,-0.109588623046875,-0.0608367919921875
1751013994646968800,10.24596875,-0.916351318359375,-0.1067657470703125,-0.0391845703125
1751013994656912000,10.255911865234374,-1.0375518798828125,-0.097442626953125,-0.0184326171875
1751013994666856000,10.26585595703125,-1.060699462890625,-0.0918121337890625,-0.04779052734375
1751013994676800000,10.275800048828126,-0.9850921630859375,-0.0919342041015625,-0.083465576171875
1751013994686743000,10.285742919921875,-0.9998016357421875,-0.09710693359375,-0.0720672607421875
1751013994696687000,10.29568701171875,-1.0270843505859375,-0.0977935791015625,-0.0631561279296875
1751013994706631000,10.305630859375,-1.012176513671875,-0.099517822265625,-0.0742034912109375
1751013994716574000,10.315573974609375,-1.00164794921875,-0.0981292724609375,-0.0684051513671875
1751013994726518000,10.32551806640625,-1.0039215087890625,-0.0997314453125,-0.0507659912109375
1751013994736461800,10.3354619140625,-1.0115203857421875,-0.10107421875,-0.0409698486328125
1751013994746406000,10.345406005859376,-1.0168304443359375,-0.1001129150390625,-0.040313720703125
1751013994756349000,10.355348876953125,-1.0104827880859375,-0.0977783203125,-0.04315185546875
1751013994766293000,10.36529296875,-1.0074005126953125,-0.0968780517578125,-0.03851318359375
1751013994776237000,10.375237060546874,-1.0081634521484375,-0.09368896484375,-0.02496337890625
1751013994786180000,10.38518017578125,-1.0048675537109375,-0.0863189697265625,-0.0071258544921875
