time,seconds_elapsed,z,y,x
1751013665071535600,0.12253564453125,-1.0050048828125,-0.247528076171875,0.0443267822265625
1751013665081479400,0.1324794921875,-1.0048828125,-0.2446441650390625,0.0472412109375
1751013665091422500,0.14242236328125,-1.0003204345703125,-0.2457122802734375,0.047393798828125
1751013665101365500,0.152365478515625,-0.9926300048828125,-0.248077392578125,0.043243408203125
1751013665111309600,0.1623095703125,-0.9881134033203125,-0.2502899169921875,0.0413970947265625
1751013665121252600,0.172252685546875,-0.990875244140625,-0.2520904541015625,0.0364532470703125
1751013665131196700,0.18219677734375,-0.9910430908203125,-0.2543182373046875,0.0314178466796875
1751013665141139700,0.1921396484375,-0.989471435546875,-0.2523040771484375,0.029876708984375
1751013665151083800,0.202083740234375,-0.9925079345703125,-0.249359130859375,0.02862548828125
1751013665161026800,0.21202685546875,-0.985931396484375,-0.2524261474609375,0.02886962890625
1751013665170969600,0.221969482421875,-0.97967529296875,-0.254669189453125,0.0288238525390625
1751013665180913700,0.23191357421875,-0.9766693115234375,-0.2554779052734375,0.02728271484375
1751013665190856700,0.241856689453125,-0.9735870361328125,-0.256072998046875,0.0261688232421875
1751013665200800800,0.25180078125,-0.969451904296875,-0.25787353515625,0.0251617431640625
1751013665210743600,0.26174365234375,-0.969940185546875,-0.2564697265625,0.025848388671875
1751013665220686600,0.2716865234375,-0.9738616943359375,-0.255462646484375,0.0297698974609375
1751013665230630700,0.281630615234375,-0.9745941162109375,-0.25653076171875,0.033355712890625
1751013665240573700,0.29157373046875,-0.9771728515625,-0.2590179443359375,0.037689208984375
1751013665250517500,0.301517578125,-0.978057861328125,-0.2612457275390625,0.04095458984375
1751013665260460500,0.31146044921875,-0.9810028076171875,-0.26385498046875,0.040802001953125
1751013665270404600,0.321404541015625,-0.982757568359375,-0.263427734375,0.044342041015625
1751013665280347600,0.33134765625,-0.980560302734375,-0.263336181640625,0.04486083984375
1751013665290290700,0.341290771484375,-0.9751129150390625,-0.263671875,0.042633056640625
1751013665300234500,0.351234375,-0.970703125,-0.2635345458984375,0.03875732421875
1751013665310177500,0.361177490234375,-0.974090576171875,-0.2644805908203125,0.03704833984375
1751013665320121600,0.37112158203125,-0.975006103515625,-0.2651824951171875,0.03619384765625
1751013665330064600,0.381064697265625,-0.980712890625,-0.2666015625,0.0363922119140625
1751013665340008700,0.3910087890625,-0.9856719970703125,-0.2686767578125,0.0356903076171875
1751013665349951700,0.40095166015625,-0.98553466796875,-0.2696685791015625,0.0360870361328125
1751013665359894800,0.410894775390625,-0.9846954345703125,-0.268218994140625,0.038665771484375
1751013665369838600,0.420838623046875,-0.98443603515625,-0.2663421630859375,0.0362548828125
1751013665379781600,0.43078173828125,-0.9845428466796875,-0.2664031982421875,0.034088134765625
1751013665389725700,0.4407255859375,-0.9808807373046875,-0.2653045654296875,0.033966064453125
1751013665399668700,0.450668701171875,-0.984130859375,-0.2615966796875,0.035186767578125
1751013665409611800,0.46061181640625,-0.9866943359375,-0.2633056640625,0.0305023193359375
1751013665419555600,0.4705556640625,-0.9808349609375,-0.2660369873046875,0.0269622802734375
1751013665429498600,0.48049853515625,-0.975372314453125,-0.2667083740234375,0.0258331298828125
1751013665439442700,0.490442626953125,-0.9762420654296875,-0.2682037353515625,0.022491455078125
1751013665449385700,0.5003857421875,-0.9810333251953125,-0.2705841064453125,0.0205535888671875
1751013665459329500,0.51032958984375,-0.9790802001953125,-0.2735443115234375,0.0174713134765625
1751013665469272600,0.5202724609375,-0.9712982177734375,-0.27606201171875,0.0140380859375
1751013665479215600,0.530215576171875,-0.971832275390625,-0.2771759033203125,0.0143890380859375
1751013665489159700,0.54015966796875,-0.9753570556640625,-0.2803802490234375,0.0152435302734375
1751013665499102700,0.550102783203125,-0.9733123779296875,-0.2847747802734375,0.0165863037109375
1751013665509046500,0.560046630859375,-0.972381591796875,-0.2839202880859375,0.0190582275390625
1751013665518989600,0.569989501953125,-0.978424072265625,-0.2796630859375,0.0234375
1751013665528932600,0.5799326171875,-0.9764556884765625,-0.278533935546875,0.0225067138671875
1751013665538876400,0.58987646484375,-0.968994140625,-0.275390625,0.0194244384765625
1751013665548819500,0.5998193359375,-0.9665985107421875,-0.2730712890625,0.0181121826171875
1751013665558763800,0.609763671875,-0.97021484375,-0.2722930908203125,0.0205841064453125
1751013665568705800,0.619705810546875,-0.974029541015625,-0.27496337890625,0.0206451416015625
1751013665578650000,0.629650146484375,-0.979248046875,-0.2769317626953125,0.0197296142578125
1751013665588593000,0.639593017578125,-0.9798431396484375,-0.27728271484375,0.0182952880859375
1751013665598535700,0.64953564453125,-0.983551025390625,-0.277557373046875,0.0152130126953125
1751013665608480000,0.65947998046875,-0.989044189453125,-0.276702880859375,0.014007568359375
1751013665618423000,0.669423095703125,-0.981231689453125,-0.276611328125,0.0188446044921875
1751013665628366800,0.679366943359375,-0.97711181640625,-0.2736968994140625,0.0255889892578125
1751013665638310000,0.689309814453125,-0.98040771484375,-0.2728424072265625,0.0282745361328125
1751013665648253000,0.6992529296875,-0.977203369140625,-0.275787353515625,0.0290069580078125
1751013665658197000,0.709197021484375,-0.976837158203125,-0.2760772705078125,0.026947021484375
1751013665668140000,0.71914013671875,-0.9778900146484375,-0.2725067138671875,0.0254974365234375
1751013665678083800,0.729083740234375,-0.9751434326171875,-0.27197265625,0.0263824462890625
1751013665688027000,0.73902685546875,-0.973297119140625,-0.2719573974609375,0.0254974365234375
1751013665697971000,0.748970947265625,-0.9752960205078125,-0.27032470703125,0.0252838134765625
1751013665707914000,0.7589140625,-0.9789886474609375,-0.269866943359375,0.0230865478515625
1751013665717856800,0.768856689453125,-0.9778594970703125,-0.2739105224609375,0.019073486328125
1751013665727800800,0.77880078125,-0.976898193359375,-0.2716827392578125,0.0154266357421875
1751013665737744000,0.788743896484375,-0.9774322509765625,-0.2721099853515625,0.0149078369140625
1751013665747688000,0.79868798828125,-0.9770050048828125,-0.2726898193359375,0.0178070068359375
1751013665757630700,0.808630615234375,-0.9768829345703125,-0.27154541015625,0.0179443359375
1751013665767573800,0.81857373046875,-0.9749298095703125,-0.27215576171875,0.016021728515625
1751013665777517800,0.828517822265625,-0.970245361328125,-0.276031494140625,0.0159759521484375
1751013665787460900,0.8384609375,-0.9644012451171875,-0.2760162353515625,0.01715087890625
1751013665797405000,0.848405029296875,-0.9660797119140625,-0.2751007080078125,0.0154266357421875
1751013665807347700,0.85834765625,-0.962860107421875,-0.279388427734375,0.01409912109375
1751013665817292000,0.8682919921875,-0.96160888671875,-0.28076171875,0.0187530517578125
1751013665827235000,0.878235107421875,-0.9690399169921875,-0.279815673828125,0.0267333984375
1751013665837178000,0.88817822265625,-0.97113037109375,-0.2804107666015625,0.0312652587890625
1751013665847122000,0.898121826171875,-0.976593017578125,-0.278533935546875,0.0302734375
1751013665857065000,0.90806494140625,-0.9780120849609375,-0.27716064453125,0.0281982421875
1751013665867009000,0.918009033203125,-0.9774169921875,-0.2787933349609375,0.0261383056640625
1751013665876951800,0.927951904296875,-0.973968505859375,-0.2822113037109375,0.0237274169921875
1751013665886894800,0.937894775390625,-0.9766693115234375,-0.2821044921875,0.022735595703125
1751013665896839000,0.9478388671875,-0.979034423828125,-0.2821807861328125,0.022216796875
1751013665906782000,0.957781982421875,-0.9759674072265625,-0.28265380859375,0.025970458984375
1751013665916725800,0.967725830078125,-0.97454833984375,-0.2818603515625,0.0292510986328125
1751013665926668800,0.977668701171875,-0.976348876953125,-0.279815673828125,0.032958984375
1751013665936612900,0.98761279296875,-0.97821044921875,-0.280303955078125,0.0348052978515625
1751013665946556000,0.997555908203125,-0.9796600341796875,-0.2814483642578125,0.0353851318359375
1751013665956499000,1.0074990234375,-0.980377197265625,-0.279876708984375,0.0340576171875
1751013665966442800,1.01744287109375,-0.9813995361328125,-0.2787017822265625,0.032257080078125
1751013665976385800,1.0273857421875,-0.9835205078125,-0.2790374755859375,0.0322418212890625
1751013665986329900,1.037329833984375,-0.983673095703125,-0.2786865234375,0.02886962890625
1751013665996273000,1.04727294921875,-0.981353759765625,-0.2771148681640625,0.0273895263671875
1751013666006217000,1.057217041015625,-0.9792633056640625,-0.277862548828125,0.0297698974609375
1751013666016159700,1.06715966796875,-0.977081298828125,-0.28082275390625,0.031890869140625
1751013666026102800,1.077102783203125,-0.976165771484375,-0.28228759765625,0.0329132080078125
1751013666036047000,1.087047119140625,-0.9717559814453125,-0.28192138671875,0.0317840576171875
1751013666045990000,1.096989990234375,-0.9681396484375,-0.2837371826171875,0.029083251953125
1751013666055934000,1.106933837890625,-0.967864990234375,-0.2846527099609375,0.027557373046875
1751013666065877000,1.116876953125,-0.96563720703125,-0.286407470703125,0.026702880859375
1751013666075820000,1.126820068359375,-0.9617919921875,-0.2866668701171875,0.0251312255859375
1751013666085763800,1.136763916015625,-0.9650115966796875,-0.28631591796875,0.0245208740234375
1751013666095707000,1.146706787109375,-0.96685791015625,-0.287078857421875,0.0251922607421875
1751013666105651000,1.15665087890625,-0.9630279541015625,-0.2895965576171875,0.0280609130859375
1751013666115594000,1.166593994140625,-0.95843505859375,-0.287872314453125,0.0299224853515625
1751013666125537800,1.176537841796875,-0.9584197998046875,-0.2864532470703125,0.031707763671875
1751013666135480800,1.186480712890625,-0.9538116455078125,-0.2881622314453125,0.0301666259765625
1751013666145424000,1.196423828125,-0.95263671875,-0.29071044921875,0.0288543701171875
1751013666155368000,1.206367919921875,-0.9569854736328125,-0.2913970947265625,0.0294342041015625
1751013666165311000,1.21631103515625,-0.9583740234375,-0.29205322265625,0.0311737060546875
1751013666175254800,1.2262548828125,-0.9586334228515625,-0.2910614013671875,0.0269317626953125
1751013666185197800,1.23619775390625,-0.965087890625,-0.288116455078125,0.026336669921875
1751013666195140900,1.246140869140625,-0.9690399169921875,-0.2872161865234375,0.0275726318359375
1751013666205085000,1.2560849609375,-0.9696502685546875,-0.283935546875,0.0287933349609375
1751013666215027700,1.26602783203125,-0.9694366455078125,-0.28228759765625,0.02935791015625
1751013666224972000,1.275971923828125,-0.9731292724609375,-0.2815093994140625,0.0272369384765625
1751013666234914800,1.285914794921875,-0.975311279296875,-0.2801971435546875,0.02789306640625
1751013666244859000,1.29585888671875,-0.9748077392578125,-0.2779083251953125,0.0283660888671875
1751013666254802000,1.305802001953125,-0.9805450439453125,-0.2760162353515625,0.031097412109375
1751013666264745000,1.315744873046875,-0.982269287109375,-0.277862548828125,0.0331268310546875
1751013666274689000,1.32568896484375,-0.980224609375,-0.280609130859375,0.032470703125
1751013666284632000,1.335632080078125,-0.9810791015625,-0.27984619140625,0.032562255859375
1751013666294575900,1.345575927734375,-0.9778594970703125,-0.2850189208984375,0.033447265625
1751013666304519000,1.355518798828125,-0.9721832275390625,-0.2881317138671875,0.033111572265625
1751013666314462000,1.3654619140625,-0.970062255859375,-0.2871856689453125,0.0322723388671875
1751013666324406000,1.375406005859375,-0.968902587890625,-0.28826904296875,0.0291595458984375
1751013666334348800,1.385348876953125,-0.96783447265625,-0.2883453369140625,0.027862548828125
1751013666344292900,1.39529296875,-0.9676361083984375,-0.2900543212890625,0.028656005859375
1751013666354236000,1.40523583984375,-0.9702606201171875,-0.290802001953125,0.0318450927734375
1751013666364180000,1.415179931640625,-0.9711761474609375,-0.290740966796875,0.0298919677734375
1751013666374122800,1.425122802734375,-0.9716033935546875,-0.2894744873046875,0.027923583984375
1751013666384065800,1.435065673828125,-0.97491455078125,-0.2889556884765625,0.02935791015625
1751013666394009900,1.445009765625,-0.9781646728515625,-0.28729248046875,0.030670166015625
1751013666403953000,1.454952880859375,-0.978179931640625,-0.2847137451171875,0.0299072265625
1751013666413896700,1.464896728515625,-0.9830322265625,-0.2818145751953125,0.0289459228515625
1751013666423839700,1.47483984375,-0.9813690185546875,-0.282958984375,0.0271148681640625
1751013666433784000,1.4847841796875,-0.977935791015625,-0.2863922119140625,0.0267181396484375
1751013666443726800,1.494726806640625,-0.9760284423828125,-0.2861785888671875,0.0268402099609375
1751013666453670000,1.504669921875,-0.9692840576171875,-0.2862548828125,0.0251007080078125
1751013666463614000,1.514614013671875,-0.9632110595703125,-0.2866973876953125,0.021270751953125
1751013666473557000,1.524556884765625,-0.9629669189453125,-0.29010009765625,0.021240234375
1751013666483501000,1.5345009765625,-0.96649169921875,-0.291046142578125,0.02374267578125
1751013666493443800,1.54444384765625,-0.9710845947265625,-0.2902984619140625,0.0263824462890625
1751013666503387000,1.554386962890625,-0.9728546142578125,-0.290618896484375,0.0287933349609375
1751013666513331000,1.5643310546875,-0.973480224609375,-0.290191650390625,0.0316314697265625
1751013666523274000,1.57427392578125,-0.97686767578125,-0.290008544921875,0.033111572265625
1751013666533217800,1.5842177734375,-0.980682373046875,-0.288909912109375,0.032562255859375
1751013666543160800,1.594160888671875,-0.9823150634765625,-0.285980224609375,0.0308380126953125
1751013666553105000,1.60410498046875,-0.9848175048828125,-0.28680419921875,0.0292816162109375
1751013666563048000,1.6140478515625,-0.9856414794921875,-0.2868499755859375,0.030364990234375
1751013666572991000,1.623990966796875,-0.98504638671875,-0.2826995849609375,0.03070068359375
1751013666582934800,1.633934814453125,-0.9779205322265625,-0.281829833984375,0.0289154052734375
1751013666592877800,1.6438779296875,-0.97119140625,-0.2826080322265625,0.026092529296875
1751013666602822000,1.65382177734375,-0.96923828125,-0.285797119140625,0.0232391357421875
1751013666612765000,1.663764892578125,-0.96490478515625,-0.28900146484375,0.0228424072265625
1751013666622708000,1.6737080078125,-0.962799072265625,-0.2886962890625,0.0192413330078125
1751013666632651800,1.68365185546875,-0.9594573974609375,-0.289825439453125,0.0181121826171875
1751013666642594800,1.6935947265625,-0.95745849609375,-0.292633056640625,0.0154571533203125
1751013666652539000,1.703538818359375,-0.9583282470703125,-0.291351318359375,0.019622802734375
1751013666662481700,1.713481689453125,-0.9591217041015625,-0.2878265380859375,0.0263671875
1751013666672426000,1.723426025390625,-0.9640655517578125,-0.2887115478515625,0.0241851806640625
1751013666682369000,1.733369140625,-0.964202880859375,-0.288482666015625,0.019378662109375
1751013666692312000,1.74331201171875,-0.96142578125,-0.2855072021484375,0.0207061767578125
1751013666702255900,1.753255859375,-0.9644622802734375,-0.2841949462890625,0.0248565673828125
1751013666712199000,1.763198974609375,-0.9651641845703125,-0.2864837646484375,0.0286712646484375
1751013666722143000,1.77314306640625,-0.96624755859375,-0.2860565185546875,0.029571533203125
1751013666732086000,1.7830859375,-0.97283935546875,-0.283966064453125,0.0282135009765625
1751013666742029000,1.793029052734375,-0.9777679443359375,-0.2871856689453125,0.03070068359375
1751013666751972900,1.802972900390625,-0.977020263671875,-0.2899169921875,0.0330047607421875
1751013666761916000,1.812916015625,-0.9770660400390625,-0.287811279296875,0.0340423583984375
1751013666771860000,1.82285986328125,-0.9770355224609375,-0.2876739501953125,0.0331573486328125
1751013666781803000,1.832802978515625,-0.97802734375,-0.288177490234375,0.0291900634765625
1751013666791746800,1.842746826171875,-0.9770965576171875,-0.2870330810546875,0.0272979736328125
1751013666801689900,1.85268994140625,-0.9724578857421875,-0.2890625,0.0275726318359375
1751013666811633000,1.8626328125,-0.9657440185546875,-0.2900238037109375,0.027679443359375
1751013666821577000,1.872576904296875,-0.96246337890625,-0.2916107177734375,0.027069091796875
1751013666831519700,1.882519775390625,-0.9608917236328125,-0.29364013671875,0.0262298583984375
1751013666841463800,1.8924638671875,-0.9651336669921875,-0.2949066162109375,0.0282440185546875
1751013666851406800,1.90240673828125,-0.9720306396484375,-0.293701171875,0.0274658203125
1751013666861350000,1.912349853515625,-0.9757537841796875,-0.2931671142578125,0.0255279541015625
1751013666871293700,1.922293701171875,-0.9783935546875,-0.2924957275390625,0.026885986328125
1751013666881236700,1.93223681640625,-0.97784423828125,-0.2919769287109375,0.030303955078125
1751013666891181000,1.94218115234375,-0.9759979248046875,-0.290985107421875,0.031982421875
1751013666901124000,1.9521240234375,-0.973602294921875,-0.2897796630859375,0.0301361083984375
1751013666911068000,1.96206787109375,-0.9703826904296875,-0.2912750244140625,0.027496337890625
1751013666921011000,1.972010986328125,-0.972198486328125,-0.2939910888671875,0.0221099853515625
1751013666930954000,1.9819541015625,-0.97235107421875,-0.2952117919921875,0.0161895751953125
1751013666940898000,1.99189794921875,-0.966796875,-0.2971649169921875,0.0157318115234375
1751013666950840800,2.0018408203125,-0.965118408203125,-0.296966552734375,0.016845703125
1751013666960785000,2.011784912109375,-0.968292236328125,-0.2962799072265625,0.016998291015625
1751013666970728000,2.02172802734375,-0.9747467041015625,-0.2965545654296875,0.0143280029296875
1751013666980671000,2.0316708984375,-0.9766693115234375,-0.2947998046875,0.017608642578125
1751013666990614800,2.04161474609375,-0.97161865234375,-0.2886810302734375,0.02655029296875
1751013667000557800,2.051557861328125,-0.96478271484375,-0.2838592529296875,0.03350830078125
1751013667010502000,2.061501953125,-0.9675140380859375,-0.283935546875,0.049652099609375
1751013667020445000,2.07144482421875,-0.9671173095703125,-0.2872772216796875,0.0510406494140625
1751013667030388700,2.081388671875,-0.953155517578125,-0.2871246337890625,0.041259765625
1751013667040331800,2.091331787109375,-0.9414215087890625,-0.2877655029296875,0.0333404541015625
1751013667050274800,2.10127490234375,-0.9364471435546875,-0.288726806640625,0.0371856689453125
1751013667060219000,2.111218994140625,-0.9433746337890625,-0.295867919921875,0.038330078125
1751013667070162000,2.121161865234375,-0.930023193359375,-0.315216064453125,0.029022216796875
1751013667080105700,2.131105712890625,-0.9197235107421875,-0.3210601806640625,0.011322021484375
1751013667090048800,2.141048828125,-0.92742919921875,-0.334869384765625,-0.0079803466796875
1751013667099993000,2.1509931640625,-0.9405975341796875,-0.343231201171875,-0.0290679931640625
1751013667109935900,2.160935791015625,-0.960601806640625,-0.3367919921875,-0.0343475341796875
1751013667119879000,2.17087890625,-0.973419189453125,-0.31988525390625,-0.0279541015625
1751013667129823000,2.180822998046875,-0.9666748046875,-0.303680419921875,-0.015960693359375
1751013667139766000,2.19076611328125,-0.97454833984375,-0.2929840087890625,-0.0056304931640625
1751013667149709800,2.200709716796875,-0.98175048828125,-0.2812042236328125,0.0029296875
1751013667159652900,2.21065283203125,-0.9817657470703125,-0.2758636474609375,0.00634765625
1751013667169596000,2.220595947265625,-0.98028564453125,-0.27001953125,0.0127105712890625
1751013667179540000,2.2305400390625,-0.9867401123046875,-0.2606964111328125,0.0234222412109375
1751013667189483000,2.24048291015625,-0.992034912109375,-0.2532958984375,0.0322113037109375
1751013667199426800,2.2504267578125,-0.997406005859375,-0.247650146484375,0.0394439697265625
1751013667209369900,2.260369873046875,-1.0031280517578125,-0.2441864013671875,0.04345703125
1751013667219313000,2.27031298828125,-1.0062713623046875,-0.2435150146484375,0.0481719970703125
1751013667229257000,2.280257080078125,-1.0042266845703125,-0.2479095458984375,0.055206298828125
1751013667239200000,2.290199951171875,-1.0029296875,-0.2529144287109375,0.065032958984375
1751013667249143800,2.300143798828125,-0.9998931884765625,-0.258209228515625,0.0681915283203125
1751013667259086800,2.3100869140625,-0.9983673095703125,-0.2620849609375,0.0678863525390625
1751013667269031000,2.320031005859375,-0.9951629638671875,-0.262481689453125,0.07037353515625
1751013667278973700,2.3299736328125,-0.9887237548828125,-0.2643890380859375,0.071533203125
1751013667288916700,2.339916748046875,-0.98040771484375,-0.2682952880859375,0.0724639892578125
1751013667298860800,2.34986083984375,-0.972808837890625,-0.271453857421875,0.072296142578125
1751013667308803800,2.359803955078125,-0.9702606201171875,-0.2723541259765625,0.07647705078125
1751013667318748000,2.369747802734375,-0.9717864990234375,-0.2776336669921875,0.083587646484375
1751013667328691000,2.37969091796875,-0.9687957763671875,-0.281463623046875,0.08709716796875
1751013667338635000,2.389635009765625,-0.9609375,-0.2841644287109375,0.0873260498046875
1751013667348578000,2.399578125,-0.955963134765625,-0.28375244140625,0.08551025390625
1751013667358521000,2.40952099609375,-0.9586181640625,-0.282989501953125,0.0832977294921875
1751013667368465000,2.41946484375,-0.9644622802734375,-0.2808837890625,0.08160400390625
1751013667378408000,2.429407958984375,-0.9716949462890625,-0.2760162353515625,0.076080322265625
1751013667388352000,2.43935205078125,-0.97955322265625,-0.2728271484375,0.0668487548828125
1751013667398295000,2.449294921875,-0.9808502197265625,-0.2736358642578125,0.056182861328125
1751013667408237800,2.45923779296875,-0.97247314453125,-0.27215576171875,0.048736572265625
1751013667418182000,2.469181884765625,-0.9738311767578125,-0.2700958251953125,0.050445556640625
1751013667428125000,2.479125,-0.984405517578125,-0.2699127197265625,0.0479583740234375
1751013667438069000,2.489069091796875,-0.99224853515625,-0.2650909423828125,0.0373382568359375
1751013667448011800,2.49901171875,-0.988128662109375,-0.254791259765625,0.0331268310546875
1751013667457954800,2.508954833984375,-0.99151611328125,-0.2441864013671875,0.0232391357421875
1751013667467899000,2.51889892578125,-0.990203857421875,-0.2408599853515625,0.015777587890625
1751013667477842000,2.528842041015625,-0.98565673828125,-0.243865966796875,0.01312255859375
1751013667487785700,2.53878564453125,-0.9940032958984375,-0.2441864013671875,0.009674072265625
1751013667497728800,2.548728759765625,-0.9903106689453125,-0.2427825927734375,0.0041351318359375
1751013667507672800,2.5586728515625,-0.9787445068359375,-0.25,0.01019287109375
1751013667517615900,2.568615966796875,-0.9775390625,-0.2544708251953125,0.0198974609375
1751013667527559000,2.578558837890625,-0.97784423828125,-0.256378173828125,0.0267333984375
1751013667537503000,2.5885029296875,-0.9758758544921875,-0.26318359375,0.0283203125
1751013667547445800,2.59844580078125,-0.9696502685546875,-0.269134521484375,0.029693603515625
1751013667557390000,2.60839013671875,-0.9633026123046875,-0.2719879150390625,0.0319366455078125
1751013667567337200,2.618337158203125,-0.960906982421875,-0.2754058837890625,0.0347900390625
1751013667577280300,2.6282802734375,-0.9625091552734375,-0.2787017822265625,0.0352325439453125
1751013667587224300,2.638224365234375,-0.960540771484375,-0.281463623046875,0.036773681640625
1751013667597167400,2.64816748046875,-0.957427978515625,-0.28155517578125,0.0379791259765625
1751013667607111200,2.658111083984375,-0.96209716796875,-0.27703857421875,0.0374298095703125
1751013667617054200,2.66805419921875,-0.964447021484375,-0.2760467529296875,0.03778076171875
1751013667626998300,2.677998291015625,-0.9597625732421875,-0.2772369384765625,0.0400543212890625
1751013667636941300,2.68794140625,-0.9560089111328125,-0.2771453857421875,0.03924560546875
1751013667646884000,2.697884033203125,-0.9544219970703125,-0.276214599609375,0.0400238037109375
1751013667656828200,2.707828125,-0.9492645263671875,-0.2762451171875,0.0430755615234375
1751013667666771200,2.717771240234375,-0.9477691650390625,-0.2767181396484375,0.041229248046875
1751013667676715300,2.72771533203125,-0.9503326416015625,-0.273193359375,0.035308837890625
1751013667686658300,2.737658203125,-0.953887939453125,-0.2696380615234375,0.0283355712890625
1751013667696601000,2.74760107421875,-0.9574432373046875,-0.270263671875,0.024627685546875
1751013667706545400,2.75754541015625,-0.962646484375,-0.270233154296875,0.0209503173828125
1751013667716488400,2.767488525390625,-0.974029541015625,-0.26593017578125,0.0183258056640625
1751013667726432300,2.777432373046875,-0.9769134521484375,-0.2621612548828125,0.01324462890625
1751013667736375300,2.787375244140625,-0.975006103515625,-0.25823974609375,0.0081329345703125
1751013667746318300,2.797318359375,-0.976226806640625,-0.25701904296875,0.0018768310546875
1751013667756262400,2.807262451171875,-0.976287841796875,-0.2570037841796875,-0.0025482177734375
1751013667766205200,2.817205078125,-0.9797515869140625,-0.2561492919921875,-0.001922607421875
1751013667776149200,2.827149169921875,-0.9878692626953125,-0.2563934326171875,-0.000732421875
1751013667786092300,2.83709228515625,-0.9948883056640625,-0.2596282958984375,-0.0010223388671875
1751013667796036400,2.847036376953125,-1.0012054443359375,-0.261138916015625,0.002349853515625
1751013667805979100,2.856979248046875,-1.0095062255859375,-0.259552001953125,0.004119873046875
1751013667815922200,2.866922119140625,-1.0118865966796875,-0.2592010498046875,0.005889892578125
1751013667825866200,2.8768662109375,-1.0091705322265625,-0.2597198486328125,0.012939453125
1751013667835809300,2.886809326171875,-1.00927734375,-0.25836181640625,0.01947021484375
1751013667845753000,2.896753173828125,-1.0032501220703125,-0.25665283203125,0.0209503173828125
1751013667855696100,2.906696044921875,-0.99371337890625,-0.2565765380859375,0.0222930908203125
1751013667865640200,2.91664013671875,-0.9899444580078125,-0.2568511962890625,0.023681640625
1751013667875583200,2.926583251953125,-0.9942474365234375,-0.257293701171875,0.0285491943359375
1751013667885526300,2.9365263671875,-1.0017547607421875,-0.2587738037109375,0.0299835205078125
1751013667895470300,2.94647021484375,-1.0025482177734375,-0.260894775390625,0.0259552001953125
1751013667905413000,2.9564130859375,-1.0035858154296875,-0.261260986328125,0.0234222412109375
1751013667915357400,2.966357421875,-1.007598876953125,-0.260009765625,0.024688720703125
1751013667925300500,2.976300537109375,-1.0080413818359375,-0.259552001953125,0.0256195068359375
1751013667935243300,2.9862431640625,-1.0002593994140625,-0.260009765625,0.025054931640625
1751013667945187300,2.996187255859375,-0.9910125732421875,-0.258758544921875,0.0263671875
1751013667955130400,3.00613037109375,-0.987823486328125,-0.2552947998046875,0.0291290283203125
1751013667965074200,3.01607421875,-0.981536865234375,-0.2543487548828125,0.0320892333984375
1751013667975017200,3.026017333984375,-0.974945068359375,-0.2565155029296875,0.0341949462890625
1751013667984960300,3.035960205078125,-0.972076416015625,-0.2574005126953125,0.0358734130859375
1751013667994904300,3.045904296875,-0.9738006591796875,-0.25823974609375,0.038909912109375
1751013668004847400,3.055847412109375,-0.9718780517578125,-0.2608184814453125,0.041717529296875
1751013668014791200,3.065791259765625,-0.968231201171875,-0.2645721435546875,0.0431060791015625
1751013668024734200,3.075734130859375,-0.965087890625,-0.268890380859375,0.043365478515625
1751013668034678300,3.08567822265625,-0.9697723388671875,-0.274017333984375,0.0454864501953125
1751013668044621300,3.095621337890625,-0.9779510498046875,-0.2774505615234375,0.0489044189453125
1751013668054564400,3.105564453125,-0.9856109619140625,-0.280975341796875,0.049560546875
1751013668064508200,3.115508056640625,-0.989471435546875,-0.27899169921875,0.050079345703125
1751013668074451200,3.125451171875,-0.99322509765625,-0.271575927734375,0.0479736328125
1751013668084395300,3.135395263671875,-0.9968719482421875,-0.266265869140625,0.0499420166015625
1751013668094338300,3.14533837890625,-0.995086669921875,-0.2676239013671875,0.046905517578125
1751013668104281000,3.155281005859375,-0.9948883056640625,-0.2637481689453125,0.0477447509765625
1751013668114225200,3.16522509765625,-1.00262451171875,-0.261749267578125,0.052398681640625
1751013668124168200,3.175168212890625,-1.00433349609375,-0.26031494140625,0.048004150390625
1751013668134112300,3.1851123046875,-1.0015411376953125,-0.2567901611328125,0.0390167236328125
1751013668144055300,3.19505517578125,-1.0015411376953125,-0.2520599365234375,0.03338623046875
1751013668153999400,3.204999267578125,-1.0062408447265625,-0.24810791015625,0.033203125
1751013668163942400,3.2149423828125,-1.009033203125,-0.248016357421875,0.0372772216796875
1751013668173885400,3.224885498046875,-1.0028228759765625,-0.2489471435546875,0.039337158203125
1751013668183829200,3.234829345703125,-0.9896697998046875,-0.246063232421875,0.03875732421875
1751013668193772300,3.244772216796875,-0.9718170166015625,-0.2444915771484375,0.0347747802734375
1751013668203716400,3.25471630859375,-0.9603424072265625,-0.24365234375,0.0322113037109375
1751013668213659400,3.264659423828125,-0.9571685791015625,-0.24542236328125,0.0337982177734375
1751013668223602200,3.274602294921875,-0.959625244140625,-0.2472076416015625,0.0377960205078125
1751013668233546200,3.284546142578125,-0.962890625,-0.251373291015625,0.0372161865234375
1751013668243489300,3.2944892578125,-0.9608001708984375,-0.2558746337890625,0.0343780517578125
1751013668253433300,3.304433349609375,-0.9613494873046875,-0.25927734375,0.031494140625
1751013668263376100,3.314376220703125,-0.96343994140625,-0.2612762451171875,0.0243988037109375
1751013668273320200,3.3243203125,-0.9530487060546875,-0.2608795166015625,0.0190277099609375
1751013668283263200,3.33426318359375,-0.942413330078125,-0.2609710693359375,0.01470947265625
1751013668293206300,3.344206298828125,-0.937744140625,-0.2613525390625,0.01318359375
1751013668303150000,3.354150146484375,-0.940399169921875,-0.263671875,0.013702392578125
1751013668313093000,3.364093017578125,-0.9464569091796875,-0.269775390625,0.016265869140625
1751013668323037200,3.374037109375,-0.9529266357421875,-0.2730712890625,0.018096923828125
1751013668332980200,3.383980224609375,-0.9577484130859375,-0.2722320556640625,0.0163726806640625
1751013668342923300,3.39392333984375,-0.9593353271484375,-0.269287109375,0.0141448974609375
1751013668352867300,3.403867431640625,-0.9611358642578125,-0.2667236328125,0.0108795166015625
1751013668362810400,3.413810302734375,-0.9631500244140625,-0.267974853515625,0.00732421875
1751013668372754400,3.42375439453125,-0.9604034423828125,-0.2700347900390625,0.0072784423828125
1751013668382697200,3.433697265625,-0.9557342529296875,-0.273101806640625,0.009796142578125
1751013668392640300,3.44364013671875,-0.957244873046875,-0.27459716796875,0.0141754150390625
1751013668402584300,3.453584228515625,-0.95977783203125,-0.27471923828125,0.0170745849609375
1751013668412527400,3.46352734375,-0.9604949951171875,-0.2755279541015625,0.0185546875
1751013668422471200,3.47347119140625,-0.9624176025390625,-0.27960205078125,0.018035888671875
1751013668432414200,3.483414306640625,-0.9622039794921875,-0.281524658203125,0.021881103515625
1751013668442358300,3.493358154296875,-0.9649505615234375,-0.2818145751953125,0.024200439453125
1751013668452301300,3.50330126953125,-0.96337890625,-0.28277587890625,0.022216796875
1751013668462244400,3.513244384765625,-0.963531494140625,-0.282867431640625,0.01922607421875
1751013668472188200,3.523188232421875,-0.966949462890625,-0.2833709716796875,0.017822265625
1751013668482131200,3.533131103515625,-0.9681549072265625,-0.2861480712890625,0.02020263671875
1751013668492075300,3.5430751953125,-0.9696044921875,-0.287353515625,0.0239715576171875
1751013668502018300,3.553018310546875,-0.9709930419921875,-0.2878265380859375,0.022552490234375
1751013668511961300,3.56296142578125,-0.972869873046875,-0.2870635986328125,0.0196685791015625
1751013668521905200,3.5729052734375,-0.97772216796875,-0.2865142822265625,0.0160369873046875
1751013668531848200,3.58284814453125,-0.97967529296875,-0.287445068359375,0.01690673828125
1751013668541792300,3.592792236328125,-0.9807281494140625,-0.2871551513671875,0.020416259765625
1751013668551735000,3.602735107421875,-0.9859161376953125,-0.288482666015625,0.0215301513671875
1751013668561678000,3.612677978515625,-0.9910888671875,-0.2875823974609375,0.01953125
1751013668571622400,3.622622314453125,-0.9968719482421875,-0.2837677001953125,0.017608642578125
1751013668581565400,3.6325654296875,-1.003265380859375,-0.2790985107421875,0.016021728515625
1751013668591509200,3.64250927734375,-1.00238037109375,-0.273345947265625,0.017364501953125
1751013668601452300,3.652452392578125,-0.9943695068359375,-0.2734375,0.0189208984375
1751013668611396400,3.662396240234375,-0.9859466552734375,-0.2752685546875,0.021209716796875
1751013668621339400,3.67233935546875,-0.9770965576171875,-0.2738800048828125,0.019287109375
1751013668631282400,3.682282470703125,-0.9691619873046875,-0.274261474609375,0.0200653076171875
1751013668641226200,3.692226318359375,-0.97015380859375,-0.2763519287109375,0.0246124267578125
1751013668651169300,3.702169189453125,-0.976043701171875,-0.27685546875,0.0291595458984375
1751013668661113600,3.712113525390625,-0.979339599609375,-0.27557373046875,0.0292205810546875
1751013668671056400,3.722056396484375,-0.9789276123046875,-0.2750701904296875,0.0264434814453125
1751013668680999200,3.731999267578125,-0.9815826416015625,-0.2739715576171875,0.0232696533203125
1751013668690943500,3.741943603515625,-0.9839630126953125,-0.2724609375,0.01947021484375
1751013668700886500,3.751886474609375,-0.9848785400390625,-0.2697296142578125,0.0161895751953125
1751013668710830300,3.761830322265625,-0.9851837158203125,-0.2650604248046875,0.01226806640625
1751013668720773400,3.7717734375,-0.982147216796875,-0.26214599609375,0.0107879638671875
1751013668730717400,3.781717529296875,-0.97686767578125,-0.2604217529296875,0.01513671875
1751013668740660500,3.791660400390625,-0.9747467041015625,-0.2582855224609375,0.0196075439453125
1751013668750603500,3.801603515625,-0.9737091064453125,-0.2585296630859375,0.021484375
1751013668760547300,3.81154736328125,-0.969451904296875,-0.2593536376953125,0.0262451171875
1751013668770490400,3.821490478515625,-0.966217041015625,-0.260986328125,0.0288238525390625
1751013668780434400,3.831434326171875,-0.9663848876953125,-0.261993408203125,0.02801513671875
1751013668790377500,3.84137744140625,-0.9717864990234375,-0.2620849609375,0.025634765625
1751013668800320500,3.851320556640625,-0.9793853759765625,-0.2642059326171875,0.0196075439453125
1751013668810264300,3.861264404296875,-0.9869537353515625,-0.2635498046875,0.0146331787109375
1751013668820207400,3.871207275390625,-0.98822021484375,-0.2605743408203125,0.012359619140625
1751013668830151400,3.8811513671875,-0.985260009765625,-0.2602996826171875,0.01318359375
1751013668840094200,3.89109423828125,-0.9793548583984375,-0.2602996826171875,0.012603759765625
1751013668850037200,3.901037353515625,-0.97259521484375,-0.2588348388671875,0.0115203857421875
1751013668859981300,3.910981201171875,-0.97015380859375,-0.2572784423828125,0.01177978515625
1751013668869924400,3.92092431640625,-0.9659423828125,-0.2599639892578125,0.0139007568359375
1751013668879868400,3.930868408203125,-0.9634857177734375,-0.2628021240234375,0.0203399658203125
1751013668889811200,3.940811279296875,-0.9632568359375,-0.267425537109375,0.0264739990234375
1751013668899755500,3.950755615234375,-0.9703216552734375,-0.2704010009765625,0.025360107421875
1751013668909698600,3.960698486328125,-0.97705078125,-0.2714080810546875,0.0227508544921875
1751013668919641600,3.9706416015625,-0.982757568359375,-0.27239990234375,0.020111083984375
1751013668929585400,3.98058544921875,-0.9856719970703125,-0.27392578125,0.022735595703125
1751013668939528400,3.990528564453125,-0.98663330078125,-0.276275634765625,0.0272674560546875
1751013668949472500,4.000472412109375,-0.9900665283203125,-0.274688720703125,0.0277099609375
1751013668959415600,4.01041552734375,-0.9951171875,-0.27142333984375,0.0268402099609375
1751013668969358300,4.0203583984375,-0.994171142578125,-0.268463134765625,0.0237884521484375
1751013668979302400,4.030302490234375,-1.003509521484375,-0.26507568359375,0.0240325927734375
1751013668989245400,4.040245361328125,-1.0104217529296875,-0.26275634765625,0.0238800048828125
1751013668999189500,4.050189453125,-1.0074005126953125,-0.264892578125,0.0225677490234375
1751013669009132300,4.06013232421875,-1.000152587890625,-0.26629638671875,0.0238800048828125
1751013669019075300,4.070075439453125,-1.001953125,-0.2659759521484375,0.0272369384765625
1751013669029019400,4.080019287109375,-0.999176025390625,-0.2685546875,0.0336456298828125
1751013669038962400,4.08996240234375,-0.9920501708984375,-0.2700042724609375,0.0373687744140625
1751013669048906200,4.09990625,-0.990875244140625,-0.265411376953125,0.03887939453125
1751013669058849300,4.109849365234375,-0.9880218505859375,-0.26007080078125,0.0419158935546875
1751013669068793300,4.11979345703125,-0.978759765625,-0.2596282958984375,0.0420379638671875
1751013669078736400,4.129736328125,-0.9693145751953125,-0.2646026611328125,0.043243408203125
1751013669088679400,4.139679443359375,-0.9622802734375,-0.2705230712890625,0.0493927001953125
1751013669098623200,4.149623291015625,-0.9597930908203125,-0.2761077880859375,0.054595947265625
1751013669108566300,4.159566162109375,-0.96087646484375,-0.2806396484375,0.0567779541015625
1751013669118510600,4.169510498046875,-0.9659576416015625,-0.2798004150390625,0.0533905029296875
1751013669128453400,4.179453369140625,-0.968109130859375,-0.27435302734375,0.0510101318359375
1751013669138396400,4.189396484375,-0.9611968994140625,-0.2700653076171875,0.0508270263671875
1751013669148340500,4.199340576171875,-0.95538330078125,-0.27154541015625,0.0557708740234375
1751013669158283500,4.209283447265625,-0.944732666015625,-0.2772369384765625,0.05908203125
1751013669168227300,4.219227294921875,-0.930328369140625,-0.2809906005859375,0.062408447265625
1751013669178170400,4.22917041015625,-0.9241485595703125,-0.2783966064453125,0.0655670166015625
1751013669188114400,4.239114501953125,-0.9270172119140625,-0.2744140625,0.0631256103515625
1751013669198057500,4.249057373046875,-0.932281494140625,-0.2748565673828125,0.059661865234375
1751013669208000500,4.25900048828125,-0.9405670166015625,-0.2790374755859375,0.0563507080078125
1751013669217944300,4.2689443359375,-0.958160400390625,-0.27923583984375,0.048614501953125
1751013669227887400,4.278887451171875,-0.9700164794921875,-0.27642822265625,0.0390472412109375
1751013669237831400,4.28883154296875,-0.970916748046875,-0.27294921875,0.0292816162109375
1751013669247774500,4.2987744140625,-0.96331787109375,-0.2730560302734375,0.0225677490234375
1751013669257717200,4.30871728515625,-0.957305908203125,-0.273468017578125,0.0227203369140625
1751013669267661300,4.318661376953125,-0.957733154296875,-0.2703704833984375,0.027130126953125
1751013669277604400,4.328604248046875,-0.96185302734375,-0.2667236328125,0.0294342041015625
1751013669287548400,4.33854833984375,-0.9691162109375,-0.2657623291015625,0.0256805419921875
1751013669297491200,4.3484912109375,-0.978851318359375,-0.2678070068359375,0.01788330078125
1751013669307434200,4.358434326171875,-0.986785888671875,-0.269073486328125,0.0115814208984375
1751013669317378300,4.36837841796875,-0.987274169921875,-0.272491455078125,0.0081939697265625
1751013669327321300,4.3783212890625,-0.986480712890625,-0.27520751953125,0.0073394775390625
1751013669337265400,4.388265380859375,-0.9819183349609375,-0.27410888671875,0.007598876953125
1751013669347208400,4.39820849609375,-0.981353759765625,-0.2705535888671875,0.001800537109375
1751013669357152500,4.408152587890625,-0.983123779296875,-0.2669525146484375,-0.001068115234375
1751013669367095600,4.418095458984375,-0.98211669921875,-0.2663116455078125,0.002105712890625
1751013669377038600,4.42803857421875,-0.98046875,-0.26495361328125,0.0051422119140625
1751013669386982400,4.437982421875,-0.9770050048828125,-0.2626953125,0.008270263671875
1751013669396925400,4.447925537109375,-0.97821044921875,-0.2585296630859375,0.01220703125
1751013669406869500,4.457869384765625,-0.979766845703125,-0.2585906982421875,0.0137939453125
1751013669416812500,4.4678125,-0.9795074462890625,-0.259613037109375,0.008209228515625
1751013669426755300,4.47775537109375,-0.9766693115234375,-0.259857177734375,0.005767822265625
1751013669436699400,4.487699462890625,-0.9785308837890625,-0.2603912353515625,0.0074462890625
1751013669446642400,4.497642333984375,-0.9836273193359375,-0.2626953125,0.01214599609375
1751013669456586200,4.507586181640625,-0.985198974609375,-0.2634124755859375,0.017120361328125
1751013669466529300,4.517529296875,-0.9865264892578125,-0.26312255859375,0.0143890380859375
1751013669476472300,4.527472412109375,-0.987884521484375,-0.2620697021484375,0.0113372802734375
1751013669486416400,4.53741650390625,-0.987640380859375,-0.263427734375,0.013336181640625
1751013669496359400,4.547359375,-0.98919677734375,-0.2647857666015625,0.01678466796875
1751013669506303200,4.55730322265625,-0.9903106689453125,-0.2677459716796875,0.0216064453125
1751013669516246300,4.567246337890625,-0.989410400390625,-0.2652587890625,0.0221710205078125
1751013669526190300,4.5771904296875,-0.99176025390625,-0.2587127685546875,0.0207061767578125
1751013669536133400,4.58713330078125,-0.9970550537109375,-0.254302978515625,0.019195556640625
1751013669546076400,4.597076416015625,-0.99993896484375,-0.2526397705078125,0.01739501953125
1751013669556020500,4.6070205078125,-0.9995269775390625,-0.24609375,0.018890380859375
1751013669565959400,4.61695947265625,-0.9958648681640625,-0.242218017578125,0.0204925537109375
1751013669575903500,4.626903564453125,-0.9915771484375,-0.2421417236328125,0.017913818359375
1751013669585846500,4.636846435546875,-0.9850311279296875,-0.243438720703125,0.017578125
1751013669595789300,4.646789306640625,-0.9848175048828125,-0.2398223876953125,0.0146484375
1751013669605733400,4.6567333984375,-0.9801177978515625,-0.23773193359375,0.0180206298828125
1751013669615676400,4.666676513671875,-0.9744415283203125,-0.23822021484375,0.0249176025390625
1751013669625620500,4.676620361328125,-0.97454833984375,-0.2403106689453125,0.032318115234375
1751013669635563300,4.686563232421875,-0.9702606201171875,-0.2449951171875,0.0381622314453125
1751013669645507600,4.696507568359375,-0.96405029296875,-0.2452392578125,0.040374755859375
1751013669655450600,4.70645068359375,-0.9627227783203125,-0.2402191162109375,0.0409393310546875
1751013669665393700,4.7163935546875,-0.965911865234375,-0.2387847900390625,0.0380096435546875
1751013669675337500,4.72633740234375,-0.969268798828125,-0.239898681640625,0.0340118408203125
1751013669685280500,4.736280517578125,-0.9751434326171875,-0.2413787841796875,0.0301361083984375
1751013669695224600,4.746224609375,-0.97918701171875,-0.2425537109375,0.0272216796875
1751013669705167600,4.756167724609375,-0.9766693115234375,-0.245361328125,0.0224761962890625
1751013669715110700,4.766110595703125,-0.970550537109375,-0.2491607666015625,0.020233154296875
1751013669725054500,4.776054443359375,-0.97039794921875,-0.2493133544921875,0.0219268798828125
1751013669734997500,4.78599755859375,-0.977874755859375,-0.2484283447265625,0.0186004638671875
1751013669744941600,4.795941650390625,-0.982452392578125,-0.2510833740234375,0.0130767822265625
1751013669754884600,4.805884521484375,-0.980316162109375,-0.255767822265625,0.010162353515625
1751013669764827400,4.815827392578125,-0.983367919921875,-0.2592620849609375,0.01025390625
1751013669774771500,4.825771484375,-0.9858245849609375,-0.259918212890625,0.0103912353515625
1751013669784714500,4.835714599609375,-0.9798583984375,-0.2635345458984375,0.010498046875
1751013669794658300,4.845658203125,-0.98199462890625,-0.2639617919921875,0.0068206787109375
1751013669804601300,4.855601318359375,-0.9915008544921875,-0.2603607177734375,-0.00079345703125
1751013669814545400,4.86554541015625,-0.99334716796875,-0.2587432861328125,-0.008697509765625
1751013669824488400,4.875488525390625,-0.997344970703125,-0.25958251953125,-0.00689697265625
1751013669834431500,4.885431396484375,-0.9975433349609375,-0.2628326416015625,0.0023345947265625
1751013669844375300,4.895375244140625,-0.998565673828125,-0.2648773193359375,0.0056915283203125
1751013669854318300,4.905318359375,-0.995635986328125,-0.265625,0.005096435546875
1751013669864262700,4.9152626953125,-0.9920501708984375,-0.263519287109375,0.00323486328125
1751013669874205700,4.925205810546875,-0.9923248291015625,-0.2590484619140625,0.0023040771484375
1751013669884148500,4.9351484375,-0.992095947265625,-0.2556304931640625,0.0045318603515625
1751013669894092500,4.945092529296875,-0.9945068359375,-0.2525634765625,0.0069580078125
1751013669904035600,4.95503564453125,-0.997222900390625,-0.2511749267578125,0.0051116943359375
1751013669913979600,4.964979736328125,-0.9991455078125,-0.249176025390625,0.00311279296875
1751013669923922400,4.97492236328125,-1.0010986328125,-0.2480316162109375,-0.0000762939453125
1751013669933866500,4.984866455078125,-1.002410888671875,-0.24755859375,-0.003448486328125
1751013669943809500,4.9948095703125,-1.0008087158203125,-0.2465667724609375,-0.004730224609375
1751013669953752600,5.004752685546875,-0.9979248046875,-0.2465362548828125,-0.0058441162109375
1751013669963696400,5.0146962890625,-0.997650146484375,-0.2471923828125,-0.0095062255859375
1751013669973639400,5.024639404296875,-0.9963836669921875,-0.246856689453125,-0.0080718994140625
1751013669983583500,5.03458349609375,-0.9946746826171875,-0.2503509521484375,-0.004638671875
1751013669993526500,5.044526611328125,-0.990814208984375,-0.2535247802734375,-0.0014801025390625
1751013670003469600,5.054469482421875,-0.987823486328125,-0.25579833984375,-0.0002899169921875
1751013670013413400,5.064413330078125,-0.98492431640625,-0.256378173828125,-0.0002593994140625
1751013670023356400,5.0743564453125,-0.9813995361328125,-0.257171630859375,-0.00030517578125
1751013670033300500,5.084300537109375,-0.9757080078125,-0.25830078125,0.0014495849609375
1751013670043243500,5.094243408203125,-0.97027587890625,-0.2599945068359375,0.0043487548828125
1751013670053187300,5.104187255859375,-0.9659881591796875,-0.2613067626953125,0.00830078125
1751013670063130400,5.11413037109375,-0.964630126953125,-0.2627716064453125,0.008819580078125
1751013670073073400,5.124073486328125,-0.9658203125,-0.2644805908203125,0.00860595703125
1751013670083017500,5.134017578125,-0.9688873291015625,-0.2663726806640625,0.009613037109375
1751013670092960300,5.143960205078125,-0.9732513427734375,-0.265655517578125,0.0128021240234375
1751013670102904600,5.153904541015625,-0.9750213623046875,-0.26300048828125,0.0139617919921875
1751013670112847600,5.16384765625,-0.9761505126953125,-0.2618865966796875,0.011260986328125
1751013670122790700,5.173790771484375,-0.976104736328125,-0.261383056640625,0.00738525390625
1751013670132734500,5.183734375,-0.9781036376953125,-0.2581939697265625,0.003448486328125
1751013670142677500,5.193677490234375,-0.977508544921875,-0.25531005859375,0.0045318603515625
1751013670152621600,5.20362158203125,-0.9761505126953125,-0.2538299560546875,0.007568359375
1751013670162564600,5.213564697265625,-0.9749908447265625,-0.2540130615234375,0.009429931640625
1751013670172508400,5.22350830078125,-0.9767913818359375,-0.254974365234375,0.007415771484375
1751013670182451500,5.233451416015625,-0.9773712158203125,-0.2479705810546875,-0.0138092041015625
1751013670192394500,5.24339453125,-0.9945068359375,-0.248748779296875,-0.013702392578125
1751013670202338600,5.253338623046875,-0.9917449951171875,-0.2627716064453125,0.0068511962890625
1751013670212281300,5.26328125,-0.97454833984375,-0.25775146484375,0.0007781982421875
1751013670222225400,5.273225341796875,-0.9759063720703125,-0.2544708251953125,-0.00347900390625
1751013670232168400,5.28316845703125,-0.974517822265625,-0.2648468017578125,-0.000152587890625
1751013670242111500,5.293111572265625,-0.9690704345703125,-0.2689208984375,0.0004425048828125
1751013670252055300,5.30305517578125,-0.9649658203125,-0.267852783203125,-0.001434326171875
1751013670261998300,5.312998291015625,-0.9557952880859375,-0.26910400390625,-0.0022735595703125
1751013670271942400,5.3229423828125,-0.9514617919921875,-0.2704925537109375,0.0103607177734375
1751013670281885400,5.332885498046875,-0.961212158203125,-0.2696533203125,0.012359619140625
1751013670291829500,5.34282958984375,-0.96417236328125,-0.267822265625,0.0078887939453125
1751013670301772300,5.352772216796875,-0.9655914306640625,-0.268280029296875,0.0005645751953125
1751013670311715300,5.36271533203125,-0.9667510986328125,-0.2681427001953125,-0.0017242431640625
1751013670321659600,5.37265966796875,-0.9666748046875,-0.26739501953125,-0.00054931640625
1751013670331602700,5.382602783203125,-0.9715118408203125,-0.266387939453125,0.0014801025390625
1751013670341546500,5.39254638671875,-0.9710540771484375,-0.2653045654296875,0.0003814697265625
1751013670351489500,5.402489501953125,-0.9678497314453125,-0.2642059326171875,0.00140380859375
1751013670361432600,5.4124326171875,-0.9667510986328125,-0.263824462890625,0.003509521484375
1751013670371376600,5.422376708984375,-0.966094970703125,-0.2658233642578125,0.0088043212890625
1751013670381319400,5.4323193359375,-0.96856689453125,-0.26580810546875,0.0100860595703125
1751013670391263500,5.442263427734375,-0.976898193359375,-0.264739990234375,0.0087890625
1751013670401206500,5.45220654296875,-0.9765167236328125,-0.2640838623046875,0.006134033203125
1751013670411150300,5.462150390625,-0.975982666015625,-0.2638702392578125,0.0048980712890625
1751013670421093400,5.47209326171875,-0.9766082763671875,-0.2620697021484375,0.0083465576171875
1751013670431036400,5.482036376953125,-0.9799652099609375,-0.26123046875,0.011383056640625
1751013670440980500,5.49198046875,-0.982269287109375,-0.2601165771484375,0.0122833251953125
1751013670450923500,5.501923583984375,-0.981903076171875,-0.256927490234375,0.01068115234375
1751013670460867300,5.511867431640625,-0.9842071533203125,-0.25439453125,0.012542724609375
1751013670470810400,5.521810302734375,-0.9853515625,-0.2554473876953125,0.0163726806640625
1751013670480753400,5.53175341796875,-0.98907470703125,-0.254425048828125,0.0134735107421875
1751013670490697500,5.541697509765625,-0.9879150390625,-0.2545013427734375,0.012420654296875
1751013670500640500,5.551640625,-0.9826202392578125,-0.2557830810546875,0.0130157470703125
1751013670510584600,5.56158447265625,-0.9816436767578125,-0.2566070556640625,0.01416015625
1751013670520527400,5.57152734375,-0.9865264892578125,-0.257843017578125,0.0140533447265625
1751013670530471700,5.5814716796875,-0.9839935302734375,-0.2621917724609375,0.0159759521484375
1751013670540414500,5.59141455078125,-0.9793853759765625,-0.262237548828125,0.016937255859375
1751013670550357500,5.601357421875,-0.9772796630859375,-0.2609405517578125,0.0170745849609375
1751013670560301600,5.611301513671875,-0.9785003662109375,-0.26226806640625,0.013763427734375
1751013670570244900,5.621244873046875,-0.9785614013671875,-0.2640533447265625,0.011016845703125
1751013670580189000,5.63118896484375,-0.9793853759765625,-0.26416015625,0.0133056640625
1751013670590132000,5.641132080078125,-0.975738525390625,-0.26275634765625,0.0144805908203125
1751013670600075000,5.651074951171875,-0.9747772216796875,-0.2616424560546875,0.013519287109375
1751013670610019000,5.66101904296875,-0.97509765625,-0.26300048828125,0.0138092041015625
1751013670619961900,5.6709619140625,-0.97174072265625,-0.2639007568359375,0.015625
1751013670629906000,5.680906005859375,-0.9734649658203125,-0.2622222900390625,0.0155181884765625
1751013670639849000,5.690848876953125,-0.97711181640625,-0.260772705078125,0.0162200927734375
1751013670649793000,5.70079296875,-0.9844818115234375,-0.25994873046875,0.016357421875
1751013670659735800,5.71073583984375,-0.9928436279296875,-0.2576141357421875,0.0170745849609375
1751013670669678800,5.720678955078125,-0.9949798583984375,-0.257598876953125,0.0158843994140625
1751013670679623000,5.730622802734375,-0.993560791015625,-0.2600250244140625,0.0191192626953125
1751013670689566000,5.74056591796875,-0.9944610595703125,-0.2583160400390625,0.025726318359375
1751013670699509800,5.750509765625,-0.9959869384765625,-0.255462646484375,0.028656005859375
1751013670709452800,5.760452880859375,-0.9949798583984375,-0.2546539306640625,0.0241546630859375
1751013670719395800,5.770395751953125,-0.990692138671875,-0.25469970703125,0.024932861328125
1751013670729340000,5.78033984375,-0.988800048828125,-0.2540283203125,0.023529052734375
1751013670739283000,5.790282958984375,-0.98638916015625,-0.257720947265625,0.016693115234375
1751013670749226800,5.800226806640625,-0.98590087890625,-0.2628631591796875,0.009033203125
1751013670759169800,5.810169677734375,-0.983978271484375,-0.264617919921875,0.0031585693359375
1751013670769113900,5.82011376953125,-0.9757232666015625,-0.2659912109375,0.000152587890625
1751013670779057000,5.830056884765625,-0.96441650390625,-0.2667083740234375,0.00311279296875
1751013670788999700,5.839999755859375,-0.963226318359375,-0.266632080078125,0.0070037841796875
1751013670798944000,5.849944091796875,-0.965179443359375,-0.26580810546875,0.0095977783203125
1751013670808887000,5.859886962890625,-0.96539306640625,-0.2623443603515625,0.011383056640625
1751013670818830800,5.869830810546875,-0.96746826171875,-0.2591705322265625,0.012603759765625
1751013670828774000,5.87977392578125,-0.9715728759765625,-0.256683349609375,0.0103759765625
1751013670838717000,5.889717041015625,-0.973876953125,-0.25360107421875,0.010162353515625
1751013670848661000,5.899660888671875,-0.976226806640625,-0.2537994384765625,0.0128173828125
1751013670858604000,5.90960400390625,-0.9761962890625,-0.2540435791015625,0.016937255859375
1751013670868547800,5.9195478515625,-0.9806976318359375,-0.254241943359375,0.01611328125
1751013670878491000,5.929490966796875,-0.980133056640625,-0.255340576171875,0.015655517578125
1751013670888435000,5.93943505859375,-0.9790191650390625,-0.2563629150390625,0.017669677734375
1751013670898378000,5.9493779296875,-0.977691650390625,-0.2574462890625,0.0194854736328125
1751013670908321000,5.959321044921875,-0.97796630859375,-0.2577056884765625,0.0177154541015625
1751013670918264800,5.969264892578125,-0.9764404296875,-0.257843017578125,0.01593017578125
1751013670928208000,5.979207763671875,-0.9771270751953125,-0.2591552734375,0.0154571533203125
1751013670938152000,5.98915185546875,-0.9809112548828125,-0.2586822509765625,0.0143890380859375
1751013670948094700,5.9990947265625,-0.9783782958984375,-0.2566375732421875,0.0153961181640625
1751013670958037800,6.009037841796875,-0.97833251953125,-0.254150390625,0.0172576904296875
1751013670967981800,6.01898193359375,-0.985321044921875,-0.2541961669921875,0.0196990966796875
1751013670977924900,6.0289248046875,-0.988861083984375,-0.255523681640625,0.019927978515625
1751013670987868700,6.03886865234375,-0.990570068359375,-0.25537109375,0.0165252685546875
1751013670997811700,6.048811767578125,-0.9905548095703125,-0.255645751953125,0.0135498046875
1751013671007756000,6.058756103515625,-0.981903076171875,-0.2572784423828125,0.0157623291015625
1751013671017699000,6.068698974609375,-0.97772216796875,-0.2585601806640625,0.01885986328125
1751013671027641900,6.078641845703125,-0.977081298828125,-0.2620086669921875,0.0221710205078125
1751013671037586000,6.0885859375,-0.9750213623046875,-0.2639007568359375,0.0213775634765625
1751013671047529000,6.098529052734375,-0.97247314453125,-0.2634735107421875,0.0207061767578125
1751013671057473000,6.10847314453125,-0.975921630859375,-0.2620391845703125,0.018463134765625
1751013671067416000,6.118416015625,-0.979339599609375,-0.2607879638671875,0.0166778564453125
1751013671077359900,6.12835986328125,-0.9818572998046875,-0.2603759765625,0.0192108154296875
1751013671087303000,6.138302978515625,-0.9828643798828125,-0.261962890625,0.0194854736328125
1751013671097246000,6.148245849609375,-0.98638916015625,-0.26251220703125,0.016448974609375
1751013671107190000,6.15818994140625,-0.9906005859375,-0.2632904052734375,0.0116424560546875
1751013671117132800,6.1681328125,-0.9891510009765625,-0.2656402587890625,0.0100555419921875
1751013671127076900,6.178076904296875,-0.98529052734375,-0.266632080078125,0.0101318359375
1751013671137020000,6.18802001953125,-0.9827117919921875,-0.26702880859375,0.0113525390625
1751013671146963000,6.197962890625,-0.9822845458984375,-0.2678680419921875,0.0128021240234375
1751013671156906800,6.20790673828125,-0.9814300537109375,-0.2672576904296875,0.01513671875
1751013671166849800,6.217849853515625,-0.9801788330078125,-0.26629638671875,0.01788330078125
1751013671176793900,6.2277939453125,-0.97894287109375,-0.2647857666015625,0.021209716796875
1751013671186737000,6.23773681640625,-0.9781951904296875,-0.26446533203125,0.0196380615234375
1751013671196680700,6.2476806640625,-0.976898193359375,-0.2642822265625,0.019927978515625
1751013671206623700,6.257623779296875,-0.974609375,-0.2633209228515625,0.022247314453125
1751013671216566800,6.26756689453125,-0.9747467041015625,-0.2642669677734375,0.023681640625
1751013671226511000,6.277510986328125,-0.9771881103515625,-0.26385498046875,0.0221710205078125
1751013671236454000,6.287453857421875,-0.9803314208984375,-0.2628631591796875,0.0204315185546875
1751013671246398000,6.29739794921875,-0.98052978515625,-0.2633514404296875,0.0207977294921875
1751013671256341000,6.307341064453125,-0.9772491455078125,-0.2662353515625,0.0197296142578125
1751013671266284000,6.317283935546875,-0.973785400390625,-0.2667236328125,0.0178680419921875
1751013671276227800,6.327227783203125,-0.9722900390625,-0.2674407958984375,0.020477294921875
1751013671286171000,6.3371708984375,-0.96942138671875,-0.2694244384765625,0.020599365234375
1751013671296115000,6.347114990234375,-0.96728515625,-0.2686614990234375,0.0214996337890625
1751013671306058000,6.35705810546875,-0.966644287109375,-0.2688446044921875,0.02227783203125
1751013671316001800,6.367001708984375,-0.96649169921875,-0.2692413330078125,0.01959228515625
1751013671325944800,6.37694482421875,-0.965606689453125,-0.269073486328125,0.0186309814453125
1751013671335888000,6.386887939453125,-0.968902587890625,-0.268402099609375,0.01788330078125
1751013671345832000,6.39683203125,-0.9673614501953125,-0.26806640625,0.016693115234375
1751013671355775000,6.40677490234375,-0.9665985107421875,-0.2646484375,0.0169219970703125
1751013671365718800,6.41671875,-0.9695281982421875,-0.2596893310546875,0.0191650390625
1751013671375661800,6.426661865234375,-0.9709014892578125,-0.2616119384765625,0.02557373046875
1751013671385604900,6.43660498046875,-0.97039794921875,-0.264617919921875,0.028228759765625
1751013671395549000,6.446548828125,-0.9695892333984375,-0.2630615234375,0.0291290283203125
1751013671405491700,6.45649169921875,-0.971282958984375,-0.255706787109375,0.0276947021484375
1751013671415435800,6.466435791015625,-0.97509765625,-0.259185791015625,0.0276641845703125
1751013671425378800,6.47637890625,-0.980560302734375,-0.261749267578125,0.0265350341796875
1751013671435321900,6.48632177734375,-0.984619140625,-0.261962890625,0.0288238525390625
1751013671445266000,6.496265869140625,-0.9879302978515625,-0.2628021240234375,0.0360565185546875
1751013671455208700,6.506208740234375,-0.991729736328125,-0.261810302734375,0.0432586669921875
1751013671465153000,6.516153076171875,-0.98956298828125,-0.2579345703125,0.043212890625
1751013671475096000,6.526095947265625,-0.9853363037109375,-0.256134033203125,0.0413970947265625
1751013671485039900,6.536039794921875,-0.9834136962890625,-0.2569122314453125,0.036712646484375
1751013671494983000,6.54598291015625,-0.9819488525390625,-0.2540130615234375,0.0346527099609375
1751013671504926000,6.555926025390625,-0.98052978515625,-0.25640869140625,0.0348968505859375
1751013671514870000,6.5658701171875,-0.98284912109375,-0.25958251953125,0.034759521484375
1751013671524813000,6.57581298828125,-0.9827117919921875,-0.260833740234375,0.0348052978515625
1751013671534756900,6.5857568359375,-0.9794921875,-0.2626495361328125,0.0348663330078125
1751013671544700000,6.595699951171875,-0.977691650390625,-0.2592620849609375,0.0316162109375
1751013671554644000,6.60564404296875,-0.97509765625,-0.25762939453125,0.0279693603515625
1751013671564586800,6.615586669921875,-0.9787750244140625,-0.259521484375,0.024871826171875
1751013671574529300,6.625529296875,-0.980560302734375,-0.260589599609375,0.0211029052734375
1751013671584473300,6.635473388671875,-0.9770660400390625,-0.2621917724609375,0.0204620361328125
1751013671594416400,6.64541650390625,-0.9774169921875,-0.2605743408203125,0.01971435546875
1751013671604360400,6.6553603515625,-0.979644775390625,-0.2577972412109375,0.020721435546875
1751013671614303200,6.66530322265625,-0.978363037109375,-0.2616729736328125,0.0203399658203125
1751013671624246300,6.675246337890625,-0.9778594970703125,-0.2621917724609375,0.020477294921875
1751013671634190300,6.6851904296875,-0.976806640625,-0.26025390625,0.0227508544921875
1751013671644133400,6.69513330078125,-0.9764556884765625,-0.262908935546875,0.023895263671875
1751013671654077200,6.7050771484375,-0.9782562255859375,-0.264434814453125,0.0243377685546875
1751013671664020200,6.715020263671875,-0.977081298828125,-0.26690673828125,0.0277557373046875
1751013671673964300,6.72496435546875,-0.983795166015625,-0.2656402587890625,0.02789306640625
1751013671683907300,6.7349072265625,-0.9877471923828125,-0.2581939697265625,0.0266571044921875
1751013671693850400,6.744850341796875,-0.9844207763671875,-0.255157470703125,0.0222930908203125
1751013671703794200,6.754794189453125,-0.979827880859375,-0.25164794921875,0.0211181640625
1751013671713737200,6.7647373046875,-0.9820098876953125,-0.2537384033203125,0.0225372314453125
1751013671723681300,6.774681396484375,-0.9837799072265625,-0.2584381103515625,0.023040771484375
1751013671733624300,6.784624267578125,-0.984161376953125,-0.257904052734375,0.0226898193359375
1751013671743567000,6.794567138671875,-0.9858856201171875,-0.2570648193359375,0.0244903564453125
1751013671753511200,6.80451123046875,-0.990142822265625,-0.259796142578125,0.0257720947265625
1751013671763454200,6.8144541015625,-0.9968414306640625,-0.2595672607421875,0.02386474609375
1751013671773398300,6.824398193359375,-0.9990386962890625,-0.258758544921875,0.0206146240234375
1751013671783341000,6.834341064453125,-0.9894561767578125,-0.2588043212890625,0.020111083984375
1751013671793285400,6.844285400390625,-0.986053466796875,-0.2577362060546875,0.0224151611328125
1751013671803228400,6.854228515625,-0.9882965087890625,-0.2590179443359375,0.02783203125
1751013671813171200,6.864171142578125,-0.9902191162109375,-0.258544921875,0.03253173828125
1751013671823115300,6.874115234375,-0.989044189453125,-0.2579193115234375,0.0365142822265625
1751013671833058300,6.884058349609375,-0.98419189453125,-0.2598419189453125,0.03717041015625
1751013671843002400,6.89400244140625,-0.9818878173828125,-0.2607269287109375,0.0367431640625
1751013671852945400,6.9039453125,-0.9840850830078125,-0.2574310302734375,0.0358734130859375
1751013671862888400,6.913888427734375,-0.9862518310546875,-0.257781982421875,0.0352935791015625
1751013671872832300,6.923832275390625,-0.985137939453125,-0.2598724365234375,0.0317230224609375
1751013671882775300,6.933775390625,-0.9880218505859375,-0.2591400146484375,0.0267333984375
1751013671892719400,6.94371923828125,-0.995330810546875,-0.256011962890625,0.02435302734375
1751013671902662400,6.953662353515625,-0.9961700439453125,-0.2532501220703125,0.0236053466796875
1751013671912606200,6.963606201171875,-0.99298095703125,-0.24981689453125,0.0247039794921875
1751013671922549200,6.97354931640625,-0.9888916015625,-0.2468109130859375,0.021820068359375
1751013671932492300,6.9834921875,-0.9841156005859375,-0.2444915771484375,0.013427734375
1751013671942436000,6.99343603515625,-0.973114013671875,-0.24383544921875,0.00830078125
1751013671952379100,7.003379150390625,-0.955841064453125,-0.2462158203125,0.0040740966796875
1751013671962323200,7.0133232421875,-0.94329833984375,-0.2536468505859375,0.00274658203125
1751013671972266200,7.023266357421875,-0.9407196044921875,-0.2572021484375,-0.0026702880859375
1751013671982210000,7.0332099609375,-0.946929931640625,-0.2561492919921875,-0.008087158203125
1751013671992153000,7.043153076171875,-0.9515838623046875,-0.259521484375,-0.0134735107421875
1751013672002096000,7.05309619140625,-0.9534454345703125,-0.2671356201171875,-0.0177764892578125
1751013672012040400,7.06304052734375,-0.9544677734375,-0.2733306884765625,-0.02008056640625
1751013672021983500,7.0729833984375,-0.95562744140625,-0.2765655517578125,-0.02313232421875
1751013672031927300,7.08292724609375,-0.9587554931640625,-0.2757415771484375,-0.0224761962890625
1751013672041870300,7.092870361328125,-0.964874267578125,-0.27545166015625,-0.0196685791015625
1751013672051813400,7.1028134765625,-0.9715728759765625,-0.2744598388671875,-0.015533447265625
1751013672061757400,7.11275732421875,-0.97637939453125,-0.27362060546875,-0.012054443359375
1751013672071700200,7.1227001953125,-0.978057861328125,-0.2733154296875,-0.0091400146484375
1751013672081644300,7.132644287109375,-0.97930908203125,-0.2755279541015625,-0.00518798828125
1751013672091587300,7.14258740234375,-0.980499267578125,-0.274810791015625,-0.001373291015625
1751013672101531400,7.152531494140625,-0.9811859130859375,-0.272247314453125,0.00140380859375
1751013672111474200,7.16247412109375,-0.9823150634765625,-0.2709503173828125,0.00311279296875
1751013672121417200,7.172417236328125,-0.9812164306640625,-0.2712860107421875,0.0011444091796875
1751013672131361300,7.182361328125,-0.9803466796875,-0.2714385986328125,0.0013580322265625
1751013672141304300,7.19230419921875,-0.98126220703125,-0.270477294921875,0.0009307861328125
1751013672151248100,7.202248046875,-0.9833831787109375,-0.2694091796875,0.001373291015625
1751013672161191200,7.212191162109375,-0.9821624755859375,-0.2707977294921875,0.0028533935546875
1751013672171134200,7.22213427734375,-0.9783172607421875,-0.2710113525390625,0.0029449462890625
1751013672181078300,7.232078369140625,-0.97686767578125,-0.27032470703125,0.0015716552734375
1751013672191021300,7.242021240234375,-0.9787139892578125,-0.2711944580078125,0.0003814697265625
1751013672200965000,7.251965087890625,-0.9774169921875,-0.2728118896484375,-0.0024261474609375
1751013672210908200,7.261908203125,-0.9752044677734375,-0.272674560546875,-0.0030975341796875
1751013672220852500,7.2718525390625,-0.977264404296875,-0.2697296142578125,-0.004638671875
1751013672230795300,7.281795166015625,-0.9813079833984375,-0.2668304443359375,-0.0030059814453125
1751013672240738000,7.291738037109375,-0.9809722900390625,-0.266845703125,-0.000213623046875
1751013672250682400,7.301682373046875,-0.97808837890625,-0.2656707763671875,0.00238037109375
1751013672260625400,7.31162548828125,-0.975433349609375,-0.2650299072265625,0.005096435546875
1751013672270569200,7.3215693359375,-0.9725494384765625,-0.2657928466796875,0.0081939697265625
1751013672280512300,7.33151220703125,-0.9712982177734375,-0.266143798828125,0.010498046875
1751013672290455300,7.341455322265625,-0.9761199951171875,-0.2652130126953125,0.0107879638671875
1751013672300399400,7.3513994140625,-0.981475830078125,-0.2625885009765625,0.013092041015625
1751013672310342400,7.36134228515625,-0.9866485595703125,-0.2591705322265625,0.01434326171875
1751013672320286200,7.3712861328125,-0.985626220703125,-0.2576446533203125,0.014739990234375
1751013672330229200,7.381229248046875,-0.98175048828125,-0.2565765380859375,0.0183258056640625
1751013672340173300,7.39117333984375,-0.984527587890625,-0.2561492919921875,0.0211639404296875
1751013672350116400,7.401116455078125,-0.9851226806640625,-0.2587432861328125,0.017730712890625
1751013672360059100,7.41105908203125,-0.9786376953125,-0.2602691650390625,0.0146942138671875
1751013672370003200,7.421003173828125,-0.97222900390625,-0.2598114013671875,0.0154876708984375
1751013672379946200,7.4309462890625,-0.970703125,-0.2580718994140625,0.015106201171875
1751013672389890300,7.440890380859375,-0.97369384765625,-0.2573394775390625,0.0158233642578125
1751013672399833000,7.4508330078125,-0.98126220703125,-0.2583160400390625,0.0203399658203125
1751013672409777200,7.460777099609375,-0.985748291015625,-0.259765625,0.02392578125
1751013672419720200,7.47072021484375,-0.983734130859375,-0.2621917724609375,0.0210418701171875
1751013672429663200,7.480663330078125,-0.981109619140625,-0.2627410888671875,0.0175323486328125
1751013672439607300,7.490607177734375,-0.9782867431640625,-0.2619781494140625,0.022857666015625
1751013672449550000,7.500550048828125,-0.9781951904296875,-0.261016845703125,0.0237274169921875
1751013672459494400,7.510494384765625,-0.982666015625,-0.2596588134765625,0.0178680419921875
1751013672469437400,7.5204375,-0.98614501953125,-0.2573699951171875,0.0152130126953125
1751013672479380500,7.53038037109375,-0.990081787109375,-0.2550506591796875,0.017486572265625
1751013672489324300,7.54032421875,-0.992095947265625,-0.256011962890625,0.018463134765625
1751013672499267300,7.550267333984375,-0.991180419921875,-0.2591552734375,0.0210418701171875
1751013672509211400,7.56021142578125,-0.9853363037109375,-0.2597503662109375,0.0181427001953125
1751013672519154400,7.570154541015625,-0.977996826171875,-0.2620391845703125,0.0109710693359375
1751013672529098200,7.58009814453125,-0.9728240966796875,-0.263916015625,0.0145263671875
1751013672539041300,7.590041259765625,-0.9705810546875,-0.264801025390625,0.0206756591796875
1751013672548984300,7.599984375,-0.9704132080078125,-0.26287841796875,0.01910400390625
1751013672558928100,7.60992822265625,-0.9732513427734375,-0.2603759765625,0.0165863037109375
1751013672568871400,7.619871337890625,-0.9791107177734375,-0.2569732666015625,0.01806640625
1751013672578815500,7.6298154296875,-0.9837188720703125,-0.2523193359375,0.0177459716796875
1751013672588758500,7.639758544921875,-0.9882354736328125,-0.2485809326171875,0.0146484375
1751013672598702300,7.649702392578125,-0.9900360107421875,-0.24676513671875,0.0164337158203125
1751013672608645400,7.659645263671875,-0.9889373779296875,-0.2458038330078125,0.0192413330078125
1751013672618588400,7.66958837890625,-0.9857025146484375,-0.245208740234375,0.0160064697265625
1751013672628532500,7.679532470703125,-0.981414794921875,-0.24505615234375,0.0127716064453125
1751013672638475500,7.6894755859375,-0.9801788330078125,-0.24481201171875,0.01434326171875
1751013672648419600,7.699419677734375,-0.9821319580078125,-0.2461700439453125,0.01220703125
1751013672658362600,7.709362548828125,-0.983642578125,-0.249420166015625,0.0115203857421875
1751013672668306700,7.719306640625,-0.984039306640625,-0.2510833740234375,0.0121612548828125
1751013672678249500,7.72924951171875,-0.9846954345703125,-0.2501068115234375,0.0167999267578125
1751013672688192500,7.739192626953125,-0.9838409423828125,-0.250946044921875,0.017242431640625
1751013672698136600,7.749136474609375,-0.9795074462890625,-0.2542877197265625,0.017303466796875
1751013672708079600,7.75907958984375,-0.973236083984375,-0.2576904296875,0.0166778564453125
1751013672718023400,7.7690234375,-0.968658447265625,-0.2585601806640625,0.014190673828125
1751013672727966500,7.778966552734375,-0.96466064453125,-0.261962890625,0.012939453125
1751013672737909500,7.788909423828125,-0.962677001953125,-0.2659912109375,0.011138916015625
1751013672747853600,7.798853515625,-0.9671630859375,-0.265411376953125,0.00787353515625
1751013672757796600,7.808796630859375,-0.97235107421875,-0.264617919921875,0.00921630859375
1751013672767740400,7.818740478515625,-0.972747802734375,-0.2642364501953125,0.011383056640625
1751013672777683500,7.828683349609375,-0.97528076171875,-0.2640838623046875,0.0135345458984375
1751013672787627500,7.83862744140625,-0.9809722900390625,-0.26416015625,0.0132293701171875
1751013672797570600,7.848570556640625,-0.98565673828125,-0.2617034912109375,0.0112762451171875
1751013672807513600,7.858513671875,-0.98516845703125,-0.2596893310546875,0.0106964111328125
1751013672817457400,7.86845751953125,-0.9864349365234375,-0.25604248046875,0.0141754150390625
1751013672827400400,7.878400390625,-0.990570068359375,-0.2532958984375,0.0155181884765625
1751013672837344500,7.888344482421875,-0.990631103515625,-0.2546844482421875,0.0112762451171875
1751013672847287300,7.898287353515625,-0.9864349365234375,-0.2567138671875,0.010101318359375
1751013672857231600,7.908231689453125,-0.9852142333984375,-0.2568206787109375,0.0114593505859375
1751013672867174700,7.918174560546875,-0.98712158203125,-0.2579498291015625,0.011077880859375
1751013672877117700,7.92811767578125,-0.98663330078125,-0.2603912353515625,0.0094451904296875
1751013672887061500,7.9380615234375,-0.980743408203125,-0.2596893310546875,0.011077880859375
1751013672897004500,7.948004638671875,-0.981475830078125,-0.25994873046875,0.0145111083984375
1751013672906948600,7.957948486328125,-0.9837493896484375,-0.262603759765625,0.019378662109375
1751013672916891600,7.9678916015625,-0.97430419921875,-0.2606353759765625,0.0131072998046875
1751013672926834700,7.977834716796875,-0.9838104248046875,-0.2522430419921875,0.0144805908203125
1751013672936778500,7.987778564453125,-0.9903411865234375,-0.2510986328125,0.01385498046875
1751013672946721500,7.997721435546875,-0.98394775390625,-0.2543487548828125,0.01483154296875
1751013672956665600,8.00766552734375,-0.985076904296875,-0.2522735595703125,0.018463134765625
1751013672966608600,8.017608642578125,-0.9836578369140625,-0.25299072265625,0.016571044921875
1751013672976552400,8.027552490234376,-0.97723388671875,-0.255889892578125,0.0132904052734375
1751013672986495500,8.03749560546875,-0.9752349853515625,-0.254730224609375,0.01287841796875
1751013672996438500,8.0474384765625,-0.9774322509765625,-0.25250244140625,0.0140228271484375
1751013673006382600,8.057382568359374,-0.9833984375,-0.250885009765625,0.01519775390625
1751013673016325400,8.067325439453125,-0.9847259521484375,-0.24896240234375,0.0140838623046875
1751013673026269400,8.07726953125,-0.981414794921875,-0.2451019287109375,0.011962890625
1751013673036212500,8.08721240234375,-0.984039306640625,-0.2361297607421875,0.001922607421875
1751013673046156300,8.09715625,-0.98577880859375,-0.2319183349609375,0.002593994140625
1751013673056099300,8.107099365234374,-0.969635009765625,-0.2797393798828125,0.01739501953125
1751013673066042400,8.11704248046875,-0.974884033203125,-0.2734375,-0.0066680908203125
1751013673075986700,8.126986572265626,-0.97393798828125,-0.246002197265625,-0.016876220703125
1751013673085929700,8.1369296875,-0.97216796875,-0.2472381591796875,-0.007598876953125
1751013673095873500,8.14687353515625,-0.9778900146484375,-0.25372314453125,0.0055084228515625
1751013673105816600,8.156816650390626,-0.9833984375,-0.248626708984375,0.0135955810546875
1751013673115760600,8.1667607421875,-0.9810028076171875,-0.2451019287109375,0.0154571533203125
1751013673125703700,8.17670361328125,-0.981353759765625,-0.247802734375,0.012847900390625
1751013673135646500,8.186646484375,-0.9800262451171875,-0.2501373291015625,0.016265869140625
1751013673145590500,8.196590576171875,-0.9788665771484375,-0.2492523193359375,0.021209716796875
1751013673155533600,8.206533447265626,-0.979339599609375,-0.2482147216796875,0.0197906494140625
1751013673165477600,8.2164775390625,-0.9790496826171875,-0.245819091796875,0.0174407958984375
1751013673175420400,8.22642041015625,-0.9787445068359375,-0.2420654296875,0.018798828125
1751013673185363500,8.236363525390624,-0.9763641357421875,-0.2421112060546875,0.0167083740234375
1751013673195307500,8.2463076171875,-0.9763641357421875,-0.2422332763671875,0.012969970703125
1751013673205250600,8.25625048828125,-0.9759063720703125,-0.2410736083984375,0.0106048583984375
1751013673215194400,8.2661943359375,-0.9773406982421875,-0.2418975830078125,0.0077972412109375
1751013673225137400,8.276137451171875,-0.97845458984375,-0.243133544921875,0.009796142578125
1751013673235081500,8.28608154296875,-0.9835662841796875,-0.2457427978515625,0.0104522705078125
1751013673245024500,8.2960244140625,-0.9850006103515625,-0.2485198974609375,0.0099639892578125
1751013673254967600,8.305967529296876,-0.98114013671875,-0.2485198974609375,0.0086517333984375
1751013673264911400,8.315911376953125,-0.98272705078125,-0.2491455078125,0.0067138671875
1751013673274854400,8.3258544921875,-0.984588623046875,-0.2536773681640625,0.0090179443359375
1751013673284798700,8.335798828125,-0.987091064453125,-0.2569732666015625,0.0093994140625
1751013673294741500,8.345741455078125,-0.98675537109375,-0.2566070556640625,0.005767822265625
1751013673304685600,8.355685546875,-0.985107421875,-0.2542572021484375,0.005035400390625
1751013673314628600,8.365628662109375,-0.9857940673828125,-0.2538299560546875,0.0037994384765625
1751013673324571600,8.375571533203125,-0.9847869873046875,-0.25439453125,0.004241943359375
1751013673334515500,8.385515380859376,-0.984405517578125,-0.25311279296875,0.0100860595703125
1751013673344458500,8.39545849609375,-0.986175537109375,-0.2521820068359375,0.010955810546875
1751013673354402600,8.405402587890626,-0.9886016845703125,-0.2512054443359375,0.012603759765625
1751013673364345600,8.415345703125,-0.9889984130859375,-0.250732421875,0.014129638671875
1751013673374288600,8.42528857421875,-0.9881591796875,-0.2499542236328125,0.013214111328125
1751013673384232400,8.435232421875,-0.9910736083984375,-0.2519989013671875,0.0125885009765625
1751013673394175500,8.445175537109375,-0.994293212890625,-0.25299072265625,0.012939453125
1751013673404119600,8.45511962890625,-0.993011474609375,-0.2540130615234375,0.010833740234375
1751013673414062600,8.4650625,-0.9917144775390625,-0.253814697265625,0.011993408203125
1751013673424006400,8.47500634765625,-0.9967498779296875,-0.2522125244140625,0.0115509033203125
1751013673433949400,8.484949462890626,-0.9976348876953125,-0.2509613037109375,0.011077880859375
1751013673443892500,8.494892578125,-0.993621826171875,-0.2521820068359375,0.0145721435546875
1751013673453836500,8.50483642578125,-0.9904632568359375,-0.2531585693359375,0.013946533203125
1751013673463779300,8.514779296875,-0.988616943359375,-0.2519989013671875,0.019195556640625
1751013673473723400,8.524723388671875,-0.98681640625,-0.2514495849609375,0.0139923095703125
1751013673483666400,8.53466650390625,-0.989532470703125,-0.2523651123046875,0.0185546875
1751013673493610500,8.544610595703125,-0.9769134521484375,-0.25439453125,0.016387939453125
1751013673503553500,8.554553466796875,-0.9725494384765625,-0.254058837890625,0.013427734375
1751013673513496300,8.564496337890626,-0.9754791259765625,-0.25555419921875,0.011932373046875
1751013673523440600,8.574440673828125,-0.9727783203125,-0.256591796875,0.0070953369140625
1751013673533383700,8.5843837890625,-0.9674224853515625,-0.2555694580078125,0.00909423828125
1751013673543327500,8.594327392578125,-0.9670867919921875,-0.2558746337890625,0.006500244140625
1751013673553270500,8.6042705078125,-0.9743804931640625,-0.25860595703125,0.0142974853515625
1751013673563214600,8.614214599609374,-0.96759033203125,-0.2607879638671875,0.0121002197265625
1751013673573156900,8.624156982421875,-0.970367431640625,-0.259002685546875,0.012939453125
1751013673583100000,8.634099853515625,-0.9741363525390625,-0.2595977783203125,0.0124053955078125
1751013673593043700,8.644043701171874,-0.973297119140625,-0.260009765625,0.01177978515625
1751013673602986800,8.65398681640625,-0.9743499755859375,-0.2598419189453125,0.0093231201171875
1751013673612930800,8.663930908203126,-0.975067138671875,-0.26007080078125,0.0056915283203125
1751013673622873900,8.673873779296875,-0.97174072265625,-0.2607421875,0.007293701171875
1751013673632817700,8.683817626953125,-0.96942138671875,-0.2589111328125,0.012176513671875
1751013673642760700,8.6937607421875,-0.975128173828125,-0.2595977783203125,0.0128173828125
1751013673652703700,8.703703857421875,-0.98004150390625,-0.2602386474609375,0.01287841796875
1751013673662648000,8.71364794921875,-0.9834747314453125,-0.2616424560546875,0.013519287109375
1751013673672590800,8.7235908203125,-0.9837799072265625,-0.262481689453125,0.0125732421875
1751013673682535000,8.733534912109375,-0.9845123291015625,-0.262603759765625,0.013427734375
1751013673692478000,8.74347802734375,-0.98486328125,-0.262359619140625,0.0128631591796875
1751013673702422000,8.753422119140625,-0.98822021484375,-0.259796142578125,0.0169525146484375
1751013673712364800,8.76336474609375,-0.9879150390625,-0.26068115234375,0.0130767822265625
1751013673722307800,8.773307861328124,-0.990325927734375,-0.263580322265625,0.01318359375
1751013673732252000,8.783251953125,-0.982421875,-0.26275634765625,0.0091552734375
1751013673742195000,8.79319482421875,-0.9818267822265625,-0.2599639892578125,0.011932373046875
1751013673752138800,8.803138671875,-0.98052978515625,-0.2622833251953125,0.0169219970703125
1751013673762081800,8.813081787109375,-0.9788360595703125,-0.2652435302734375,0.0161590576171875
1751013673772025900,8.82302587890625,-0.9750823974609375,-0.2653045654296875,0.0150146484375
1751013673781969000,8.832968994140625,-0.9742889404296875,-0.2654571533203125,0.015533447265625
1751013673791912000,8.842911865234376,-0.9760589599609375,-0.264923095703125,0.01727294921875
1751013673801855700,8.852855712890625,-0.9744110107421875,-0.265289306640625,0.019134521484375
1751013673811798800,8.862798828125,-0.97332763671875,-0.266082763671875,0.018951416015625
1751013673821742800,8.872742919921874,-0.9700775146484375,-0.266448974609375,0.0174560546875
1751013673831686000,8.882685791015625,-0.96685791015625,-0.267364501953125,0.01727294921875
1751013673841628700,8.892628662109376,-0.96466064453125,-0.266357421875,0.015106201171875
1751013673851572700,8.90257275390625,-0.9680633544921875,-0.2649993896484375,0.01422119140625
1751013673861515800,8.912515869140625,-0.9733734130859375,-0.2613372802734375,0.014404296875
1751013673871459800,8.9224599609375,-0.979095458984375,-0.2595062255859375,0.012420654296875
1751013673881402600,8.932402587890625,-0.981231689453125,-0.258392333984375,0.01214599609375
1751013673891347000,8.942346923828126,-0.9832305908203125,-0.257049560546875,0.0124053955078125
1751013673901290000,8.9522900390625,-0.9853363037109375,-0.2568511962890625,0.0141448974609375
1751013673911233000,8.96223291015625,-0.9834442138671875,-0.25726318359375,0.0175628662109375
1751013673921176800,8.9721767578125,-0.9840087890625,-0.2567596435546875,0.0184783935546875
1751013673931119900,8.982119873046875,-0.984405517578125,-0.2574005126953125,0.0162811279296875
1751013673941064000,8.99206396484375,-0.9814453125,-0.260009765625,0.0162200927734375
1751013673951007000,9.002007080078124,-0.981048583984375,-0.2618865966796875,0.0159759521484375
1751013673960950800,9.01195068359375,-0.98126220703125,-0.263153076171875,0.0150604248046875
1751013673970893800,9.021893798828126,-0.97796630859375,-0.2645111083984375,0.0181732177734375
1751013673980836900,9.0318369140625,-0.975921630859375,-0.2656402587890625,0.018829345703125
1751013673990781000,9.041781005859375,-0.9749908447265625,-0.2670135498046875,0.020599365234375
1751013674000723700,9.0517236328125,-0.9730987548828125,-0.2693634033203125,0.02020263671875
1751013674010667800,9.061667724609375,-0.9726409912109375,-0.2711639404296875,0.0174560546875
1751013674020610800,9.07161083984375,-0.9719390869140625,-0.2707977294921875,0.015350341796875
1751013674030555000,9.081554931640625,-0.975250244140625,-0.268829345703125,0.010009765625
1751013674040497700,9.09149755859375,-0.974334716796875,-0.267608642578125,0.0072479248046875
1751013674050440700,9.101440673828124,-0.9747161865234375,-0.2670440673828125,0.0068359375
1751013674060384800,9.111384765625,-0.9762725830078125,-0.26739501953125,0.00921630859375
1751013674070327800,9.121327880859376,-0.9749298095703125,-0.267608642578125,0.0100250244140625
1751013674080272000,9.13127197265625,-0.977752685546875,-0.2690582275390625,0.00689697265625
1751013674090215000,9.14121484375,-0.97821044921875,-0.2700347900390625,0.0026092529296875
1751013674100159000,9.151158935546874,-0.9754791259765625,-0.2696533203125,0.0040283203125
1751013674110102000,9.16110205078125,-0.97833251953125,-0.269439697265625,0.007843017578125
1751013674120045000,9.171045166015626,-0.981719970703125,-0.27001953125,0.0129547119140625
1751013674129988900,9.18098876953125,-0.9819488525390625,-0.27001953125,0.0161285400390625
1751013674139932000,9.190931884765625,-0.9808349609375,-0.2687835693359375,0.0142669677734375
1751013674149876000,9.2008759765625,-0.9826202392578125,-0.2677459716796875,0.009552001953125
1751013674159819000,9.210819091796875,-0.9837493896484375,-0.26715087890625,0.0060577392578125
1751013674169762800,9.2207626953125,-0.9817962646484375,-0.2664794921875,0.0040130615234375
1751013674179705900,9.230705810546874,-0.9774627685546875,-0.267486572265625,0.004638671875
1751013674189649000,9.24064892578125,-0.9776153564453125,-0.268463134765625,0.00384521484375
1751013674199592700,9.2505927734375,-0.974273681640625,-0.2686614990234375,0.004974365234375
1751013674209535700,9.26053564453125,-0.9705657958984375,-0.26690673828125,0.008148193359375
1751013674219479800,9.270479736328125,-0.971923828125,-0.267181396484375,0.010009765625
1751013674229422800,9.2804228515625,-0.971649169921875,-0.26715087890625,0.010833740234375
1751013674239366000,9.290365966796875,-0.9686126708984375,-0.2677001953125,0.013092041015625
1751013674249309700,9.300309814453126,-0.9665374755859375,-0.265625,0.0134735107421875
1751013674259252700,9.310252685546875,-0.9629669189453125,-0.266815185546875,0.01666259765625
1751013674269196800,9.32019677734375,-0.9691162109375,-0.2657928466796875,0.0196380615234375
1751013674279139800,9.330139892578124,-0.9745941162109375,-0.2639007568359375,0.01824951171875
1751013674289084000,9.340083984375,-0.9745025634765625,-0.2631683349609375,0.0154876708984375
1751013674299027000,9.35002685546875,-0.97369384765625,-0.262847900390625,0.0140228271484375
1751013674308971000,9.359970947265625,-0.97430419921875,-0.2621917724609375,0.0160675048828125
1751013674318914000,9.3699140625,-0.975860595703125,-0.265106201171875,0.0174102783203125
1751013674328856800,9.37985693359375,-0.9772491455078125,-0.2643890380859375,0.01593017578125
1751013674338801000,9.38980078125,-0.982574462890625,-0.26519775390625,0.0160064697265625
1751013674348744000,9.399743896484376,-0.9813079833984375,-0.266204833984375,0.01580810546875
1751013674358688000,9.40968798828125,-0.9822845458984375,-0.2665863037109375,0.0159912109375
1751013674368630800,9.419630859375,-0.9831085205078125,-0.26690673828125,0.017913818359375
1751013674378573800,9.42957373046875,-0.9828948974609375,-0.2686920166015625,0.01824951171875
1751013674388518000,9.439517822265625,-0.9822998046875,-0.270599365234375,0.0166473388671875
1751013674398461000,9.4494609375,-0.9805755615234375,-0.27252197265625,0.015350341796875
1751013674408404700,9.45940478515625,-0.974609375,-0.2733306884765625,0.0153961181640625
1751013674418347800,9.46934765625,-0.975372314453125,-0.27410888671875,0.0152130126953125
1751013674428291800,9.479291748046874,-0.9794464111328125,-0.2734527587890625,0.015533447265625
1751013674438235000,9.48923486328125,-0.9834442138671875,-0.273284912109375,0.0164794921875
1751013674448178000,9.499177978515625,-0.9827728271484375,-0.272674560546875,0.0169830322265625
1751013674458121700,9.509121826171874,-0.9844970703125,-0.2691650390625,0.0156402587890625
1751013674468064800,9.519064697265625,-0.9856719970703125,-0.26837158203125,0.018157958984375
1751013674478008800,9.5290087890625,-0.980865478515625,-0.2694091796875,0.0205841064453125
1751013674487952000,9.538951904296875,-0.978759765625,-0.2694091796875,0.021240234375
1751013674497896000,9.54889599609375,-0.9773712158203125,-0.269744873046875,0.0203857421875
1751013674507839000,9.5588388671875,-0.9760284423828125,-0.2710418701171875,0.0176849365234375
1751013674517781800,9.56878173828125,-0.9710235595703125,-0.2728271484375,0.0157318115234375
1751013674527725800,9.578725830078126,-0.96832275390625,-0.27435302734375,0.0147857666015625
1751013674537668900,9.5886689453125,-0.9701690673828125,-0.273681640625,0.0146331787109375
1751013674547613000,9.598613037109375,-0.9747161865234375,-0.274017333984375,0.0134124755859375
1751013674557556000,9.608555908203124,-0.9766845703125,-0.27349853515625,0.015533447265625
1751013674567499800,9.618499755859375,-0.978729248046875,-0.2693939208984375,0.0172576904296875
1751013674577443800,9.62844384765625,-0.9748382568359375,-0.267913818359375,0.0172576904296875
1751013674587386600,9.63838671875,-0.972869873046875,-0.2677459716796875,0.0162811279296875
1751013674597330700,9.64833056640625,-0.9696502685546875,-0.2665863037109375,0.016021728515625
1751013674607273700,9.658273681640624,-0.969940185546875,-0.2649688720703125,0.016387939453125
1751013674617217800,9.6682177734375,-0.975128173828125,-0.265106201171875,0.011505126953125
1751013674627160800,9.678160888671876,-0.9784393310546875,-0.265655517578125,0.0110931396484375
1751013674637104600,9.688104736328125,-0.9757843017578125,-0.266204833984375,0.0140380859375
1751013674647047700,9.698047607421875,-0.977264404296875,-0.2679595947265625,0.011566162109375
1751013674656990700,9.70799072265625,-0.9783782958984375,-0.2679290771484375,0.012939453125
1751013674666934800,9.717934814453125,-0.9725189208984375,-0.267486572265625,0.01171875
1751013674676877800,9.7278779296875,-0.9686431884765625,-0.268798828125,0.0152587890625
1751013674686821600,9.737821533203125,-0.97021484375,-0.2694549560546875,0.0135498046875
1751013674696764700,9.7477646484375,-0.97564697265625,-0.26678466796875,0.0109100341796875
1751013674706708700,9.757708740234374,-0.9792633056640625,-0.2654876708984375,0.0105438232421875
1751013674716651800,9.76765185546875,-0.9836578369140625,-0.267974853515625,0.0113525390625
1751013674726594600,9.777594482421875,-0.9868316650390625,-0.266998291015625,0.013763427734375
1751013674736538600,9.78753857421875,-0.9839630126953125,-0.266448974609375,0.0173187255859375
1751013674746481700,9.797481689453125,-0.980072021484375,-0.266815185546875,0.0170745849609375
1751013674756425700,9.80742578125,-0.9776763916015625,-0.2655181884765625,0.0202789306640625
1751013674766368500,9.817368408203125,-0.9765167236328125,-0.2620391845703125,0.0274658203125
1751013674776312800,9.827312744140626,-0.973480224609375,-0.2595367431640625,0.0353851318359375
1751013674786256000,9.837255859375,-0.9754791259765625,-0.2564697265625,0.040863037109375
1751013674796198700,9.84719873046875,-0.9774169921875,-0.25482177734375,0.043212890625
1751013674806142700,9.857142822265626,-0.9786834716796875,-0.254241943359375,0.0438690185546875
1751013674816085800,9.867085693359375,-0.97711181640625,-0.2569580078125,0.0417938232421875
1751013674826029800,9.87702978515625,-0.9727630615234375,-0.2627410888671875,0.035430908203125
1751013674835972900,9.886972900390624,-0.9688262939453125,-0.265350341796875,0.0293731689453125
1751013674845916700,9.896916748046875,-0.9665985107421875,-0.26708984375,0.023468017578125
1751013674855859700,9.906859619140626,-0.9640350341796875,-0.26861572265625,0.01654052734375
1751013674865802800,9.916802734375,-0.9652252197265625,-0.2687835693359375,0.01080322265625
1751013674875746800,9.926746826171875,-0.9700164794921875,-0.2702484130859375,0.0072784423828125
1751013674885689900,9.93668994140625,-0.9701995849609375,-0.274017333984375,0.0058746337890625
1751013674895633700,9.946633544921875,-0.97265625,-0.2743988037109375,0.004852294921875
1751013674905576700,9.95657666015625,-0.9785308837890625,-0.2713165283203125,0.003814697265625
1751013674915520800,9.966520751953125,-0.9825592041015625,-0.2689971923828125,0.0021209716796875
1751013674925463600,9.976463623046875,-0.9866180419921875,-0.26580810546875,0.002349853515625
1751013674935406600,9.986406494140626,-0.9935760498046875,-0.2634429931640625,0.0075836181640625
1751013674945350700,9.9963505859375,-0.9955596923828125,-0.2626953125,0.014434814453125
1751013674955293700,10.006293701171876,-0.996978759765625,-0.2625274658203125,0.017425537109375
1751013674965237500,10.016237548828125,-1.0019073486328125,-0.2620391845703125,0.01690673828125
1751013674975180500,10.0261806640625,-1.000823974609375,-0.2634124755859375,0.016693115234375
1751013674985124900,10.036124755859374,-0.996063232421875,-0.2659759521484375,0.0178070068359375
1751013674995068000,10.04606787109375,-0.98931884765625,-0.265411376953125,0.022735595703125
1751013675005011000,10.056010986328126,-0.9842071533203125,-0.263458251953125,0.0256195068359375
1751013675014954800,10.065954833984375,-0.9781646728515625,-0.26287841796875,0.0304107666015625
1751013675024897800,10.075897705078125,-0.97515869140625,-0.2610626220703125,0.034393310546875
1751013675034841900,10.085841796875,-0.97021484375,-0.2613372802734375,0.0384368896484375
1751013675044785000,10.095784912109375,-0.9674072265625,-0.262969970703125,0.03826904296875
1751013675054728700,10.105728759765626,-0.966949462890625,-0.26361083984375,0.03326416015625
1751013675064671700,10.115671630859374,-0.9677581787109375,-0.263427734375,0.0301666259765625
1751013675074614800,10.12561474609375,-0.96881103515625,-0.2614288330078125,0.0284881591796875
1751013675084558800,10.135558837890626,-0.9709930419921875,-0.2613067626953125,0.0283050537109375
1751013675094501600,10.145501708984375,-0.9726104736328125,-0.2623443603515625,0.027557373046875
1751013675104445700,10.15544580078125,-0.974029541015625,-0.261383056640625,0.027191162109375
1751013675114388700,10.165388671875,-0.9763031005859375,-0.2595672607421875,0.025177001953125
1751013675124332500,10.17533251953125,-0.974822998046875,-0.259246826171875,0.0221710205078125
1751013675134275600,10.185275634765626,-0.968658447265625,-0.2602996826171875,0.0230255126953125
1751013675144218600,10.195218505859375,-0.9684295654296875,-0.26068115234375,0.0244140625
1751013675154162700,10.20516259765625,-0.9707489013671875,-0.2607269287109375,0.023834228515625
1751013675164105700,10.215105712890624,-0.9709625244140625,-0.2636871337890625,0.024658203125
1751013675174049500,10.225049560546875,-0.96868896484375,-0.26763916015625,0.0252532958984375
1751013675183992600,10.23499267578125,-0.9687042236328125,-0.2690277099609375,0.022491455078125
1751013675193937000,10.24493701171875,-0.9696807861328125,-0.2693023681640625,0.0201263427734375
1751013675203880000,10.2548798828125,-0.97125244140625,-0.2696380615234375,0.02099609375
1751013675213822700,10.26482275390625,-0.9738922119140625,-0.2704010009765625,0.0216522216796875
1751013675223766800,10.274766845703125,-0.9794921875,-0.2705078125,0.0222930908203125
1751013675233709800,10.284709716796876,-0.9806060791015625,-0.2712860107421875,0.0216217041015625
1751013675243654000,10.29465380859375,-0.9811553955078125,-0.271636962890625,0.0224151611328125
1751013675253596700,10.3045966796875,-0.9832000732421875,-0.269317626953125,0.0197601318359375
1751013675263540700,10.314540771484374,-0.984527587890625,-0.2681121826171875,0.016021728515625
1751013675273483800,10.32448388671875,-0.9840240478515625,-0.2696075439453125,0.0157012939453125
1751013675283426800,10.3344267578125,-0.984588623046875,-0.2705841064453125,0.019439697265625
1751013675293370600,10.34437060546875,-0.9799957275390625,-0.2711181640625,0.02325439453125
1751013675303313700,10.354313720703125,-0.9773406982421875,-0.272247314453125,0.0251617431640625
1751013675313257700,10.3642578125,-0.9764556884765625,-0.270660400390625,0.0274658203125
1751013675323200800,10.37420068359375,-0.9748382568359375,-0.2708892822265625,0.0289306640625
1751013675333144600,10.38414453125,-0.973663330078125,-0.268707275390625,0.03045654296875
1751013675343087600,10.394087646484374,-0.97607421875,-0.265655517578125,0.0318145751953125
1751013675353030700,10.40403076171875,-0.98040771484375,-0.26287841796875,0.0309906005859375
1751013675362974700,10.413974609375,-0.987457275390625,-0.2601776123046875,0.028289794921875
1751013675372917800,10.423917724609375,-0.985687255859375,-0.2592010498046875,0.0240631103515625
1751013675382861600,10.433861572265625,-0.984954833984375,-0.258575439453125,0.0236968994140625
1751013675392804600,10.4438046875,-0.9876251220703125,-0.256866455078125,0.0235443115234375
1751013675402749000,10.4537490234375,-0.9875946044921875,-0.2574920654296875,0.0245819091796875
1751013675412691700,10.463691650390626,-0.9849090576171875,-0.261566162109375,0.0258331298828125
1751013675422634800,10.473634765625,-0.9819793701171875,-0.2649993896484375,0.025482177734375
1751013675432578800,10.483578857421875,-0.97918701171875,-0.265777587890625,0.024383544921875
1751013675442521900,10.49352197265625,-0.9811248779296875,-0.2660675048828125,0.0211944580078125
1751013675452465700,10.503465576171875,-0.9808197021484375,-0.2682647705078125,0.0202178955078125
1751013675462408700,10.51340869140625,-0.9774627685546875,-0.2686309814453125,0.0204315185546875
1751013675472352800,10.523352783203125,-0.9757537841796875,-0.2700042724609375,0.0219268798828125
1751013675482295800,10.5332958984375,-0.9743499755859375,-0.2697601318359375,0.0223388671875
1751013675492238800,10.54323876953125,-0.9701080322265625,-0.2704315185546875,0.02227783203125
1751013675502182700,10.5531826171875,-0.9647369384765625,-0.270294189453125,0.0228271484375
1751013675512125700,10.563125732421875,-0.965362548828125,-0.2706756591796875,0.023651123046875
1751013675522069800,10.57306982421875,-0.96484375,-0.2713775634765625,0.024078369140625
1751013675532012800,10.5830126953125,-0.968292236328125,-0.270172119140625,0.025238037109375
1751013675541956600,10.59295654296875,-0.971893310546875,-0.2689666748046875,0.0272979736328125
1751013675551899600,10.602899658203125,-0.9703369140625,-0.269866943359375,0.0289306640625
1751013675561842700,10.6128427734375,-0.9708099365234375,-0.2702789306640625,0.0311126708984375
1751013675571790300,10.622790283203125,-0.96978759765625,-0.2694854736328125,0.03228759765625
1751013675581732900,10.63273291015625,-0.96661376953125,-0.2681121826171875,0.031402587890625
1751013675591677200,10.64267724609375,-0.97003173828125,-0.2646026611328125,0.03143310546875
1751013675601620200,10.6526201171875,-0.9858551025390625,-0.2634735107421875,0.0321807861328125
1751013675611564000,10.66256396484375,-0.9779815673828125,-0.2645263671875,0.02642822265625
1751013675621507000,10.672507080078125,-0.959381103515625,-0.25689697265625,0.019500732421875
1751013675631450000,10.6824501953125,-0.94842529296875,-0.2573089599609375,0.025970458984375
1751013675641394200,10.692394287109375,-0.8780975341796875,-0.2680206298828125,0.0515899658203125
1751013675651337200,10.702337158203125,-1.0058746337890625,-0.2719268798828125,0.0568389892578125
1751013675661281000,10.712281005859374,-1.034637451171875,-0.2804718017578125,0.0395355224609375
1751013675671224000,10.72222412109375,-1.01165771484375,-0.283477783203125,0.0312652587890625
1751013675681168100,10.732168212890626,-0.9940185546875,-0.2741546630859375,0.0371856689453125
1751013675691111200,10.742111083984375,-1.000732421875,-0.2688140869140625,0.0313873291015625
1751013675701054200,10.75205419921875,-1.019866943359375,-0.2674102783203125,0.0252838134765625
1751013675710998000,10.761998046875,-1.0156707763671875,-0.26416015625,0.0285186767578125
1751013675720941000,10.771941162109375,-0.994720458984375,-0.2653045654296875,0.038665771484375
1751013675730885000,10.781885009765626,-0.951934814453125,-0.267425537109375,0.0310821533203125
