time,seconds_elapsed,z,y,x
1751013646990031000,0.125031005859375,-0.9855499267578125,-0.3524627685546875,0.0216064453125
1751013646999974000,0.134973876953125,-0.9996337890625,-0.327362060546875,0.048583984375
1751013647009917000,0.1449169921875,-0.9970703125,-0.2857208251953125,0.0225677490234375
1751013647019861000,0.154861083984375,-0.950653076171875,-0.2769927978515625,-0.004608154296875
1751013647029804000,0.164803955078125,-0.9138641357421875,-0.3248748779296875,0.01837158203125
1751013647039747800,0.174747802734375,-0.9343719482421875,-0.3245086669921875,0.0397491455078125
1751013647049691000,0.18469091796875,-0.9445343017578125,-0.2994537353515625,0.0578765869140625
1751013647059635000,0.194635009765625,-0.9317169189453125,-0.2933807373046875,0.049530029296875
1751013647069578000,0.204577880859375,-0.94171142578125,-0.2905426025390625,0.0366973876953125
1751013647079521000,0.21452099609375,-0.9526214599609375,-0.2823028564453125,0.0313720703125
1751013647089464800,0.22446484375,-0.94854736328125,-0.2734832763671875,0.0244598388671875
1751013647099408000,0.234407958984375,-0.94854736328125,-0.2660675048828125,0.02093505859375
1751013647109352200,0.244352294921875,-0.9542388916015625,-0.2624053955078125,0.0278167724609375
1751013647119295000,0.254294921875,-0.967010498046875,-0.263458251953125,0.0406341552734375
1751013647129239000,0.264239013671875,-0.9651031494140625,-0.2676849365234375,0.0535888671875
1751013647139182000,0.27418212890625,-0.957275390625,-0.268341064453125,0.0587615966796875
1751013647149126100,0.284126220703125,-0.961212158203125,-0.2669525146484375,0.0646209716796875
1751013647159069200,0.294069091796875,-0.9668121337890625,-0.2709808349609375,0.0646209716796875
1751013647169012000,0.304011962890625,-0.9731292724609375,-0.27337646484375,0.0658111572265625
1751013647178956000,0.3139560546875,-0.9794921875,-0.2764129638671875,0.0662841796875
1751013647188899000,0.323899169921875,-0.987548828125,-0.2818756103515625,0.0649871826171875
1751013647198843000,0.3338427734375,-0.991302490234375,-0.2874603271484375,0.0668792724609375
1751013647208786000,0.343785888671875,-0.995361328125,-0.289215087890625,0.066680908203125
1751013647218730000,0.35372998046875,-0.996856689453125,-0.29449462890625,0.0587005615234375
1751013647228673000,0.363673095703125,-0.992767333984375,-0.2983245849609375,0.0490570068359375
1751013647238616000,0.373615966796875,-0.992584228515625,-0.2975311279296875,0.0413818359375
1751013647248559900,0.383559814453125,-0.995941162109375,-0.293304443359375,0.0357513427734375
1751013647258503000,0.3935029296875,-0.9931793212890625,-0.29296875,0.033172607421875
1751013647268447000,0.403447021484375,-0.9938812255859375,-0.293853759765625,0.0389404296875
1751013647278390000,0.41339013671875,-0.9929656982421875,-0.2978057861328125,0.04290771484375
1751013647288333800,0.423333740234375,-0.9850616455078125,-0.2964324951171875,0.0438232421875
1751013647298276900,0.43327685546875,-0.980010986328125,-0.291748046875,0.0421142578125
1751013647308221200,0.44322119140625,-0.9760284423828125,-0.28955078125,0.0418853759765625
1751013647318164200,0.453164306640625,-0.9817657470703125,-0.287750244140625,0.0436859130859375
1751013647328107000,0.46310693359375,-0.99151611328125,-0.2840728759765625,0.0478515625
1751013647338051000,0.473051025390625,-0.99127197265625,-0.284637451171875,0.0514678955078125
1751013647347994000,0.482994140625,-0.98748779296875,-0.2858123779296875,0.04644775390625
1751013647357938200,0.492938232421875,-0.9923858642578125,-0.283599853515625,0.039825439453125
1751013647367881000,0.502880859375,-0.996368408203125,-0.282501220703125,0.03839111328125
1751013647377825000,0.512824951171875,-0.9965667724609375,-0.281951904296875,0.0351715087890625
1751013647387768000,0.52276806640625,-0.994964599609375,-0.2825164794921875,0.02752685546875
1751013647397711000,0.532711181640625,-0.99591064453125,-0.2808685302734375,0.02105712890625
1751013647407655000,0.542655029296875,-0.991180419921875,-0.278045654296875,0.017333984375
1751013647417598000,0.552597900390625,-0.9880523681640625,-0.2774658203125,0.0201416015625
1751013647427542000,0.5625419921875,-0.987030029296875,-0.278289794921875,0.0280303955078125
1751013647437485000,0.572485107421875,-0.9853668212890625,-0.2763214111328125,0.032623291015625
1751013647447428900,0.582428955078125,-0.979827880859375,-0.2768096923828125,0.032806396484375
1751013647457372000,0.592371826171875,-0.9713287353515625,-0.282012939453125,0.0268096923828125
1751013647467316000,0.60231591796875,-0.9663848876953125,-0.285888671875,0.019439697265625
1751013647477259000,0.612259033203125,-0.9613037109375,-0.2866668701171875,0.0206451416015625
1751013647487202000,0.6222021484375,-0.9584808349609375,-0.2880706787109375,0.0206756591796875
1751013647497145900,0.632145751953125,-0.9593505859375,-0.2897491455078125,0.0233306884765625
1751013647507089000,0.6420888671875,-0.9573974609375,-0.29241943359375,0.026824951171875
1751013647517033200,0.652033203125,-0.95782470703125,-0.292938232421875,0.02874755859375
1751013647526976000,0.66197607421875,-0.958526611328125,-0.2940216064453125,0.0250091552734375
1751013647536920000,0.671920166015625,-0.9518585205078125,-0.2948455810546875,0.017669677734375
1751013647546861800,0.68186181640625,-0.947540283203125,-0.29052734375,0.0123443603515625
1751013647556804900,0.691804931640625,-0.951416015625,-0.2906494140625,0.0151519775390625
1751013647566749200,0.701749267578125,-0.9539337158203125,-0.2926483154296875,0.0201568603515625
1751013647576692200,0.711692138671875,-0.954071044921875,-0.2930145263671875,0.0244903564453125
1751013647586636000,0.721635986328125,-0.95367431640625,-0.2927703857421875,0.03106689453125
1751013647596579000,0.7315791015625,-0.954498291015625,-0.2947540283203125,0.0377655029296875
1751013647606523100,0.741523193359375,-0.9563140869140625,-0.2981109619140625,0.038238525390625
1751013647616466000,0.7514658203125,-0.95794677734375,-0.29522705078125,0.038177490234375
1751013647626410000,0.761409912109375,-0.95782470703125,-0.29046630859375,0.036041259765625
1751013647636353000,0.77135302734375,-0.954559326171875,-0.2892913818359375,0.03448486328125
1751013647646296000,0.781296142578125,-0.95257568359375,-0.2908172607421875,0.035400390625
1751013647656239900,0.791239990234375,-0.9509124755859375,-0.292236328125,0.0392913818359375
1751013647666183000,0.801182861328125,-0.95623779296875,-0.2916412353515625,0.0405120849609375
1751013647676127000,0.811126953125,-0.959503173828125,-0.2919158935546875,0.041351318359375
1751013647686070000,0.821070068359375,-0.963714599609375,-0.2905120849609375,0.045623779296875
1751013647696013800,0.831013916015625,-0.9710693359375,-0.2910003662109375,0.043670654296875
1751013647705956900,0.840956787109375,-0.9706268310546875,-0.2935791015625,0.04132080078125
1751013647715900000,0.85089990234375,-0.9674835205078125,-0.2959136962890625,0.0391998291015625
1751013647725844000,0.860843994140625,-0.9706878662109375,-0.29718017578125,0.0387420654296875
1751013647735787000,0.870787109375,-0.97271728515625,-0.297698974609375,0.0393218994140625
1751013647745730800,0.880730712890625,-0.9707183837890625,-0.30029296875,0.0399932861328125
1751013647755673900,0.890673828125,-0.9723968505859375,-0.2998504638671875,0.03753662109375
1751013647765618200,0.9006181640625,-0.979034423828125,-0.29937744140625,0.03668212890625
1751013647775561200,0.910561279296875,-0.9915924072265625,-0.2984619140625,0.0348968505859375
1751013647785505000,0.920505126953125,-1.00152587890625,-0.296905517578125,0.033782958984375
1751013647795448000,0.930447998046875,-1.0017242431640625,-0.293212890625,0.0264892578125
1751013647805391000,0.94039111328125,-1.000701904296875,-0.2892913818359375,0.0189056396484375
1751013647815335000,0.9503349609375,-0.9970550537109375,-0.2848663330078125,0.0125732421875
1751013647825278000,0.96027783203125,-0.989044189453125,-0.2799224853515625,0.0083160400390625
1751013647835222000,0.970221923828125,-0.9777679443359375,-0.279296875,0.0091400146484375
1751013647845165000,0.9801650390625,-0.966461181640625,-0.27911376953125,0.0159912109375
1751013647855108900,0.99010888671875,-0.9633941650390625,-0.2809295654296875,0.02154541015625
1751013647865052000,1.000052001953125,-0.959381103515625,-0.2841644287109375,0.023101806640625
1751013647874995000,1.009994873046875,-0.951904296875,-0.2863311767578125,0.0229034423828125
1751013647884939000,1.01993896484375,-0.9513397216796875,-0.2881317138671875,0.02337646484375
1751013647894882000,1.029882080078125,-0.9536285400390625,-0.2922821044921875,0.02392578125
1751013647904825900,1.039825927734375,-0.9528961181640625,-0.2950439453125,0.0252227783203125
1751013647914769000,1.049768798828125,-0.9506378173828125,-0.2976226806640625,0.0242919921875
1751013647924713000,1.059712890625,-0.9510955810546875,-0.2969207763671875,0.020294189453125
1751013647934656000,1.069656005859375,-0.948699951171875,-0.2941741943359375,0.01629638671875
1751013647944599000,1.07959912109375,-0.9482574462890625,-0.2929840087890625,0.01416015625
1751013647954542800,1.08954296875,-0.9515533447265625,-0.29315185546875,0.0106964111328125
1751013647964486000,1.09948583984375,-0.9491119384765625,-0.296539306640625,0.0076751708984375
1751013647974430200,1.10943017578125,-0.941741943359375,-0.2986602783203125,0.0066375732421875
1751013647984373000,1.119373046875,-0.9449920654296875,-0.2962188720703125,0.0117340087890625
1751013647994317000,1.129317138671875,-0.9544219970703125,-0.29425048828125,0.016632080078125
1751013648004260000,1.139260009765625,-0.960205078125,-0.293365478515625,0.01959228515625
1751013648014204000,1.149203857421875,-0.962615966796875,-0.2919769287109375,0.023101806640625
1751013648024147000,1.15914697265625,-0.9645538330078125,-0.2906951904296875,0.025970458984375
1751013648034090000,1.169090087890625,-0.9658050537109375,-0.2883758544921875,0.0273590087890625
1751013648044034000,1.179033935546875,-0.9717559814453125,-0.281524658203125,0.0257568359375
1751013648053977000,1.18897705078125,-0.977691650390625,-0.27838134765625,0.0289154052734375
1751013648063921000,1.1989208984375,-0.9775238037109375,-0.2775115966796875,0.026611328125
1751013648073864000,1.208864013671875,-0.96826171875,-0.269134521484375,0.0215301513671875
1751013648083808000,1.21880810546875,-0.9628448486328125,-0.2570037841796875,0.0247344970703125
1751013648093751000,1.2287509765625,-0.9649810791015625,-0.254425048828125,0.0300750732421875
1751013648103694000,1.238694091796875,-0.9676971435546875,-0.257537841796875,0.036346435546875
1751013648113638000,1.248637939453125,-0.9698638916015625,-0.2623291015625,0.0449981689453125
1751013648123581000,1.258580810546875,-0.9729766845703125,-0.26348876953125,0.0495452880859375
1751013648133525000,1.26852490234375,-0.9747467041015625,-0.2652587890625,0.0518951416015625
1751013648143467800,1.2784677734375,-0.9758453369140625,-0.2696380615234375,0.052215576171875
1751013648153412000,1.288412109375,-0.97119140625,-0.2731781005859375,0.05126953125
1751013648163355000,1.29835498046875,-0.9693756103515625,-0.27398681640625,0.0494842529296875
1751013648173299200,1.30829931640625,-0.9737548828125,-0.2716827392578125,0.0484771728515625
1751013648183242000,1.318241943359375,-0.977691650390625,-0.272491455078125,0.04730224609375
1751013648193185000,1.32818505859375,-0.9759521484375,-0.2717132568359375,0.0462493896484375
1751013648203129000,1.338129150390625,-0.9769134521484375,-0.2663116455078125,0.0466461181640625
1751013648213072100,1.348072021484375,-0.9808807373046875,-0.2629547119140625,0.0493316650390625
1751013648223016000,1.358015869140625,-0.9859771728515625,-0.2607574462890625,0.051177978515625
1751013648232959000,1.367958984375,-0.988037109375,-0.25897216796875,0.05206298828125
1751013648242903000,1.377903076171875,-0.987579345703125,-0.2574005126953125,0.0529022216796875
1751013648252846000,1.38784619140625,-0.9870452880859375,-0.2558441162109375,0.0562591552734375
1751013648262790000,1.397789794921875,-0.988006591796875,-0.2558135986328125,0.0585174560546875
1751013648272733000,1.40773291015625,-0.9897918701171875,-0.2553253173828125,0.056884765625
1751013648282676000,1.417676025390625,-0.991851806640625,-0.2536468505859375,0.05023193359375
1751013648292620000,1.4276201171875,-0.9912567138671875,-0.252471923828125,0.04461669921875
1751013648302563000,1.43756298828125,-0.995147705078125,-0.252777099609375,0.042633056640625
1751013648312507000,1.4475068359375,-0.9989471435546875,-0.255035400390625,0.0468292236328125
1751013648322450000,1.457449951171875,-0.99652099609375,-0.255859375,0.0500946044921875
1751013648332394000,1.46739404296875,-0.9920654296875,-0.2529144287109375,0.048309326171875
1751013648342336800,1.477336669921875,-0.9909820556640625,-0.2507476806640625,0.041778564453125
1751013648352281000,1.487281005859375,-0.9882049560546875,-0.2507781982421875,0.0372772216796875
1751013648362224000,1.49722412109375,-0.9832000732421875,-0.250457763671875,0.0349884033203125
1751013648372167200,1.507167236328125,-0.9818878173828125,-0.2509613037109375,0.0357666015625
1751013648382111000,1.517111083984375,-0.9889373779296875,-0.251617431640625,0.0432586669921875
1751013648392054000,1.527053955078125,-0.9918060302734375,-0.25140380859375,0.05328369140625
1751013648401998000,1.536998046875,-0.99029541015625,-0.253509521484375,0.0641937255859375
1751013648411941000,1.546941162109375,-0.98651123046875,-0.2545013427734375,0.06890869140625
1751013648421885000,1.556885009765625,-0.981658935546875,-0.2528076171875,0.06707763671875
1751013648431828000,1.566827880859375,-0.9792633056640625,-0.2498779296875,0.0634002685546875
1751013648441771000,1.57677099609375,-0.972564697265625,-0.249053955078125,0.063262939453125
1751013648451715000,1.586715087890625,-0.966796875,-0.24957275390625,0.0628204345703125
1751013648461658000,1.596658203125,-0.969970703125,-0.2507781982421875,0.06170654296875
1751013648471602000,1.606601806640625,-0.9769287109375,-0.2512359619140625,0.0605621337890625
1751013648481545000,1.616544921875,-0.977874755859375,-0.250152587890625,0.0577392578125
1751013648491489000,1.626489013671875,-0.976409912109375,-0.2488555908203125,0.05474853515625
1751013648501432000,1.63643212890625,-0.976226806640625,-0.2496337890625,0.053802490234375
1751013648511376000,1.6463759765625,-0.9810333251953125,-0.2527923583984375,0.048187255859375
1751013648521319000,1.65631884765625,-0.9843902587890625,-0.2537841796875,0.04156494140625
1751013648531262000,1.666261962890625,-0.984710693359375,-0.2508087158203125,0.038055419921875
1751013648541205800,1.676205810546875,-0.9874114990234375,-0.248565673828125,0.0386810302734375
1751013648551149000,1.686149169921875,-0.993133544921875,-0.2498779296875,0.0369415283203125
1751013648561093000,1.696093017578125,-0.9959869384765625,-0.2508544921875,0.0366973876953125
1751013648571036200,1.7060361328125,-0.9957122802734375,-0.2511749267578125,0.033294677734375
1751013648580980000,1.71597998046875,-0.9946746826171875,-0.2520904541015625,0.027496337890625
1751013648590923000,1.725923095703125,-0.9904327392578125,-0.25506591796875,0.027862548828125
1751013648600867000,1.7358671875,-0.994537353515625,-0.2554931640625,0.0279083251953125
1751013648610810000,1.74581005859375,-1.0003204345703125,-0.25439453125,0.0274810791015625
1751013648620753200,1.755753173828125,-1.003997802734375,-0.255828857421875,0.0242919921875
1751013648630697000,1.765697021484375,-1.0126800537109375,-0.255706787109375,0.0167083740234375
1751013648640640000,1.775639892578125,-1.0170440673828125,-0.2557373046875,0.009674072265625
1751013648650584300,1.785584228515625,-1.0148468017578125,-0.256378173828125,0.007659912109375
1751013648660527000,1.795527099609375,-1.0057373046875,-0.2575836181640625,0.004791259765625
1751013648670471200,1.80547119140625,-0.99163818359375,-0.259521484375,0.000701904296875
1751013648680414200,1.815414306640625,-0.9824371337890625,-0.257415771484375,0.003448486328125
1751013648690357200,1.825357177734375,-0.9833221435546875,-0.2549896240234375,0.009857177734375
1751013648700301000,1.835301025390625,-0.981536865234375,-0.2542877197265625,0.01959228515625
1751013648710244000,1.845244140625,-0.9831085205078125,-0.25469970703125,0.0231170654296875
1751013648720188200,1.855188232421875,-0.9873809814453125,-0.254058837890625,0.0245513916015625
1751013648730131200,1.865131103515625,-0.983367919921875,-0.254425048828125,0.026641845703125
1751013648740075000,1.875074951171875,-0.977447509765625,-0.2524261474609375,0.028228759765625
1751013648750018000,1.88501806640625,-0.976318359375,-0.2504119873046875,0.0311737060546875
1751013648759962000,1.894962158203125,-0.9752197265625,-0.249114990234375,0.0298614501953125
1751013648769905200,1.9049052734375,-0.9730072021484375,-0.2469024658203125,0.02740478515625
1751013648779848200,1.91484814453125,-0.9766082763671875,-0.2454986572265625,0.0319061279296875
1751013648789792000,1.9247919921875,-0.9818115234375,-0.244354248046875,0.0382232666015625
1751013648799735000,1.934735107421875,-0.988311767578125,-0.2429962158203125,0.0420379638671875
1751013648809679000,1.94467919921875,-0.9917755126953125,-0.24151611328125,0.041168212890625
1751013648819622100,1.9546220703125,-0.994781494140625,-0.239501953125,0.037445068359375
1751013648829566000,1.96456591796875,-0.99371337890625,-0.238433837890625,0.0354156494140625
1751013648839509000,1.974509033203125,-0.993408203125,-0.2375640869140625,0.034271240234375
1751013648849452000,1.9844521484375,-0.9899139404296875,-0.238616943359375,0.033172607421875
1751013648859396000,1.99439599609375,-0.9855194091796875,-0.2393951416015625,0.0302734375
1751013648869339100,2.004339111328125,-0.979278564453125,-0.24176025390625,0.03021240234375
1751013648879283200,2.014283203125,-0.9732513427734375,-0.2430572509765625,0.03326416015625
1751013648889226200,2.024226318359375,-0.9683685302734375,-0.2460174560546875,0.03564453125
1751013648899170000,2.034170166015625,-0.96533203125,-0.2493896484375,0.0381317138671875
1751013648909113000,2.044113037109375,-0.96295166015625,-0.2519683837890625,0.04119873046875
1751013648919057200,2.05405712890625,-0.96429443359375,-0.2536773681640625,0.0447845458984375
1751013648929000200,2.064000244140625,-0.9653167724609375,-0.2565155029296875,0.052215576171875
1751013648938943200,2.073943115234375,-0.9626007080078125,-0.26080322265625,0.0571441650390625
1751013648948887000,2.083886962890625,-0.96075439453125,-0.262359619140625,0.0581817626953125
1751013648958830000,2.093830078125,-0.958648681640625,-0.264129638671875,0.0533905029296875
1751013648968774100,2.103774169921875,-0.95611572265625,-0.2648162841796875,0.049530029296875
1751013648978717200,2.11371728515625,-0.9556884765625,-0.265899658203125,0.049163818359375
1751013648988661000,2.123660888671875,-0.959808349609375,-0.267425537109375,0.0518646240234375
1751013648998604000,2.13360400390625,-0.9621124267578125,-0.2679443359375,0.053802490234375
1751013649008548000,2.143548095703125,-0.9663543701171875,-0.2671966552734375,0.055389404296875
1751013649018491100,2.1534912109375,-0.9712982177734375,-0.26531982421875,0.057708740234375
1751013649028434000,2.163433837890625,-0.97698974609375,-0.2653350830078125,0.056854248046875
1751013649038378000,2.1733779296875,-0.9827880859375,-0.26239013671875,0.05657958984375
1751013649048321000,2.183321044921875,-0.99041748046875,-0.2606964111328125,0.0572662353515625
1751013649058265000,2.19326513671875,-0.9946136474609375,-0.2620086669921875,0.056427001953125
1751013649068208000,2.2032080078125,-0.99615478515625,-0.2606964111328125,0.055694580078125
1751013649078152200,2.213152099609375,-1.0012969970703125,-0.2553863525390625,0.05706787109375
1751013649088095200,2.22309521484375,-1.0010833740234375,-0.251068115234375,0.0574798583984375
1751013649098038300,2.233038330078125,-1.001983642578125,-0.248565673828125,0.0538177490234375
1751013649107982000,2.242982177734375,-0.99884033203125,-0.24725341796875,0.0490570068359375
1751013649117925000,2.252925048828125,-0.9915618896484375,-0.2454833984375,0.043731689453125
1751013649127869200,2.262869140625,-0.98175048828125,-0.2428436279296875,0.045623779296875
1751013649137812200,2.272812255859375,-0.9709320068359375,-0.2454681396484375,0.049591064453125
1751013649147756000,2.282756103515625,-0.9683685302734375,-0.2485198974609375,0.05078125
1751013649157699000,2.292698974609375,-0.964263916015625,-0.250030517578125,0.05169677734375
1751013649167643100,2.30264306640625,-0.9630279541015625,-0.25262451171875,0.0524444580078125
1751013649177586200,2.312586181640625,-0.9643096923828125,-0.2557373046875,0.0570220947265625
1751013649187529000,2.322529052734375,-0.9625701904296875,-0.2595062255859375,0.062530517578125
1751013649197473000,2.33247314453125,-0.9600982666015625,-0.2613677978515625,0.0655975341796875
1751013649207416000,2.342416015625,-0.9600982666015625,-0.261810302734375,0.063751220703125
1751013649217360100,2.352360107421875,-0.9597320556640625,-0.2626190185546875,0.061248779296875
1751013649227303000,2.362302978515625,-0.9618682861328125,-0.2623443603515625,0.05828857421875
1751013649237247200,2.372247314453125,-0.9638519287109375,-0.260833740234375,0.055389404296875
1751013649247190000,2.38218994140625,-0.966705322265625,-0.2602691650390625,0.0563201904296875
1751013649257134000,2.392134033203125,-0.972076416015625,-0.261505126953125,0.0546112060546875
1751013649267077000,2.4020771484375,-0.97723388671875,-0.2622528076171875,0.0549774169921875
1751013649277020200,2.412020263671875,-0.97613525390625,-0.261016845703125,0.058349609375
1751013649286964200,2.421964111328125,-0.9773406982421875,-0.2580108642578125,0.060455322265625
1751013649296907300,2.4319072265625,-0.9817962646484375,-0.2568359375,0.0584716796875
1751013649306851000,2.44185107421875,-0.9867401123046875,-0.255279541015625,0.0562591552734375
1751013649316794000,2.451794189453125,-0.98797607421875,-0.253814697265625,0.0584716796875
1751013649326738200,2.46173828125,-0.9880218505859375,-0.2522125244140625,0.0607147216796875
1751013649336681200,2.47168115234375,-0.989654541015625,-0.250946044921875,0.0632171630859375
1751013649346624300,2.481624267578125,-0.9927520751953125,-0.2497711181640625,0.0640869140625
1751013649356568000,2.491568115234375,-0.9932098388671875,-0.249725341796875,0.0638580322265625
1751013649366511000,2.501510986328125,-0.9910430908203125,-0.2496490478515625,0.0624847412109375
1751013649376455200,2.511455078125,-0.9943389892578125,-0.2486419677734375,0.0604400634765625
1751013649386398000,2.52139794921875,-0.997833251953125,-0.248260498046875,0.0585479736328125
1751013649396342000,2.531342041015625,-0.9965972900390625,-0.24908447265625,0.058563232421875
1751013649406285000,2.54128515625,-0.997711181640625,-0.2492523193359375,0.0587158203125
1751013649416229000,2.55122900390625,-0.99383544921875,-0.252197265625,0.05694580078125
1751013649426172000,2.561171875,-0.990447998046875,-0.2535552978515625,0.0532379150390625
1751013649436115000,2.571114990234375,-0.98870849609375,-0.251953125,0.0514984130859375
1751013649446059300,2.581059326171875,-0.98486328125,-0.2508697509765625,0.0514373779296875
1751013649456002300,2.591002197265625,-0.981201171875,-0.253204345703125,0.0559539794921875
1751013649465946000,2.600946044921875,-0.9741668701171875,-0.25396728515625,0.0591583251953125
1751013649475889200,2.61088916015625,-0.9704742431640625,-0.2533416748046875,0.05975341796875
1751013649485833200,2.620833251953125,-0.966064453125,-0.253875732421875,0.0589752197265625
1751013649495776300,2.6307763671875,-0.9619903564453125,-0.253387451171875,0.056549072265625
1751013649505720000,2.640719970703125,-0.9578094482421875,-0.2533111572265625,0.0557708740234375
1751013649515663000,2.6506630859375,-0.9576263427734375,-0.25408935546875,0.055755615234375
1751013649525606100,2.660606201171875,-0.961639404296875,-0.2576141357421875,0.0573577880859375
1751013649535550200,2.67055029296875,-0.972076416015625,-0.25787353515625,0.05853271484375
1751013649545493000,2.680492919921875,-0.98193359375,-0.2564849853515625,0.0538330078125
1751013649555436800,2.690436767578125,-0.9837188720703125,-0.2574615478515625,0.0459442138671875
1751013649565379800,2.7003798828125,-0.984222412109375,-0.2552947998046875,0.0426788330078125
1751013649575324000,2.710323974609375,-0.9846038818359375,-0.25189208984375,0.04144287109375
1751013649585267000,2.720266845703125,-0.9849090576171875,-0.2507171630859375,0.0421142578125
1751013649595209700,2.730209716796875,-0.9790496826171875,-0.2511138916015625,0.042877197265625
1751013649605153800,2.74015380859375,-0.9768524169921875,-0.2494659423828125,0.042083740234375
1751013649615096800,2.750096923828125,-0.978118896484375,-0.2469940185546875,0.0420684814453125
1751013649625041000,2.760041015625,-0.9767303466796875,-0.247039794921875,0.0424957275390625
1751013649634983700,2.769983642578125,-0.9775238037109375,-0.2490386962890625,0.0458984375
1751013649644928000,2.779927978515625,-0.9830474853515625,-0.250640869140625,0.0494537353515625
1751013649654871000,2.78987109375,-0.9851226806640625,-0.252593994140625,0.0496368408203125
1751013649664814800,2.79981494140625,-0.985198974609375,-0.25164794921875,0.048004150390625
1751013649674758000,2.8097578125,-0.9839324951171875,-0.2517852783203125,0.045501708984375
1751013649684701000,2.819700927734375,-0.983612060546875,-0.251953125,0.0423583984375
1751013649694645000,2.82964501953125,-0.9825592041015625,-0.2520904541015625,0.039306640625
1751013649704588000,2.839588134765625,-0.9827728271484375,-0.2536163330078125,0.037841796875
1751013649714531800,2.84953173828125,-0.981903076171875,-0.2561492919921875,0.0376434326171875
1751013649724475000,2.859474853515625,-0.9853515625,-0.257659912109375,0.0379180908203125
1751013649734419000,2.8694189453125,-0.9887542724609375,-0.2567901611328125,0.04095458984375
1751013649744362000,2.879362060546875,-0.988861083984375,-0.2550201416015625,0.0405426025390625
1751013649754304800,2.8893046875,-0.988433837890625,-0.2550048828125,0.0402679443359375
1751013649764248800,2.899248779296875,-0.9917449951171875,-0.25103759765625,0.0428466796875
1751013649774191900,2.90919189453125,-0.9930572509765625,-0.2488555908203125,0.0442047119140625
1751013649784136000,2.919135986328125,-0.9880523681640625,-0.247467041015625,0.0424346923828125
1751013649794078700,2.92907861328125,-0.9854888916015625,-0.245574951171875,0.0430450439453125
1751013649804022800,2.939022705078125,-0.983489990234375,-0.243896484375,0.046112060546875
1751013649813965800,2.9489658203125,-0.9801788330078125,-0.24468994140625,0.0471343994140625
1751013649823909600,2.95890966796875,-0.9779510498046875,-0.2444610595703125,0.0456085205078125
1751013649833852700,2.968852783203125,-0.980621337890625,-0.244781494140625,0.0445098876953125
1751013649843795700,2.978795654296875,-0.9803466796875,-0.244049072265625,0.0471649169921875
1751013649853740000,2.988739990234375,-0.9761810302734375,-0.24383544921875,0.050567626953125
1751013649863683000,2.99868310546875,-0.973907470703125,-0.244873046875,0.0522613525390625
1751013649873627000,3.008626953125,-0.97479248046875,-0.245330810546875,0.050140380859375
1751013649883570000,3.01856982421875,-0.98175048828125,-0.2437896728515625,0.047882080078125
1751013649893514000,3.028513916015625,-0.9864044189453125,-0.2443389892578125,0.0477142333984375
1751013649903457000,3.03845703125,-0.983154296875,-0.2442626953125,0.0473785400390625
1751013649913399800,3.04839990234375,-0.982452392578125,-0.241485595703125,0.0494384765625
1751013649923344000,3.05834375,-0.979736328125,-0.24072265625,0.05096435546875
1751013649933287000,3.068286865234375,-0.976104736328125,-0.240875244140625,0.0506744384765625
1751013649943231000,3.07823095703125,-0.9770355224609375,-0.2419281005859375,0.0492095947265625
1751013649953173800,3.088173828125,-0.979400634765625,-0.242034912109375,0.049285888671875
1751013649963117800,3.098117919921875,-0.9801025390625,-0.24237060546875,0.0512847900390625
1751013649973060900,3.108060791015625,-0.9801177978515625,-0.2428741455078125,0.051971435546875
1751013649983005000,3.1180048828125,-0.980438232421875,-0.2427520751953125,0.0501251220703125
1751013649992947700,3.12794775390625,-0.981536865234375,-0.241912841796875,0.048828125
1751013650002890800,3.137890869140625,-0.978057861328125,-0.2410430908203125,0.0462188720703125
1751013650012834800,3.147834716796875,-0.9791107177734375,-0.2435455322265625,0.0428619384765625
1751013650022777900,3.15777783203125,-0.97998046875,-0.2476959228515625,0.043609619140625
1751013650032721700,3.1677216796875,-0.9791412353515625,-0.24810791015625,0.0455169677734375
1751013650042664700,3.177664794921875,-0.980712890625,-0.2496795654296875,0.044769287109375
1751013650052609000,3.187609130859375,-0.985992431640625,-0.249664306640625,0.04510498046875
1751013650062552000,3.197552001953125,-0.9866943359375,-0.2505340576171875,0.0498199462890625
1751013650072495000,3.2074951171875,-0.9836578369140625,-0.2516326904296875,0.05126953125
1751013650082439000,3.21743896484375,-0.98504638671875,-0.2509002685546875,0.051239013671875
1751013650092382000,3.2273818359375,-0.9921722412109375,-0.2509002685546875,0.0471343994140625
1751013650102326000,3.237325927734375,-0.9931488037109375,-0.2500152587890625,0.04437255859375
1751013650112268800,3.247268798828125,-0.989959716796875,-0.2499237060546875,0.04376220703125
1751013650122212900,3.257212890625,-0.9897003173828125,-0.249542236328125,0.0443267822265625
1751013650132156000,3.267156005859375,-0.9868621826171875,-0.2487945556640625,0.0454559326171875
1751013650142100000,3.277099853515625,-0.985687255859375,-0.24737548828125,0.0445556640625
1751013650152042800,3.287042724609375,-0.9859466552734375,-0.2458648681640625,0.0424041748046875
1751013650161985800,3.29698583984375,-0.985198974609375,-0.2434539794921875,0.0428009033203125
1751013650171929900,3.306929931640625,-0.985321044921875,-0.24237060546875,0.047760009765625
1751013650181873000,3.316872802734375,-0.9852752685546875,-0.2418365478515625,0.052764892578125
1751013650191816700,3.326816650390625,-0.9874725341796875,-0.2384796142578125,0.0552520751953125
1751013650201759700,3.336759765625,-0.9854583740234375,-0.2368621826171875,0.056549072265625
1751013650211703800,3.346703857421875,-0.982757568359375,-0.23687744140625,0.0555419921875
1751013650221646800,3.356646728515625,-0.9793853759765625,-0.2362060546875,0.0542755126953125
1751013650231590000,3.36658984375,-0.9747772216796875,-0.2354888916015625,0.053466796875
1751013650241533700,3.37653369140625,-0.969696044921875,-0.2348785400390625,0.05169677734375
1751013650251476700,3.386476806640625,-0.970550537109375,-0.2360687255859375,0.04815673828125
1751013650261421000,3.396421142578125,-0.973968505859375,-0.2383575439453125,0.04644775390625
1751013650271364000,3.406364013671875,-0.9714202880859375,-0.2428436279296875,0.0480194091796875
1751013650281308000,3.416307861328125,-0.9688720703125,-0.2460174560546875,0.0505523681640625
1751013650291251000,3.4262509765625,-0.969268798828125,-0.2451171875,0.056060791015625
1751013650301194000,3.436194091796875,-0.969482421875,-0.24810791015625,0.0608367919921875
1751013650311137800,3.4461376953125,-0.968597412109375,-0.2529144287109375,0.0651092529296875
1751013650321080800,3.456080810546875,-0.9720611572265625,-0.25555419921875,0.0664520263671875
1751013650331025000,3.46602490234375,-0.9773712158203125,-0.253997802734375,0.0680389404296875
1751013650340968000,3.475968017578125,-0.9806060791015625,-0.2526092529296875,0.066497802734375
1751013650350911700,3.485911865234375,-0.98394775390625,-0.2511138916015625,0.0652618408203125
1751013650360854800,3.495854736328125,-0.9903411865234375,-0.25042724609375,0.065765380859375
1751013650370798800,3.505798828125,-0.993255615234375,-0.2508392333984375,0.0636138916015625
1751013650380742000,3.515741943359375,-0.9927825927734375,-0.2496490478515625,0.0613861083984375
1751013650390685000,3.525684814453125,-0.99249267578125,-0.2458343505859375,0.06182861328125
1751013650400628700,3.535628662109375,-0.995513916015625,-0.241119384765625,0.0584564208984375
1751013650410571800,3.54557177734375,-0.9950408935546875,-0.238311767578125,0.054931640625
1751013650420515800,3.555515869140625,-0.99334716796875,-0.23681640625,0.0533905029296875
1751013650430459000,3.565458984375,-0.98907470703125,-0.236724853515625,0.055328369140625
1751013650440403000,3.57540283203125,-0.9890594482421875,-0.235687255859375,0.05584716796875
1751013650450345700,3.585345703125,-0.9879302978515625,-0.2342376708984375,0.0561981201171875
1751013650460288800,3.595288818359375,-0.98382568359375,-0.233642578125,0.0531768798828125
1751013650470233000,3.605233154296875,-0.9794921875,-0.2336883544921875,0.0513916015625
1751013650480175900,3.61517578125,-0.976715087890625,-0.2345428466796875,0.0508270263671875
1751013650490120000,3.625119873046875,-0.9757537841796875,-0.235137939453125,0.05322265625
1751013650500063000,3.63506298828125,-0.971923828125,-0.2389678955078125,0.05413818359375
1751013650510006800,3.6450068359375,-0.968109130859375,-0.2428436279296875,0.0523834228515625
1751013650519949800,3.65494970703125,-0.964385986328125,-0.2423248291015625,0.04925537109375
1751013650529892900,3.664892822265625,-0.9610137939453125,-0.2429046630859375,0.047332763671875
1751013650539837000,3.6748369140625,-0.964141845703125,-0.2453155517578125,0.0458831787109375
1751013650549783300,3.684783203125,-0.967254638671875,-0.2463836669921875,0.0454864501953125
1751013650559727000,3.69472705078125,-0.96563720703125,-0.2491607666015625,0.0485382080078125
1751013650569670100,3.704670166015625,-0.9662322998046875,-0.2511138916015625,0.0524444580078125
1751013650579614200,3.7146142578125,-0.96820068359375,-0.2509307861328125,0.0516204833984375
1751013650589557200,3.72455712890625,-0.9696197509765625,-0.2515716552734375,0.0516510009765625
1751013650599500300,3.734500244140625,-0.9714202880859375,-0.251708984375,0.0544586181640625
1751013650609444000,3.744444091796875,-0.9770050048828125,-0.2525787353515625,0.0619049072265625
1751013650619387100,3.75438720703125,-0.98297119140625,-0.2505950927734375,0.0677337646484375
1751013650629331200,3.764331298828125,-0.9839935302734375,-0.2490234375,0.071319580078125
1751013650639274200,3.774274169921875,-0.9843292236328125,-0.2481231689453125,0.0724945068359375
1751013650649218000,3.784218017578125,-0.988433837890625,-0.2459716796875,0.0699920654296875
1751013650659161000,3.7941611328125,-0.99072265625,-0.24444580078125,0.0676727294921875
1751013650669105200,3.804105224609375,-0.9909210205078125,-0.2422637939453125,0.066192626953125
1751013650679048000,3.8140478515625,-0.9908599853515625,-0.240997314453125,0.0652313232421875
1751013650688991000,3.823990966796875,-0.992706298828125,-0.2395782470703125,0.0641021728515625
1751013650698935000,3.83393505859375,-0.9927825927734375,-0.2366943359375,0.064727783203125
1751013650708878000,3.843878173828125,-0.991790771484375,-0.23492431640625,0.06439208984375
1751013650718822000,3.85382177734375,-0.993743896484375,-0.232147216796875,0.064971923828125
1751013650728765000,3.863764892578125,-0.9949798583984375,-0.2317962646484375,0.0677032470703125
1751013650738709200,3.873709228515625,-0.9990081787109375,-0.23199462890625,0.0691986083984375
1751013650748652300,3.88365234375,-0.996826171875,-0.23101806640625,0.070556640625
1751013650758595300,3.89359521484375,-0.9974822998046875,-0.23211669921875,0.0724029541015625
1751013650768539100,3.9035390625,-0.9953155517578125,-0.23272705078125,0.07183837890625
1751013650778482200,3.913482177734375,-0.9940338134765625,-0.232513427734375,0.071502685546875
1751013650788426200,3.92342626953125,-0.99163818359375,-0.231536865234375,0.0704803466796875
1751013650798369300,3.933369384765625,-0.98779296875,-0.23382568359375,0.0685577392578125
1751013650808313000,3.94331298828125,-0.983673095703125,-0.2347259521484375,0.066680908203125
1751013650818256100,3.953256103515625,-0.98187255859375,-0.2356109619140625,0.0663604736328125
1751013650828199200,3.96319921875,-0.9826812744140625,-0.23687744140625,0.06640625
1751013650838143200,3.973143310546875,-0.9850921630859375,-0.238372802734375,0.064453125
1751013650848086000,3.9830859375,-0.9851531982421875,-0.2386322021484375,0.0631256103515625
1751013650858030000,3.993030029296875,-0.984588623046875,-0.239349365234375,0.0648956298828125
1751013650867973000,4.00297314453125,-0.985443115234375,-0.239654541015625,0.0645904541015625
1751013650877917000,4.0129169921875,-0.9857940673828125,-0.2395477294921875,0.066253662109375
1751013650887860000,4.02285986328125,-0.9812164306640625,-0.2391357421875,0.068756103515625
1751013650897803000,4.032802978515625,-0.9801788330078125,-0.238677978515625,0.0677642822265625
1751013650907747000,4.0427470703125,-0.9790496826171875,-0.239471435546875,0.0665435791015625
1751013650917690000,4.052690185546875,-0.97821044921875,-0.2398681640625,0.06884765625
1751013650927634000,4.062634033203125,-0.9791412353515625,-0.240509033203125,0.0701141357421875
1751013650937577000,4.072576904296875,-0.981201171875,-0.2415008544921875,0.0669708251953125
1751013650947521300,4.082521240234375,-0.9815521240234375,-0.2406768798828125,0.0647430419921875
1751013650957464300,4.09246435546875,-0.9856109619140625,-0.23931884765625,0.06494140625
1751013650967408000,4.102408203125,-0.9864349365234375,-0.2396392822265625,0.06573486328125
1751013650977351200,4.11235107421875,-0.98651123046875,-0.240631103515625,0.06640625
1751013650987294200,4.122294189453125,-0.9853515625,-0.2404327392578125,0.06500244140625
1751013650997238300,4.13223828125,-0.9828948974609375,-0.2392730712890625,0.0651397705078125
1751013651007181000,4.14218115234375,-0.98345947265625,-0.2368621826171875,0.0662689208984375
1751013651017125000,4.152125,-0.9820709228515625,-0.237518310546875,0.0667877197265625
1751013651027068200,4.162068115234375,-0.97998046875,-0.238250732421875,0.0684051513671875
1751013651037012200,4.17201220703125,-0.9806671142578125,-0.238037109375,0.071380615234375
1751013651046955000,4.181955078125,-0.9823455810546875,-0.2385101318359375,0.07452392578125
1751013651056898000,4.19189794921875,-0.9802703857421875,-0.2404022216796875,0.0733184814453125
1751013651066842000,4.201842041015625,-0.97869873046875,-0.2414398193359375,0.070098876953125
1751013651076785200,4.21178515625,-0.9724578857421875,-0.239501953125,0.066864013671875
1751013651086729000,4.22172900390625,-0.9737091064453125,-0.2361907958984375,0.06640625
1751013651096672000,4.231672119140625,-0.9777984619140625,-0.23583984375,0.06402587890625
1751013651106616000,4.241615966796875,-0.9832916259765625,-0.2377166748046875,0.058349609375
1751013651116559000,4.25155908203125,-0.98358154296875,-0.2388153076171875,0.058929443359375
1751013651126502100,4.261502197265625,-0.9857330322265625,-0.2395172119140625,0.060455322265625
1751013651136446000,4.271446044921875,-0.9833221435546875,-0.2419586181640625,0.06097412109375
1751013651146389000,4.281388916015625,-0.97857666015625,-0.2423095703125,0.061065673828125
1751013651156333300,4.291333251953125,-0.9784698486328125,-0.241119384765625,0.0620269775390625
1751013651166276000,4.301276123046875,-0.980255126953125,-0.240997314453125,0.064239501953125
1751013651176220200,4.31122021484375,-0.9814453125,-0.24188232421875,0.0666046142578125
1751013651186163200,4.3211630859375,-0.9819183349609375,-0.24200439453125,0.0675506591796875
1751013651196106200,4.331106201171875,-0.9813995361328125,-0.2405853271484375,0.0668792724609375
1751013651206050000,4.341050048828125,-0.981048583984375,-0.2415618896484375,0.065521240234375
1751013651215993000,4.3509931640625,-0.98065185546875,-0.2422027587890625,0.0605316162109375
1751013651225937200,4.360937255859375,-0.9818115234375,-0.24127197265625,0.0567626953125
1751013651235880200,4.370880126953125,-0.98394775390625,-0.2418365478515625,0.0570220947265625
1751013651245824000,4.380823974609375,-0.98333740234375,-0.244232177734375,0.05987548828125
1751013651255767000,4.39076708984375,-0.9813690185546875,-0.2454681396484375,0.0614471435546875
1751013651265710000,4.4007099609375,-0.9827117919921875,-0.244232177734375,0.06231689453125
1751013651275654100,4.410654052734375,-0.983123779296875,-0.244354248046875,0.064208984375
1751013651285597200,4.42059716796875,-0.9813385009765625,-0.2449951171875,0.063507080078125
1751013651295541000,4.430541015625,-0.9809112548828125,-0.2443695068359375,0.0657958984375
1751013651305484000,4.440484130859375,-0.9785614013671875,-0.245147705078125,0.0659332275390625
1751013651315428000,4.450427978515625,-0.9771728515625,-0.244354248046875,0.0659332275390625
1751013651325371100,4.46037109375,-0.9787139892578125,-0.243804931640625,0.06463623046875
1751013651335314000,4.47031396484375,-0.9805450439453125,-0.242889404296875,0.0599822998046875
1751013651345258200,4.48025830078125,-0.9781646728515625,-0.2427825927734375,0.05767822265625
1751013651355201000,4.490200927734375,-0.97979736328125,-0.241851806640625,0.06146240234375
1751013651365145000,4.50014501953125,-0.98321533203125,-0.2409820556640625,0.064300537109375
1751013651375088000,4.510088134765625,-0.98175048828125,-0.2411651611328125,0.0642242431640625
1751013651385032200,4.5200322265625,-0.9774932861328125,-0.2413482666015625,0.0642852783203125
1751013651394975200,4.529975341796875,-0.9799652099609375,-0.2393951416015625,0.064239501953125
1751013651404918300,4.539918212890625,-0.979736328125,-0.2392578125,0.0640869140625
1751013651414862000,4.549862060546875,-0.9791259765625,-0.2391815185546875,0.0647125244140625
1751013651424805000,4.55980517578125,-0.9779815673828125,-0.239715576171875,0.063934326171875
1751013651434749200,4.569749267578125,-0.9759674072265625,-0.2390594482421875,0.0625762939453125
1751013651444692200,4.579692138671875,-0.9791412353515625,-0.237884521484375,0.0641326904296875
1751013651454636000,4.589635986328125,-0.979339599609375,-0.240325927734375,0.0660247802734375
1751013651464579000,4.5995791015625,-0.9781494140625,-0.240753173828125,0.0653839111328125
1751013651474522000,4.609522216796875,-0.9836578369140625,-0.2393341064453125,0.0656585693359375
1751013651484466200,4.619466064453125,-0.984222412109375,-0.2405853271484375,0.0664520263671875
1751013651494409000,4.629408935546875,-0.983367919921875,-0.2428436279296875,0.064056396484375
1751013651504353000,4.63935302734375,-0.9853363037109375,-0.2423095703125,0.061248779296875
1751013651514296000,4.649296142578125,-0.9875640869140625,-0.2425537109375,0.0593414306640625
1751013651524240100,4.659240234375,-0.98712158203125,-0.2409515380859375,0.05694580078125
1751013651534183000,4.669182861328125,-0.9885711669921875,-0.2400054931640625,0.0565338134765625
1751013651544127200,4.679127197265625,-0.9909210205078125,-0.238922119140625,0.0580902099609375
1751013651554067000,4.68906689453125,-0.991943359375,-0.23870849609375,0.05755615234375
1751013651564010000,4.699010009765625,-0.989654541015625,-0.2386474609375,0.056732177734375
1751013651573953800,4.708953857421875,-0.9860992431640625,-0.23760986328125,0.0594329833984375
1751013651583896800,4.718896728515625,-0.9864349365234375,-0.2381134033203125,0.060882568359375
1751013651593841000,4.7288408203125,-0.9860382080078125,-0.2374725341796875,0.0620880126953125
1751013651603784000,4.738783935546875,-0.9836883544921875,-0.2362060546875,0.06317138671875
1751013651613727700,4.748727783203125,-0.9835662841796875,-0.2357635498046875,0.063720703125
1751013651623670800,4.7586708984375,-0.9851226806640625,-0.2364654541015625,0.0619354248046875
1751013651633613800,4.76861376953125,-0.9850006103515625,-0.235687255859375,0.060211181640625
1751013651643558100,4.77855810546875,-0.9837493896484375,-0.235198974609375,0.05804443359375
1751013651653500700,4.788500732421875,-0.984832763671875,-0.2342987060546875,0.059539794921875
1751013651663445000,4.798445068359375,-0.9874725341796875,-0.2347412109375,0.062774658203125
1751013651673388000,4.808387939453125,-0.9870452880859375,-0.2358245849609375,0.0625152587890625
1751013651683331000,4.8183310546875,-0.981842041015625,-0.23681640625,0.0609588623046875
1751013651693275000,4.82827490234375,-0.9770050048828125,-0.236358642578125,0.0589752197265625
1751013651703218000,4.838218017578125,-0.9744415283203125,-0.2352447509765625,0.058502197265625
1751013651713162000,4.848161865234375,-0.9730072021484375,-0.2364501953125,0.0607757568359375
1751013651723105000,4.85810498046875,-0.973052978515625,-0.2370758056640625,0.065155029296875
1751013651733048800,4.868048828125,-0.9779052734375,-0.2353515625,0.0671844482421875
1751013651742992000,4.877991943359375,-0.9841461181640625,-0.2356109619140625,0.0684356689453125
1751013651752935000,4.887934814453125,-0.985595703125,-0.2360382080078125,0.069183349609375
1751013651762879000,4.89787890625,-0.9829559326171875,-0.2350006103515625,0.0669708251953125
1751013651772822000,4.907822021484375,-0.9748992919921875,-0.231719970703125,0.06683349609375
1751013651782765800,4.917765869140625,-0.9796142578125,-0.2285308837890625,0.0634002685546875
1751013651792708900,4.927708984375,-0.98309326171875,-0.22991943359375,0.0602264404296875
1751013651802653000,4.93765283203125,-0.9792938232421875,-0.231170654296875,0.0584869384765625
1751013651812596000,4.947595947265625,-0.974517822265625,-0.228790283203125,0.0572052001953125
1751013651822538800,4.957538818359375,-0.9757080078125,-0.2252960205078125,0.0599212646484375
1751013651832482800,4.96748291015625,-0.9758148193359375,-0.2267913818359375,0.06292724609375
1751013651842425900,4.97742578125,-0.9745025634765625,-0.2277374267578125,0.06610107421875
1751013651852370000,4.987369873046875,-0.9734039306640625,-0.2255706787109375,0.0666351318359375
1751013651862312700,4.997312744140625,-0.9759979248046875,-0.2232818603515625,0.06671142578125
1751013651872257000,5.007257080078125,-0.9817962646484375,-0.223419189453125,0.0659027099609375
1751013651882200000,5.017199951171875,-0.98626708984375,-0.223785400390625,0.06451416015625
1751013651892143900,5.027143798828125,-0.988983154296875,-0.22332763671875,0.0608673095703125
1751013651902087000,5.0370869140625,-0.9905548095703125,-0.223602294921875,0.054901123046875
1751013651912030000,5.047030029296875,-0.98876953125,-0.2231597900390625,0.052703857421875
1751013651921974000,5.05697412109375,-0.9857177734375,-0.2244110107421875,0.051727294921875
1751013651931917000,5.0669169921875,-0.98370361328125,-0.2258453369140625,0.0521087646484375
1751013651941860900,5.07686083984375,-0.98077392578125,-0.22467041015625,0.0528411865234375
1751013651951804000,5.086803955078125,-0.9833221435546875,-0.2233428955078125,0.0518035888671875
1751013651961748000,5.096748046875,-0.9842529296875,-0.223663330078125,0.0522003173828125
1751013651971691000,5.10669091796875,-0.9842529296875,-0.2283782958984375,0.053253173828125
1751013651981633800,5.1166337890625,-0.9818267822265625,-0.2335052490234375,0.0543212890625
1751013651991577900,5.126577880859375,-0.98095703125,-0.2322998046875,0.0557098388671875
1751013652001521000,5.13652099609375,-0.9821624755859375,-0.2313079833984375,0.052947998046875
1751013652011465000,5.14646484375,-0.9821319580078125,-0.2328033447265625,0.0524749755859375
1751013652021407700,5.15640771484375,-0.9833831787109375,-0.2317352294921875,0.052490234375
1751013652031351800,5.166351806640625,-0.9876861572265625,-0.2302093505859375,0.0522003173828125
1751013652041294800,5.176294921875,-0.9873046875,-0.229522705078125,0.0507049560546875
1751013652051238000,5.18623779296875,-0.989898681640625,-0.2291107177734375,0.050262451171875
1751013652061182000,5.196181884765625,-0.989959716796875,-0.2265625,0.052703857421875
1751013652071124700,5.206124755859375,-0.993927001953125,-0.2245330810546875,0.05291748046875
1751013652081069000,5.216069091796875,-0.9940338134765625,-0.2209320068359375,0.05157470703125
1751013652091012000,5.22601220703125,-0.995697021484375,-0.2205657958984375,0.0497283935546875
1751013652100956000,5.235955810546875,-0.9954071044921875,-0.2197265625,0.047698974609375
1751013652110899000,5.24589892578125,-0.99603271484375,-0.2182159423828125,0.0501556396484375
1751013652120842000,5.255842041015625,-1.002105712890625,-0.21820068359375,0.0524139404296875
1751013652130786000,5.2657861328125,-1.0095367431640625,-0.2204437255859375,0.050323486328125
1751013652140728800,5.275728759765625,-1.010986328125,-0.2212066650390625,0.0460662841796875
1751013652150673000,5.2856728515625,-1.01025390625,-0.2209930419921875,0.0437469482421875
1751013652160616000,5.295615966796875,-1.009521484375,-0.220672607421875,0.0428314208984375
1751013652170560000,5.30556005859375,-1.008758544921875,-0.2209625244140625,0.03955078125
1751013652180502800,5.315502685546875,-1.0041046142578125,-0.2216796875,0.0399932861328125
1751013652190445800,5.32544580078125,-1.0017547607421875,-0.2218780517578125,0.0389404296875
1751013652200390000,5.335389892578125,-1.0008544921875,-0.2227325439453125,0.0364837646484375
1751013652210333000,5.3453330078125,-0.9955596923828125,-0.22222900390625,0.035858154296875
1751013652220276700,5.35527685546875,-0.992950439453125,-0.221343994140625,0.0376434326171875
1751013652230219800,5.3652197265625,-0.9909515380859375,-0.2212066650390625,0.0393829345703125
1751013652240163800,5.375163818359375,-0.98797607421875,-0.2223052978515625,0.039154052734375
1751013652250107000,5.38510693359375,-0.9844512939453125,-0.2237701416015625,0.038726806640625
1751013652260050000,5.3950498046875,-0.9805145263671875,-0.223388671875,0.0383148193359375
1751013652269994000,5.404993896484375,-0.9804229736328125,-0.221099853515625,0.03839111328125
1751013652279936800,5.414936767578125,-0.9790496826171875,-0.2215423583984375,0.04150390625
1751013652289881000,5.424881103515625,-0.9714508056640625,-0.219390869140625,0.04498291015625
1751013652299823900,5.434823974609375,-0.977874755859375,-0.2168121337890625,0.0494537353515625
1751013652309768000,5.444767822265625,-0.9788818359375,-0.2191009521484375,0.051544189453125
1751013652319711000,5.4547109375,-0.97900390625,-0.218963623046875,0.05224609375
1751013652329654000,5.464654052734375,-0.982421875,-0.21600341796875,0.04998779296875
1751013652339597800,5.474597900390625,-0.9821014404296875,-0.21533203125,0.049560546875
1751013652349540900,5.484540771484375,-0.9842987060546875,-0.217071533203125,0.050933837890625
1751013652359485000,5.49448486328125,-0.9866790771484375,-0.217926025390625,0.0529022216796875
1751013652369428000,5.504427978515625,-0.99029541015625,-0.215911865234375,0.05340576171875
1751013652379371800,5.514371826171875,-0.994598388671875,-0.215667724609375,0.051788330078125
1751013652389314800,5.524314697265625,-0.9966583251953125,-0.216094970703125,0.048065185546875
1751013652399257900,5.5342578125,-0.9971771240234375,-0.2162017822265625,0.0462646484375
1751013652409202000,5.544201904296875,-0.9985198974609375,-0.2169189453125,0.0471038818359375
1751013652419145000,5.55414501953125,-1.0028533935546875,-0.2178802490234375,0.049591064453125
1751013652429088800,5.5640888671875,-1.0054168701171875,-0.2167816162109375,0.048675537109375
1751013652439031800,5.57403173828125,-1.0040435791015625,-0.2164459228515625,0.0448760986328125
1751013652448976000,5.583975830078125,-1.005584716796875,-0.21661376953125,0.040802001953125
1751013652458919000,5.5939189453125,-1.002960205078125,-0.217529296875,0.0367431640625
1751013652468861700,5.60386181640625,-1.000946044921875,-0.21734619140625,0.036163330078125
1751013652478806000,5.613805908203125,-0.997833251953125,-0.218597412109375,0.03924560546875
1751013652488749000,5.6237490234375,-0.9946746826171875,-0.2218017578125,0.041259765625
1751013652498692900,5.63369287109375,-0.9883880615234375,-0.22271728515625,0.0391082763671875
1751013652508636000,5.643635986328125,-0.9878387451171875,-0.222015380859375,0.036376953125
1751013652518580000,5.653580078125,-0.98797607421875,-0.224090576171875,0.033660888671875
1751013652528523000,5.66352294921875,-0.9875030517578125,-0.22607421875,0.0341339111328125
1751013652538466000,5.673466064453125,-0.98480224609375,-0.2261962890625,0.035980224609375
1751013652548410000,5.68341015625,-0.97857666015625,-0.2220458984375,0.041839599609375
1751013652558353200,5.693353271484375,-0.9787445068359375,-0.22247314453125,0.04278564453125
1751013652568297200,5.703297119140625,-0.9754638671875,-0.2225189208984375,0.040557861328125
1751013652578240300,5.713240234375,-0.973236083984375,-0.220947265625,0.03814697265625
1751013652588184000,5.72318408203125,-0.9717864990234375,-0.2200927734375,0.040008544921875
1751013652598127000,5.733127197265625,-0.97186279296875,-0.221832275390625,0.04217529296875
1751013652608070100,5.743070068359375,-0.975067138671875,-0.22222900390625,0.041259765625
1751013652618014200,5.75301416015625,-0.978485107421875,-0.2219085693359375,0.0400390625
1751013652627957000,5.76295703125,-0.9797515869140625,-0.221893310546875,0.039154052734375
1751013652637901000,5.772901123046875,-0.9782257080078125,-0.2220001220703125,0.04083251953125
1751013652647844000,5.782843994140625,-0.9776458740234375,-0.222747802734375,0.044525146484375
1751013652657788200,5.7927880859375,-0.97955322265625,-0.22314453125,0.0452117919921875
1751013652667731000,5.80273095703125,-0.9817657470703125,-0.220977783203125,0.0457763671875
1751013652677674000,5.812674072265625,-0.985748291015625,-0.2204132080078125,0.0464324951171875
1751013652687618000,5.8226181640625,-0.9894866943359375,-0.2196044921875,0.047607421875
1751013652697561000,5.83256103515625,-0.9926910400390625,-0.2189483642578125,0.0492095947265625
1751013652707505200,5.842505126953125,-0.9947967529296875,-0.2205657958984375,0.05145263671875
1751013652717448200,5.8524482421875,-0.9982147216796875,-0.219757080078125,0.0509490966796875
1751013652727392300,5.862392333984375,-0.9949798583984375,-0.218994140625,0.053619384765625
1751013652737335300,5.872335205078125,-0.9961090087890625,-0.218597412109375,0.056121826171875
1751013652747278300,5.8822783203125,-0.9978485107421875,-0.2192840576171875,0.0541229248046875
1751013652757222100,5.89222216796875,-0.997955322265625,-0.2190704345703125,0.0538482666015625
1751013652767165200,5.902165283203125,-0.996551513671875,-0.22064208984375,0.0548248291015625
1751013652777109200,5.912109130859375,-0.99658203125,-0.2221221923828125,0.0533599853515625
1751013652787052000,5.922052001953125,-0.9967803955078125,-0.2234344482421875,0.0517120361328125
1751013652796995000,5.9319951171875,-0.9956512451171875,-0.221221923828125,0.05169677734375
1751013652806939100,5.941939208984375,-0.9947662353515625,-0.2201995849609375,0.05224609375
1751013652816882200,5.951882080078125,-0.9940643310546875,-0.2200469970703125,0.053466796875
1751013652826826000,5.961825927734375,-0.992950439453125,-0.22039794921875,0.0534820556640625
1751013652836769000,5.97176904296875,-0.9918670654296875,-0.2205047607421875,0.0518341064453125
1751013652846713000,5.981713134765625,-0.989410400390625,-0.2225341796875,0.052490234375
1751013652856656100,5.99165625,-0.9897918701171875,-0.2226715087890625,0.049774169921875
1751013652866600000,6.001599853515625,-0.988372802734375,-0.223114013671875,0.0511932373046875
1751013652876543000,6.01154296875,-0.9870758056640625,-0.2232818603515625,0.0530548095703125
1751013652886486000,6.021486083984375,-0.9912109375,-0.221832275390625,0.0516204833984375
1751013652896430000,6.03143017578125,-0.9923248291015625,-0.2220611572265625,0.049346923828125
1751013652906373000,6.041373046875,-0.9903106689453125,-0.2236175537109375,0.048919677734375
1751013652916317200,6.051317138671875,-0.98675537109375,-0.2256317138671875,0.048980712890625
1751013652926260200,6.06126025390625,-0.9859771728515625,-0.2252197265625,0.0490570068359375
1751013652936203000,6.071203125,-0.98431396484375,-0.2247314453125,0.0514068603515625
1751013652946147300,6.081147216796875,-0.984375,-0.224334716796875,0.053985595703125
1751013652956090000,6.091090087890625,-0.98345947265625,-0.2236175537109375,0.054656982421875
1751013652966034200,6.1010341796875,-0.980621337890625,-0.22308349609375,0.0552215576171875
1751013652975977200,6.110977294921875,-0.9797821044921875,-0.220733642578125,0.0592498779296875
1751013652985921000,6.120921142578125,-0.98638916015625,-0.2185516357421875,0.0628509521484375
1751013652995864000,6.130864013671875,-0.989013671875,-0.218292236328125,0.0602874755859375
1751013653005807000,6.14080712890625,-0.983673095703125,-0.2174835205078125,0.0603485107421875
1751013653015751200,6.150751220703125,-0.9844970703125,-0.216400146484375,0.057464599609375
1751013653025694200,6.160694091796875,-0.9875946044921875,-0.2162322998046875,0.0560455322265625
1751013653035638000,6.170637939453125,-0.9886627197265625,-0.21612548828125,0.055999755859375
1751013653045581000,6.1805810546875,-0.9881591796875,-0.2170562744140625,0.056182861328125
1751013653055525000,6.190525146484375,-0.9851837158203125,-0.2178802490234375,0.057830810546875
1751013653065468200,6.20046826171875,-0.98095703125,-0.2205810546875,0.05841064453125
1751013653075411200,6.2104111328125,-0.9807586669921875,-0.221099853515625,0.060546875
1751013653085355000,6.22035498046875,-0.98187255859375,-0.22271728515625,0.0600433349609375
1751013653095298000,6.230298095703125,-0.9814910888671875,-0.2254486083984375,0.0607147216796875
1751013653105242000,6.2402421875,-0.9821624755859375,-0.2262725830078125,0.0623016357421875
1751013653115185000,6.250184814453125,-0.9804840087890625,-0.226898193359375,0.059967041015625
1751013653125129200,6.260129150390625,-0.9796142578125,-0.2267608642578125,0.05712890625
1751013653135072300,6.270072265625,-0.9777374267578125,-0.227813720703125,0.0560455322265625
1751013653145015000,6.28001513671875,-0.9791412353515625,-0.227508544921875,0.0530853271484375
1751013653154959000,6.289958984375,-0.980377197265625,-0.227783203125,0.052886962890625
1751013653164902100,6.299902099609375,-0.9803924560546875,-0.2284393310546875,0.0546417236328125
1751013653174846200,6.30984619140625,-0.9842529296875,-0.2310028076171875,0.0575714111328125
1751013653184789200,6.319789306640625,-0.9853668212890625,-0.23052978515625,0.0601043701171875
1751013653194733000,6.329733154296875,-0.9850921630859375,-0.2302093505859375,0.0581817626953125
1751013653204676000,6.339676025390625,-0.98583984375,-0.228302001953125,0.0577392578125
1751013653214619100,6.349619140625,-0.9866180419921875,-0.22607421875,0.0595550537109375
1751013653224563200,6.359563232421875,-0.986480712890625,-0.2249755859375,0.061737060546875
1751013653234506200,6.36950634765625,-0.9864349365234375,-0.22369384765625,0.0625762939453125
1751013653244450000,6.379449951171875,-0.989532470703125,-0.2217864990234375,0.0639495849609375
1751013653254393000,6.38939306640625,-0.9909515380859375,-0.2201995849609375,0.06524658203125
1751013653264337200,6.399337158203125,-0.9898529052734375,-0.221343994140625,0.0665740966796875
1751013653274280200,6.4092802734375,-0.9904937744140625,-0.2196502685546875,0.06793212890625
1751013653284223000,6.419222900390625,-0.9888763427734375,-0.2182159423828125,0.0661773681640625
1751013653294167000,6.4291669921875,-0.9869537353515625,-0.2194976806640625,0.061676025390625
1751013653304110000,6.439110107421875,-0.985992431640625,-0.219879150390625,0.060577392578125
1751013653314054000,6.449053955078125,-0.98809814453125,-0.2199554443359375,0.0601959228515625
1751013653323997000,6.458996826171875,-0.9917144775390625,-0.218475341796875,0.062896728515625
1751013653333941200,6.468941162109375,-0.9924163818359375,-0.218902587890625,0.06256103515625
1751013653343884300,6.47888427734375,-0.9907684326171875,-0.221527099609375,0.0617218017578125
1751013653353827000,6.4888271484375,-0.9902801513671875,-0.221588134765625,0.06231689453125
1751013653363771100,6.498771240234375,-0.98968505859375,-0.2209320068359375,0.0613555908203125
1751013653373714200,6.508714111328125,-0.986968994140625,-0.219573974609375,0.0623321533203125
1751013653383658200,6.518658203125,-0.9865570068359375,-0.217254638671875,0.060882568359375
1751013653393601300,6.528601318359375,-0.9913787841796875,-0.215728759765625,0.0603790283203125
1751013653403544000,6.5385439453125,-0.9909210205078125,-0.2182769775390625,0.061920166015625
1751013653413488000,6.548488037109375,-0.98773193359375,-0.21990966796875,0.0619659423828125
1751013653423431200,6.55843115234375,-0.990692138671875,-0.219573974609375,0.061431884765625
1751013653433375200,6.568375244140625,-0.9904327392578125,-0.2208404541015625,0.0593719482421875
1751013653443318000,6.578318115234375,-0.9884796142578125,-0.220245361328125,0.0590362548828125
1751013653453262000,6.588261962890625,-0.986480712890625,-0.2184906005859375,0.0598907470703125
1751013653463205000,6.598205078125,-0.98516845703125,-0.219818115234375,0.0610504150390625
1751013653473148200,6.608148193359375,-0.9871368408203125,-0.22113037109375,0.0644073486328125
1751013653483092000,6.618092041015625,-0.98712158203125,-0.2217559814453125,0.0661773681640625
1751013653493035000,6.628034912109375,-0.98492431640625,-0.221832275390625,0.0661163330078125
1751013653502979000,6.63797900390625,-0.9815826416015625,-0.22149658203125,0.0639190673828125
1751013653512922000,6.647922119140625,-0.9800567626953125,-0.221527099609375,0.064483642578125
1751013653522866000,6.657865966796875,-0.981292724609375,-0.2214202880859375,0.0637664794921875
1751013653532809000,6.66780908203125,-0.983489990234375,-0.2194366455078125,0.0619049072265625
1751013653542752000,6.677751953125,-0.98577880859375,-0.2184906005859375,0.06103515625
1751013653552696300,6.6876962890625,-0.983245849609375,-0.22052001953125,0.064483642578125
1751013653562639400,6.697639404296875,-0.9842681884765625,-0.22174072265625,0.067626953125
1751013653572583200,6.707583251953125,-0.9868011474609375,-0.2211761474609375,0.0652618408203125
1751013653582526200,6.717526123046875,-0.985565185546875,-0.22052001953125,0.062408447265625
1751013653592470300,6.72747021484375,-0.98748779296875,-0.2185821533203125,0.0623931884765625
1751013653602413000,6.7374130859375,-0.9903106689453125,-0.2168426513671875,0.0642852783203125
1751013653612356000,6.747356201171875,-0.987091064453125,-0.21728515625,0.0637664794921875
1751013653622300200,6.757300048828125,-0.986663818359375,-0.219146728515625,0.0621795654296875
1751013653632243200,6.7672431640625,-0.986480712890625,-0.2164764404296875,0.06256103515625
1751013653642187000,6.77718701171875,-0.9849853515625,-0.21697998046875,0.0616455078125
1751013653652130000,6.787130126953125,-0.98309326171875,-0.2175750732421875,0.061859130859375
1751013653662074000,6.79707421875,-0.9822845458984375,-0.2171783447265625,0.06256103515625
1751013653672017200,6.80701708984375,-0.9846954345703125,-0.216461181640625,0.062713623046875
1751013653681960200,6.816960205078125,-0.9850921630859375,-0.215606689453125,0.06451416015625
1751013653691904000,6.826904052734375,-0.9841156005859375,-0.213470458984375,0.0654754638671875
1751013653701847000,6.836846923828125,-0.985260009765625,-0.2118988037109375,0.0650482177734375
1751013653711791000,6.846791015625,-0.986572265625,-0.2127685546875,0.064178466796875
1751013653721734100,6.856734130859375,-0.9895782470703125,-0.2117156982421875,0.060089111328125
1751013653731678000,6.866677978515625,-0.990875244140625,-0.211456298828125,0.0585784912109375
1751013653741621000,6.87662109375,-0.9919586181640625,-0.2140045166015625,0.0628204345703125
1751013653751564000,6.88656396484375,-0.9951629638671875,-0.21533203125,0.06561279296875
1751013653761508400,6.89650830078125,-0.9960174560546875,-0.2155303955078125,0.0649261474609375
1751013653771451100,6.906451171875,-0.9951629638671875,-0.2152099609375,0.0673828125
1751013653781395200,6.916395263671875,-0.9940643310546875,-0.21307373046875,0.07122802734375
1751013653791338200,6.926338134765625,-0.9949493408203125,-0.214111328125,0.070709228515625
1751013653801282000,6.936281982421875,-0.9940643310546875,-0.215667724609375,0.068206787109375
1751013653811225000,6.94622509765625,-0.9958648681640625,-0.214202880859375,0.0648345947265625
1751013653821168000,6.956168212890625,-0.9983367919921875,-0.2135467529296875,0.06195068359375
1751013653831112200,6.9661123046875,-0.9969635009765625,-0.2147369384765625,0.0621490478515625
1751013653841055200,6.97605517578125,-1.0019683837890625,-0.217071533203125,0.0616302490234375
1751013653850999000,6.9859990234375,-1.0076446533203125,-0.2188873291015625,0.0601348876953125
1751013653860942000,6.995942138671875,-1.0034332275390625,-0.2213134765625,0.0601654052734375
1751013653870886100,7.00588623046875,-0.9980926513671875,-0.2212066650390625,0.0595550537109375
1751013653880829200,7.0158291015625,-0.9958343505859375,-0.222412109375,0.062347412109375
1751013653890772200,7.025772216796875,-0.994232177734375,-0.225189208984375,0.06219482421875
1751013653900716000,7.035716064453125,-0.9938812255859375,-0.2256927490234375,0.06182861328125
1751013653910659000,7.0456591796875,-0.99261474609375,-0.225677490234375,0.063140869140625
1751013653920603100,7.05560302734375,-0.9885711669921875,-0.2265625,0.0650482177734375
1751013653930546000,7.0655458984375,-0.98663330078125,-0.2272491455078125,0.0646209716796875
1751013653940489000,7.075489013671875,-0.9853363037109375,-0.2288665771484375,0.06231689453125
1751013653950433000,7.08543310546875,-0.9759063720703125,-0.22265625,0.062774658203125
1751013653960376000,7.0953759765625,-0.9884033203125,-0.2218780517578125,0.0627899169921875
1751013653970320100,7.105320068359375,-0.98699951171875,-0.2269287109375,0.064544677734375
1751013653980263200,7.11526318359375,-0.984039306640625,-0.2254180908203125,0.0664215087890625
1751013653990207200,7.125207275390625,-0.98309326171875,-0.22161865234375,0.069549560546875
1751013654000150300,7.135150390625,-0.98175048828125,-0.2213592529296875,0.0707244873046875
1751013654010093300,7.14509326171875,-0.9799957275390625,-0.2218780517578125,0.0690460205078125
1751013654020037000,7.155037109375,-0.9782257080078125,-0.2210540771484375,0.0659942626953125
1751013654029980200,7.164980224609375,-0.975677490234375,-0.2196197509765625,0.063690185546875
1751013654039924200,7.17492431640625,-0.97564697265625,-0.2183074951171875,0.06396484375
1751013654049867300,7.1848671875,-0.974151611328125,-0.218597412109375,0.0674285888671875
1751013654059811000,7.19481103515625,-0.9779815673828125,-0.2200775146484375,0.071685791015625
1751013654069754000,7.204754150390625,-0.9842681884765625,-0.220855712890625,0.072906494140625
1751013654079697200,7.214697265625,-0.987548828125,-0.22198486328125,0.0709228515625
1751013654089641200,7.22464111328125,-0.9876861572265625,-0.2213287353515625,0.0699462890625
1751013654099584000,7.234583984375,-0.98760986328125,-0.221282958984375,0.067901611328125
1751013654109528000,7.244528076171875,-0.98675537109375,-0.2223358154296875,0.0649871826171875
1751013654119471000,7.25447119140625,-0.9846954345703125,-0.222930908203125,0.0638885498046875
1751013654129415000,7.264414794921875,-0.9834442138671875,-0.224395751953125,0.0670928955078125
1751013654139358000,7.27435791015625,-0.98046875,-0.226531982421875,0.07086181640625
1751013654149301000,7.284301025390625,-0.98284912109375,-0.227386474609375,0.0717315673828125
1751013654159245000,7.2942451171875,-0.9866790771484375,-0.2263946533203125,0.070098876953125
1751013654169188000,7.30418798828125,-0.9879608154296875,-0.22509765625,0.0693511962890625
1751013654179132200,7.314132080078125,-0.989227294921875,-0.2270355224609375,0.0693511962890625
1751013654189075200,7.3240751953125,-0.9905242919921875,-0.227294921875,0.0675506591796875
1751013654199019300,7.334019287109375,-0.9925994873046875,-0.2267608642578125,0.0669708251953125
1751013654208962300,7.34396240234375,-0.9889373779296875,-0.2261199951171875,0.065460205078125
1751013654218905000,7.353905029296875,-0.9871826171875,-0.22564697265625,0.066314697265625
1751013654228849200,7.36384912109375,-0.9867401123046875,-0.2230682373046875,0.0684051513671875
1751013654238792200,7.373792236328125,-0.9859771728515625,-0.220611572265625,0.0688934326171875
1751013654248736300,7.383736328125,-0.9843597412109375,-0.221160888671875,0.0694732666015625
1751013654258679000,7.393678955078125,-0.985107421875,-0.21942138671875,0.0709075927734375
1751013654268622000,7.4036220703125,-0.9852447509765625,-0.21990966796875,0.06988525390625
1751013654278566100,7.413566162109375,-0.985565185546875,-0.2200469970703125,0.069305419921875
1751013654288509200,7.42350927734375,-0.9857025146484375,-0.22052001953125,0.06988525390625
1751013654298453000,7.433452880859375,-0.9871063232421875,-0.221038818359375,0.0696868896484375
1751013654308396000,7.44339599609375,-0.9860687255859375,-0.220794677734375,0.068695068359375
1751013654318340000,7.453340087890625,-0.984130859375,-0.220947265625,0.0668487548828125
1751013654328283100,7.463283203125,-0.982635498046875,-0.222198486328125,0.0698089599609375
1751013654338226200,7.47322607421875,-0.9806060791015625,-0.223541259765625,0.06927490234375
1751013654348170000,7.483169921875,-0.981781005859375,-0.22314453125,0.0697021484375
1751013654358113000,7.493113037109375,-0.983062744140625,-0.2237701416015625,0.070709228515625
1751013654368057000,7.50305712890625,-0.9850921630859375,-0.224212646484375,0.068634033203125
1751013654378000100,7.513000244140625,-0.9877777099609375,-0.2241668701171875,0.0670928955078125
1751013654387944200,7.522944091796875,-0.9857025146484375,-0.225555419921875,0.0673980712890625
1751013654397887200,7.53288720703125,-0.9832916259765625,-0.227996826171875,0.0671234130859375
1751013654407830000,7.542830078125,-0.9839630126953125,-0.228515625,0.0664825439453125
1751013654417774000,7.552774169921875,-0.9836578369140625,-0.2284088134765625,0.068389892578125
1751013654427717000,7.562717041015625,-0.9838409423828125,-0.2291259765625,0.071136474609375
1751013654437661200,7.5726611328125,-0.985748291015625,-0.228424072265625,0.07244873046875
1751013654447604200,7.582604248046875,-0.98870849609375,-0.2268829345703125,0.0721588134765625
1751013654457548000,7.592548095703125,-0.9896087646484375,-0.2255401611328125,0.071929931640625
1751013654467491000,7.602490966796875,-0.9898834228515625,-0.2252655029296875,0.070648193359375
1751013654477434000,7.61243408203125,-0.9921722412109375,-0.2238311767578125,0.0693206787109375
1751013654487378200,7.622378173828125,-0.99224853515625,-0.22332763671875,0.0698394775390625
1751013654497321200,7.6323212890625,-0.9931640625,-0.2222747802734375,0.0708770751953125
1751013654507265000,7.64226513671875,-0.99224853515625,-0.2223052978515625,0.0697784423828125
1751013654517208000,7.6522080078125,-0.990234375,-0.221343994140625,0.06884765625
1751013654527151000,7.662151123046875,-0.9922027587890625,-0.2210540771484375,0.0679168701171875
1751013654537095200,7.67209521484375,-0.9928436279296875,-0.2218017578125,0.067291259765625
1751013654547038000,7.682037841796875,-0.9902496337890625,-0.2247314453125,0.0682373046875
1751013654556982500,7.691982421875,-0.9885101318359375,-0.2253265380859375,0.06768798828125
1751013654566925600,7.701925537109375,-0.98809814453125,-0.223663330078125,0.0660247802734375
1751013654576869400,7.711869384765625,-0.98724365234375,-0.222686767578125,0.0643768310546875
1751013654586812400,7.7218125,-0.9880523681640625,-0.222869873046875,0.065032958984375
1751013654596755500,7.73175537109375,-0.986297607421875,-0.224456787109375,0.063934326171875
1751013654606699500,7.741699462890625,-0.98309326171875,-0.2255096435546875,0.061370849609375
1751013654616642600,7.751642578125,-0.9829254150390625,-0.2265167236328125,0.0576171875
1751013654626586400,7.76158642578125,-0.9777984619140625,-0.2279052734375,0.058258056640625
1751013654636529400,7.771529296875,-0.9743194580078125,-0.2268524169921875,0.06060791015625
1751013654646473500,7.781473388671875,-0.972320556640625,-0.2274017333984375,0.064666748046875
1751013654656416500,7.79141650390625,-0.9742889404296875,-0.22784423828125,0.0662841796875
1751013654666359600,7.801359619140625,-0.975860595703125,-0.22747802734375,0.066802978515625
1751013654676303400,7.811303466796875,-0.974945068359375,-0.226470947265625,0.067962646484375
1751013654686246400,7.821246337890625,-0.974578857421875,-0.2266693115234375,0.069732666015625
1751013654696190700,7.831190673828125,-0.9781036376953125,-0.225738525390625,0.070343017578125
1751013654706133500,7.841133544921875,-0.9805145263671875,-0.2259368896484375,0.0696868896484375
1751013654716077600,7.85107763671875,-0.9808807373046875,-0.225738525390625,0.067230224609375
1751013654726020600,7.8610205078125,-0.9873046875,-0.225067138671875,0.067657470703125
1751013654735963600,7.870963623046875,-0.992095947265625,-0.224212646484375,0.069183349609375
1751013654745907500,7.880907470703125,-0.9940948486328125,-0.22406005859375,0.07110595703125
1751013654755850500,7.8908505859375,-0.9951934814453125,-0.2262420654296875,0.07257080078125
1751013654765794600,7.900794677734375,-0.9957122802734375,-0.2261505126953125,0.0714569091796875
1751013654775737600,7.910737548828125,-0.996002197265625,-0.2251739501953125,0.0697479248046875
1751013654785681400,7.920681396484375,-0.9982452392578125,-0.2241058349609375,0.065704345703125
1751013654795624400,7.93062451171875,-0.9999847412109375,-0.2253570556640625,0.063446044921875
1751013654805567500,7.9405673828125,-1.0008392333984375,-0.2266693115234375,0.0639801025390625
1751013654815511600,7.950511474609375,-0.999359130859375,-0.2278289794921875,0.06646728515625
1751013654825454600,7.96045458984375,-0.9958648681640625,-0.2285308837890625,0.06646728515625
1751013654835398400,7.9703984375,-0.9913177490234375,-0.22802734375,0.0638427734375
1751013654845341400,7.980341552734375,-0.99169921875,-0.227203369140625,0.0603485107421875
1751013654855284500,7.990284423828125,-0.9897918701171875,-0.2289886474609375,0.0626068115234375
1751013654865228300,8.000228271484374,-0.9881744384765625,-0.2307891845703125,0.06378173828125
1751013654875171300,8.01017138671875,-0.9834442138671875,-0.23260498046875,0.06341552734375
1751013654885115400,8.020115478515624,-0.9811859130859375,-0.2335662841796875,0.06512451171875
1751013654895058400,8.030058349609375,-0.97900390625,-0.2346343994140625,0.0660552978515625
1751013654905002500,8.04000244140625,-0.9740142822265625,-0.2357025146484375,0.0660400390625
1751013654914945500,8.049945556640624,-0.9726715087890625,-0.2347869873046875,0.062408447265625
1751013654924888600,8.059888671875,-0.971649169921875,-0.232818603515625,0.06304931640625
1751013654934832600,8.06983251953125,-0.974700927734375,-0.232513427734375,0.0662078857421875
1751013654944775700,8.079775634765625,-0.9785308837890625,-0.2337188720703125,0.0652313232421875
1751013654954719500,8.089719482421875,-0.978302001953125,-0.233795166015625,0.065032958984375
1751013654964662500,8.09966259765625,-0.9805450439453125,-0.2332916259765625,0.0635223388671875
1751013654974606600,8.109606689453125,-0.9837646484375,-0.2316436767578125,0.062469482421875
1751013654984549600,8.119549560546876,-0.9858245849609375,-0.22967529296875,0.0607147216796875
1751013654994492400,8.129492431640625,-0.9851226806640625,-0.2302703857421875,0.0583038330078125
1751013655004436500,8.1394365234375,-0.9848480224609375,-0.2299346923828125,0.06158447265625
1751013655014379500,8.149379638671874,-0.988189697265625,-0.2298431396484375,0.0628662109375
1751013655024323600,8.159323486328125,-0.99200439453125,-0.2294769287109375,0.061126708984375
1751013655034266400,8.169266357421876,-0.9922637939453125,-0.2296295166015625,0.0607147216796875
1751013655044210400,8.17921044921875,-0.99200439453125,-0.228363037109375,0.059906005859375
1751013655054153500,8.189153564453125,-0.991241455078125,-0.2288055419921875,0.0599212646484375
1751013655064096500,8.199096435546876,-0.9895172119140625,-0.22918701171875,0.060150146484375
1751013655074040300,8.209040283203125,-0.9870452880859375,-0.2284698486328125,0.0585479736328125
1751013655083983400,8.2189833984375,-0.9837646484375,-0.228973388671875,0.0619354248046875
1751013655093927400,8.228927490234375,-0.9807891845703125,-0.227569580078125,0.0581207275390625
1751013655103870500,8.238870361328125,-0.980072021484375,-0.227996826171875,0.0590972900390625
1751013655113814500,8.248814453125,-0.97857666015625,-0.230224609375,0.0618896484375
1751013655123757600,8.258757568359375,-0.9762725830078125,-0.23223876953125,0.0641632080078125
1751013655133700600,8.26870068359375,-0.9739990234375,-0.233306884765625,0.064483642578125
1751013655143644700,8.278644775390624,-0.9759521484375,-0.2369232177734375,0.06304931640625
1751013655153587500,8.28858740234375,-0.97802734375,-0.2376251220703125,0.058349609375
1751013655163531500,8.298531494140626,-0.9796905517578125,-0.235076904296875,0.059173583984375
1751013655173474600,8.308474609375,-0.9797210693359375,-0.235198974609375,0.0641632080078125
1751013655183417600,8.31841748046875,-0.97967529296875,-0.2369842529296875,0.066558837890625
1751013655193361400,8.328361328125,-0.9804840087890625,-0.2376251220703125,0.06573486328125
1751013655203304400,8.338304443359375,-0.9799346923828125,-0.2358551025390625,0.0644378662109375
1751013655213248500,8.34824853515625,-0.981781005859375,-0.2357635498046875,0.06024169921875
1751013655223191600,8.358191650390625,-0.9799957275390625,-0.2354736328125,0.0582122802734375
1751013655233135400,8.36813525390625,-0.97979736328125,-0.23486328125,0.06353759765625
1751013655243078400,8.378078369140624,-0.9817962646484375,-0.2350311279296875,0.0693817138671875
1751013655253021400,8.388021484375,-0.9854736328125,-0.2356109619140625,0.0718994140625
1751013655262965500,8.397965576171876,-0.9877777099609375,-0.2366790771484375,0.071563720703125
1751013655272908500,8.407908447265624,-0.9879302978515625,-0.2345733642578125,0.0703887939453125
1751013655282852400,8.417852294921875,-0.990386962890625,-0.2343292236328125,0.068359375
1751013655292795400,8.42779541015625,-0.988800048828125,-0.2336578369140625,0.0637969970703125
1751013655302739500,8.437739501953125,-0.98602294921875,-0.2294158935546875,0.06707763671875
1751013655312682500,8.4476826171875,-0.98870849609375,-0.2310028076171875,0.07061767578125
1751013655322625300,8.457625244140624,-0.9896087646484375,-0.23291015625,0.0704345703125
1751013655332569600,8.467569580078125,-0.9873504638671875,-0.2318115234375,0.07122802734375
1751013655342512600,8.4775126953125,-0.983917236328125,-0.230194091796875,0.072418212890625
1751013655352456400,8.48745654296875,-0.98199462890625,-0.2290496826171875,0.0712738037109375
1751013655362399500,8.4973994140625,-0.980987548828125,-0.22967529296875,0.0702056884765625
1751013655372343600,8.507343505859374,-0.9832611083984375,-0.2293548583984375,0.06671142578125
1751013655382286600,8.51728662109375,-0.9849090576171875,-0.228668212890625,0.0652923583984375
1751013655392229600,8.527229736328126,-0.9834442138671875,-0.2289886474609375,0.06689453125
1751013655402173400,8.53717333984375,-0.98565673828125,-0.2295684814453125,0.06585693359375
1751013655412116500,8.547116455078125,-0.9858551025390625,-0.227935791015625,0.06439208984375
1751013655422060500,8.557060546875,-0.986602783203125,-0.2276458740234375,0.06329345703125
1751013655432003600,8.567003662109375,-0.9847564697265625,-0.22821044921875,0.063720703125
1751013655441947400,8.576947509765626,-0.9839630126953125,-0.229705810546875,0.0646514892578125
1751013655451890400,8.586890380859375,-0.9819183349609375,-0.230010986328125,0.0661163330078125
1751013655461833500,8.59683349609375,-0.981536865234375,-0.22900390625,0.06622314453125
1751013655471777500,8.606777587890624,-0.982757568359375,-0.2291717529296875,0.0667266845703125
1751013655481720300,8.61672021484375,-0.984161376953125,-0.2276611328125,0.06451416015625
1751013655491664400,8.626664306640626,-0.98748779296875,-0.2256622314453125,0.0645294189453125
1751013655501607400,8.636607421875,-0.991058349609375,-0.22406005859375,0.0630645751953125
1751013655511551500,8.646551513671875,-0.9896240234375,-0.224945068359375,0.0636749267578125
1751013655521494300,8.656494384765624,-0.9879150390625,-0.227386474609375,0.0584716796875
1751013655531437300,8.666437255859375,-0.9853668212890625,-0.2274322509765625,0.05377197265625
1751013655541381600,8.676381591796876,-0.984222412109375,-0.2267608642578125,0.05609130859375
1751013655551324700,8.68632470703125,-0.983978271484375,-0.2293701171875,0.061279296875
1751013655561268500,8.6962685546875,-0.9828948974609375,-0.2307281494140625,0.06329345703125
1751013655571211500,8.70621142578125,-0.98321533203125,-0.2311248779296875,0.0635986328125
1751013655581155600,8.716155517578125,-0.9805908203125,-0.2310791015625,0.063446044921875
1751013655591098600,8.7260986328125,-0.9796600341796875,-0.2322540283203125,0.06011962890625
1751013655601041700,8.736041748046874,-0.981964111328125,-0.2324981689453125,0.057403564453125
1751013655610985500,8.7459853515625,-0.985321044921875,-0.2311553955078125,0.05767822265625
1751013655620928500,8.755928466796876,-0.987823486328125,-0.2304229736328125,0.058746337890625
1751013655630872600,8.76587255859375,-0.98931884765625,-0.230255126953125,0.0602264404296875
1751013655640815600,8.775815673828125,-0.9927825927734375,-0.2297821044921875,0.05975341796875
1751013655650759400,8.785759521484374,-0.993316650390625,-0.22955322265625,0.0593109130859375
1751013655660702500,8.795702392578125,-0.9883880615234375,-0.22894287109375,0.0589752197265625
1751013655670645500,8.8056455078125,-0.985076904296875,-0.22869873046875,0.05877685546875
1751013655680589300,8.81558935546875,-0.982818603515625,-0.2280120849609375,0.060516357421875
1751013655690532400,8.825532470703125,-0.9826202392578125,-0.2280426025390625,0.063568115234375
1751013655700476400,8.835476318359374,-0.98272705078125,-0.2284088134765625,0.065032958984375
1751013655710419500,8.84541943359375,-0.9851837158203125,-0.2291259765625,0.0650482177734375
1751013655720363300,8.85536328125,-0.983245849609375,-0.2301483154296875,0.065948486328125
1751013655730306300,8.865306396484375,-0.98211669921875,-0.230499267578125,0.0670318603515625
1751013655740249300,8.875249267578125,-0.9835052490234375,-0.229278564453125,0.0659027099609375
1751013655750193700,8.885193603515624,-0.98309326171875,-0.2288055419921875,0.06634521484375
1751013655760136700,8.89513671875,-0.9844512939453125,-0.22998046875,0.068145751953125
1751013655770080500,8.90508056640625,-0.9864349365234375,-0.2295074462890625,0.067230224609375
1751013655780023600,8.9150234375,-0.9881591796875,-0.22943115234375,0.065765380859375
1751013655789967600,8.924967529296875,-0.989288330078125,-0.2296142578125,0.0628814697265625
1751013655799910700,8.93491064453125,-0.98663330078125,-0.2300262451171875,0.0609130859375
1751013655809853400,8.944853515625,-0.98388671875,-0.2298431396484375,0.0601654052734375
1751013655819797500,8.954797607421876,-0.984527587890625,-0.2294158935546875,0.060394287109375
1751013655829740500,8.964740478515624,-0.986663818359375,-0.2301483154296875,0.0616912841796875
1751013655839684600,8.9746845703125,-0.990264892578125,-0.231658935546875,0.0614013671875
1751013655849627400,8.98462744140625,-0.991180419921875,-0.2324981689453125,0.0636749267578125
1751013655859571500,8.994571533203125,-0.9879913330078125,-0.2346343994140625,0.06097412109375
1751013655869514500,9.004514404296875,-0.99066162109375,-0.23443603515625,0.0594940185546875
1751013655879457500,9.01445751953125,-0.990936279296875,-0.234527587890625,0.0558013916015625
1751013655889401300,9.0244013671875,-0.9873046875,-0.23443603515625,0.0532073974609375
1751013655899344400,9.034344482421876,-0.9897003173828125,-0.232330322265625,0.0534515380859375
1751013655909288400,9.044288330078125,-0.98651123046875,-0.232513427734375,0.0561981201171875
1751013655919231500,9.0542314453125,-0.982757568359375,-0.2338104248046875,0.057220458984375
1751013655929174500,9.064174560546874,-0.9843597412109375,-0.233154296875,0.05975341796875
1751013655939118300,9.074118408203125,-0.9829559326171875,-0.233001708984375,0.060546875
1751013655949061400,9.084061279296876,-0.9801177978515625,-0.232635498046875,0.0601806640625
1751013655959005700,9.094005615234375,-0.9824981689453125,-0.2315826416015625,0.0592193603515625
1751013655968948500,9.103948486328125,-0.9835052490234375,-0.230255126953125,0.0584716796875
1751013655978892500,9.113892578125,-0.9842529296875,-0.23126220703125,0.0591583251953125
1751013655988835600,9.123835693359375,-0.9854583740234375,-0.2314300537109375,0.0621337890625
1751013655998778600,9.133778564453126,-0.983245849609375,-0.2319183349609375,0.0640869140625
1751013656008722400,9.143722412109375,-0.97650146484375,-0.2318878173828125,0.0661163330078125
1751013656018665500,9.15366552734375,-0.973968505859375,-0.231231689453125,0.0688934326171875
1751013656028609500,9.163609619140624,-0.97412109375,-0.22991943359375,0.0697479248046875
1751013656038552600,9.173552490234375,-0.975250244140625,-0.2286834716796875,0.0713348388671875
1751013656048496400,9.183496337890626,-0.9752197265625,-0.2298583984375,0.0731353759765625
1751013656058439400,9.193439453125,-0.9782562255859375,-0.230743408203125,0.0733642578125
1751013656068382500,9.203382568359375,-0.980194091796875,-0.2292327880859375,0.070526123046875
1751013656078326500,9.213326416015626,-0.9818115234375,-0.229644775390625,0.0693511962890625
1751013656088269600,9.22326953125,-0.9831390380859375,-0.2301025390625,0.0689849853515625
1751013656098213400,9.23321337890625,-0.9820404052734375,-0.229522705078125,0.069305419921875
1751013656108156400,9.243156494140624,-0.9813995361328125,-0.2292633056640625,0.0697021484375
1751013656118100500,9.2531005859375,-0.9794158935546875,-0.2277069091796875,0.071075439453125
1751013656128043500,9.26304345703125,-0.9781646728515625,-0.2276611328125,0.0702362060546875
1751013656137986300,9.272986328125,-0.9780120849609375,-0.2294769287109375,0.0695343017578125
1751013656147930400,9.282930419921875,-0.9823455810546875,-0.22998046875,0.0697479248046875
1751013656157873400,9.292873291015624,-0.9834747314453125,-0.2313232421875,0.0699005126953125
1751013656167817500,9.3028173828125,-0.986419677734375,-0.2308502197265625,0.067413330078125
1751013656177760500,9.312760498046876,-0.9887847900390625,-0.2304840087890625,0.0659942626953125
1751013656187704600,9.32270458984375,-0.986663818359375,-0.23211669921875,0.06719970703125
1751013656197647600,9.332647705078125,-0.9843292236328125,-0.233795166015625,0.0670013427734375
1751013656207590700,9.342590576171874,-0.983795166015625,-0.2345733642578125,0.0666656494140625
1751013656217534500,9.352534423828125,-0.9837188720703125,-0.2327117919921875,0.0645294189453125
1751013656227477500,9.3624775390625,-0.986175537109375,-0.2330474853515625,0.06402587890625
1751013656237421600,9.372421630859375,-0.9860992431640625,-0.2335662841796875,0.0663909912109375
1751013656247364600,9.382364501953125,-0.9820556640625,-0.2354888916015625,0.066741943359375
1751013656257308400,9.392308349609374,-0.9803009033203125,-0.23468017578125,0.066314697265625
1751013656267251500,9.40225146484375,-0.9788055419921875,-0.2353057861328125,0.0666046142578125
1751013656277194500,9.412194580078125,-0.982025146484375,-0.2349090576171875,0.0650177001953125
1751013656287138600,9.422138671875,-0.9837188720703125,-0.233306884765625,0.0644073486328125
1751013656297081300,9.432081298828125,-0.9838104248046875,-0.234588623046875,0.0643157958984375
1751013656307025400,9.442025390625,-0.984344482421875,-0.2344207763671875,0.0653228759765625
1751013656316968400,9.451968505859375,-0.9837799072265625,-0.232574462890625,0.065673828125
1751013656326912500,9.46191259765625,-0.983489990234375,-0.230010986328125,0.068756103515625
1751013656336855300,9.471855224609374,-0.9853057861328125,-0.2287139892578125,0.0695648193359375
1751013656346798300,9.48179833984375,-0.9846649169921875,-0.2285003662109375,0.0690460205078125
1751013656356742400,9.491742431640626,-0.984832763671875,-0.228179931640625,0.0675811767578125
1751013656366685400,9.501685546875,-0.985626220703125,-0.2294158935546875,0.068206787109375
1751013656376629500,9.51162939453125,-0.9840850830078125,-0.2313995361328125,0.066741943359375
1751013656386572500,9.521572509765624,-0.9826507568359375,-0.2322235107421875,0.0662384033203125
1751013656396516600,9.5315166015625,-0.984832763671875,-0.230194091796875,0.067413330078125
1751013656406459600,9.541459716796876,-0.9865264892578125,-0.231292724609375,0.0684814453125
1751013656416402700,9.551402587890625,-0.9905548095703125,-0.2312164306640625,0.067535400390625
1751013656426346500,9.561346435546875,-0.995147705078125,-0.2277069091796875,0.06744384765625
1751013656436289500,9.57128955078125,-0.9967193603515625,-0.22705078125,0.0689239501953125
1751013656446233600,9.581233642578125,-0.998870849609375,-0.22796630859375,0.06719970703125
1751013656456176600,9.5911767578125,-1.001678466796875,-0.2277069091796875,0.06353759765625
1751013656466120400,9.601120361328125,-0.999542236328125,-0.2258453369140625,0.0626983642578125
1751013656476063500,9.6110634765625,-0.9962158203125,-0.2244415283203125,0.06219482421875
1751013656486006500,9.621006591796874,-0.9938201904296875,-0.2233734130859375,0.0645599365234375
1751013656495950300,9.630950439453125,-0.99615478515625,-0.2234039306640625,0.0663299560546875
1751013656505893400,9.640893310546875,-0.99371337890625,-0.223907470703125,0.0683135986328125
1751013656515837400,9.65083740234375,-0.9898834228515625,-0.223876953125,0.0706939697265625
1751013656525780500,9.660780517578125,-0.9902801513671875,-0.2233123779296875,0.06939697265625
1751013656535724300,9.670724365234374,-0.988555908203125,-0.2232208251953125,0.0661468505859375
1751013656545667300,9.680667236328125,-0.9861602783203125,-0.221527099609375,0.064117431640625
1751013656555610000,9.690610107421875,-0.9846038818359375,-0.2202301025390625,0.065826416015625
1751013656565554200,9.70055419921875,-0.982025146484375,-0.2206878662109375,0.0677947998046875
1751013656575497200,9.710497314453125,-0.98199462890625,-0.2205352783203125,0.0657196044921875
1751013656585441300,9.720441162109376,-0.9820404052734375,-0.220428466796875,0.06378173828125
1751013656595384300,9.73038427734375,-0.9776763916015625,-0.22186279296875,0.0619659423828125
1751013656605328400,9.740328369140625,-0.9751434326171875,-0.2228546142578125,0.06341552734375
1751013656615271400,9.750271484375,-0.9786376953125,-0.22393798828125,0.0626983642578125
1751013656625214500,9.76021435546875,-0.9816436767578125,-0.2245330810546875,0.063079833984375
1751013656635158300,9.770158203125,-0.983367919921875,-0.22601318359375,0.0629425048828125
1751013656645101300,9.780101318359375,-0.984954833984375,-0.2259368896484375,0.0643157958984375
1751013656655045400,9.79004541015625,-0.9878692626953125,-0.2264251708984375,0.0647430419921875
1751013656664988200,9.79998828125,-0.9858551025390625,-0.2254638671875,0.0597076416015625
1751013656674932200,9.80993212890625,-0.984283447265625,-0.22442626953125,0.055084228515625
1751013656684875300,9.819875244140626,-0.9864349365234375,-0.224151611328125,0.055816650390625
1751013656694818300,9.829818359375,-0.9906768798828125,-0.225250244140625,0.05963134765625
1751013656704762000,9.83976220703125,-0.9904327392578125,-0.227569580078125,0.06597900390625
1751013656714705200,9.849705078125,-0.9842681884765625,-0.2266845703125,0.0675811767578125
1751013656724649200,9.859649169921875,-0.9865264892578125,-0.2249908447265625,0.0646209716796875
1751013656734592300,9.86959228515625,-0.99114990234375,-0.2225799560546875,0.0631561279296875
1751013656744536000,9.8795361328125,-0.9921417236328125,-0.2227325439453125,0.06396484375
1751013656754479000,9.88947900390625,-0.99163818359375,-0.2238006591796875,0.064544677734375
1751013656764422100,9.899422119140626,-0.990264892578125,-0.222320556640625,0.0641937255859375
1751013656774366200,9.9093662109375,-0.9923248291015625,-0.2212982177734375,0.0619659423828125
1751013656784309200,9.919309326171875,-0.99249267578125,-0.22283935546875,0.05908203125
1751013656794253300,9.92925341796875,-0.992828369140625,-0.22308349609375,0.0576171875
1751013656804196400,9.9391962890625,-0.9939422607421875,-0.2215576171875,0.0572357177734375
1751013656814140400,9.949140380859374,-0.9889678955078125,-0.221893310546875,0.06097412109375
1751013656824083500,9.95908349609375,-0.985595703125,-0.2234344482421875,0.0653228759765625
1751013656834026200,9.969026123046875,-0.9835052490234375,-0.2247314453125,0.0639190673828125
1751013656843970300,9.97897021484375,-0.9837493896484375,-0.2237396240234375,0.064300537109375
1751013656853913300,9.988913330078125,-0.9804229736328125,-0.2232513427734375,0.0623779296875
1751013656863857200,9.998857177734376,-0.9795074462890625,-0.222808837890625,0.0642547607421875
1751013656873800200,10.00880029296875,-0.9816131591796875,-0.22430419921875,0.0675506591796875
1751013656883744300,10.018744140625,-0.9821014404296875,-0.2271728515625,0.06536865234375
1751013656893687300,10.028687255859374,-0.9809417724609375,-0.2275848388671875,0.062347412109375
1751013656903630300,10.03863037109375,-0.9826507568359375,-0.2248992919921875,0.0642547607421875
1751013656913574100,10.04857421875,-0.9820098876953125,-0.2230224609375,0.0647125244140625
1751013656923517200,10.05851708984375,-0.983551025390625,-0.2222137451171875,0.06231689453125
1751013656933461200,10.068461181640625,-0.9842987060546875,-0.22113037109375,0.060394287109375
1751013656943404300,10.078404296875,-0.9845123291015625,-0.2229156494140625,0.0593414306640625
1751013656953348000,10.08834814453125,-0.98382568359375,-0.2270050048828125,0.0595550537109375
1751013656963291100,10.098291015625,-0.984100341796875,-0.2276458740234375,0.05731201171875
1751013656973234200,10.108234130859374,-0.9823150634765625,-0.227386474609375,0.056640625
1751013656983178200,10.11817822265625,-0.98077392578125,-0.2280731201171875,0.0581817626953125
1751013656993121000,10.12812109375,-0.982818603515625,-0.22705078125,0.056793212890625
1751013657003065300,10.1380654296875,-0.985107421875,-0.2258453369140625,0.0545501708984375
1751013657013008400,10.14800830078125,-0.987884521484375,-0.225250244140625,0.0567474365234375
1751013657022952200,10.1579521484375,-0.989990234375,-0.22705078125,0.060577392578125
1751013657032895200,10.167895263671875,-0.9907989501953125,-0.2288665771484375,0.059295654296875
1751013657042838300,10.17783837890625,-0.9893646240234375,-0.227569580078125,0.0585174560546875
1751013657052782300,10.1877822265625,-0.9889068603515625,-0.225189208984375,0.059417724609375
1751013657062725400,10.197725341796875,-0.98333740234375,-0.2239990234375,0.060272216796875
1751013657072669200,10.207669189453124,-0.9782562255859375,-0.22332763671875,0.0629119873046875
1751013657082612200,10.2176123046875,-0.981231689453125,-0.2213592529296875,0.06402587890625
1751013657092556300,10.227556396484376,-0.98126220703125,-0.2200927734375,0.063201904296875
1751013657102499300,10.237499267578125,-0.980499267578125,-0.21978759765625,0.0633087158203125
1751013657112442400,10.2474423828125,-0.98162841796875,-0.219085693359375,0.0638427734375
1751013657122386200,10.25738623046875,-0.98516845703125,-0.218719482421875,0.06561279296875
1751013657132329200,10.2673291015625,-0.9878387451171875,-0.219818115234375,0.0674896240234375
1751013657142273300,10.277273193359376,-0.98822021484375,-0.2212066650390625,0.0664215087890625
1751013657152216300,10.28721630859375,-0.989288330078125,-0.22265625,0.0637969970703125
1751013657162159000,10.2971591796875,-0.9883880615234375,-0.2222900390625,0.0630340576171875
1751013657172103200,10.307103271484374,-0.9842529296875,-0.2220916748046875,0.065826416015625
1751013657182046200,10.317046142578125,-0.981292724609375,-0.2227020263671875,0.0674285888671875
1751013657191990000,10.326989990234376,-0.9816131591796875,-0.222198486328125,0.0680999755859375
1751013657201933000,10.33693310546875,-0.98345947265625,-0.22296142578125,0.066619873046875
1751013657211877400,10.34687744140625,-0.9836883544921875,-0.22308349609375,0.0664825439453125
1751013657221820400,10.3568203125,-0.98883056640625,-0.2221527099609375,0.065093994140625
1751013657231764200,10.36676416015625,-0.9941864013671875,-0.2214202880859375,0.064727783203125
1751013657241707300,10.376707275390626,-0.9912872314453125,-0.22125244140625,0.0657196044921875
1751013657251650300,10.386650390625,-0.9906768798828125,-0.2191925048828125,0.06488037109375
1751013657261594400,10.396594482421875,-0.991729736328125,-0.2192840576171875,0.0658416748046875
1751013657271537400,10.406537353515626,-0.9897918701171875,-0.220123291015625,0.0668182373046875
1751013657281481200,10.416481201171875,-0.9899444580078125,-0.2183685302734375,0.06683349609375
1751013657291424300,10.42642431640625,-0.9875335693359375,-0.2167205810546875,0.0695037841796875
1751013657301368300,10.436368408203125,-0.987274169921875,-0.21844482421875,0.06988525390625
1751013657311311400,10.446311279296875,-0.9906158447265625,-0.21990966796875,0.06890869140625
1751013657321254100,10.456254150390626,-0.9937896728515625,-0.2190399169921875,0.065948486328125
1751013657331198200,10.4661982421875,-0.99273681640625,-0.217498779296875,0.0655670166015625
1751013657341141200,10.476141357421875,-0.9884185791015625,-0.2171783447265625,0.06732177734375
1751013657351085300,10.486085205078124,-0.9895782470703125,-0.217681884765625,0.0679931640625
1751013657361028000,10.496028076171875,-0.9924468994140625,-0.2174224853515625,0.06756591796875
1751013657370972200,10.50597216796875,-0.9885101318359375,-0.2172393798828125,0.06591796875
1751013657380915200,10.515915283203125,-0.985565185546875,-0.2187652587890625,0.0652008056640625
1751013657390858200,10.525858154296875,-0.987060546875,-0.218780517578125,0.063873291015625
1751013657400802000,10.535802001953124,-0.99395751953125,-0.2202301025390625,0.0602569580078125
1751013657410745000,10.5457451171875,-1.003997802734375,-0.216888427734375,0.062957763671875
1751013657420689400,10.555689453125,-0.9644012451171875,-0.205810546875,0.0674285888671875
1751013657430632400,10.565632568359375,-0.868804931640625,-0.1992340087890625,0.0880889892578125
1751013657440576300,10.575576171875,-0.9700469970703125,-0.21795654296875,0.1109161376953125
1751013657450519300,10.585519287109374,-1.010711669921875,-0.2359161376953125,0.0868682861328125
1751013657460462300,10.59546240234375,-1.021087646484375,-0.234466552734375,0.076934814453125
1751013657470406400,10.605406494140626,-1.021728515625,-0.2315673828125,0.079498291015625
1751013657480349200,10.61534912109375,-1.0294342041015625,-0.238677978515625,0.0762939453125
1751013657490293200,10.625293212890625,-1.0705718994140625,-0.2458038330078125,0.0742645263671875
1751013657500236300,10.635236328125,-1.0956268310546875,-0.2418365478515625,0.065826416015625
1751013657510180400,10.645180419921875,-1.07025146484375,-0.2322998046875,0.0690765380859375
1751013657520123100,10.655123046875,-1.0223541259765625,-0.21441650390625,0.0723419189453125
