time,seconds_elapsed,z,y,x
1751015756685070000,0.116070068359375,-1.0675811767578125,-0.0660400390625,-0.0635528564453125
1751015756695013000,0.12601318359375,-1.0748443603515625,-0.060760498046875,-0.0622100830078125
1751015756704956200,0.1359560546875,-1.08343505859375,-0.0634002685546875,-0.07061767578125
1751015756714899000,0.14589892578125,-1.10650634765625,-0.06793212890625,-0.067901611328125
1751015756724842000,0.155842041015625,-1.151336669921875,-0.07330322265625,-0.053497314453125
1751015756734785000,0.165784912109375,-1.2042236328125,-0.089141845703125,-0.0453033447265625
1751015756744727000,0.17572705078125,-1.268218994140625,-0.104522705078125,-0.035369873046875
1751015756754670000,0.185670166015625,-1.3681640625,-0.0866241455078125,-0.012176513671875
1751015756764613000,0.195613037109375,-1.493896484375,-0.02838134765625,0.02215576171875
1751015756774556200,0.20555615234375,-1.629974365234375,0.0519866943359375,0.0583648681640625
1751015756784499200,0.215499267578125,-1.784637451171875,0.1527557373046875,0.07373046875
1751015756794442200,0.225442138671875,-1.9108428955078125,0.25982666015625,0.016571044921875
1751015756804385300,0.23538525390625,-1.974639892578125,0.3327789306640625,-0.1072540283203125
1751015756814328300,0.245328369140625,-1.965423583984375,0.3154144287109375,-0.2776031494140625
1751015756824271000,0.25527099609375,-1.8494415283203125,0.2266387939453125,-0.3906402587890625
1751015756834213400,0.26521337890625,-1.6505889892578125,0.1614990234375,-0.3617706298828125
1751015756844156200,0.27515625,-1.43695068359375,0.1437530517578125,-0.2525482177734375
1751015756854099000,0.285098876953125,-1.270263671875,0.12982177734375,-0.11883544921875
1751015756864042000,0.2950419921875,-1.2059783935546875,0.0787811279296875,0.004852294921875
1751015756873985000,0.304985107421875,-1.2093658447265625,0.030059814453125,0.086761474609375
1751015756883928000,0.314927978515625,-1.1662750244140625,0.031524658203125,0.110931396484375
1751015756893871000,0.32487109375,-1.0575103759765625,-0.038421630859375,0.134979248046875
1751015756903814100,0.334814208984375,-0.943145751953125,-0.145660400390625,0.117034912109375
1751015756913756200,0.344756103515625,-0.8534393310546875,-0.175628662109375,0.093902587890625
1751015756923699200,0.35469921875,-0.8130340576171875,-0.1375274658203125,0.109832763671875
1751015756933642200,0.364642333984375,-0.8025054931640625,-0.152801513671875,0.1072235107421875
1751015756943585300,0.374585205078125,-0.7492523193359375,-0.21539306640625,0.0775299072265625
1751015756953528000,0.384528076171875,-0.671844482421875,-0.268951416015625,0.0533447265625
1751015756963471000,0.39447119140625,-0.6190185546875,-0.328399658203125,0.054656982421875
1751015756973414100,0.4044140625,-0.599609375,-0.3847808837890625,0.079376220703125
1751015756983357200,0.414357177734375,-0.615966796875,-0.3882293701171875,0.1185455322265625
1751015756993300200,0.42430029296875,-0.6667633056640625,-0.305419921875,0.18389892578125
1751015757003242200,0.4342421875,-0.6887054443359375,-0.2297210693359375,0.2244415283203125
1751015757013185300,0.444185302734375,-0.6484832763671875,-0.1881256103515625,0.2267913818359375
1751015757023128000,0.454128173828125,-0.62371826171875,-0.1309967041015625,0.2472381591796875
1751015757033071000,0.464071044921875,-0.606781005859375,-0.0957183837890625,0.2229766845703125
1751015757043014100,0.47401416015625,-0.6018218994140625,-0.0812225341796875,0.16082763671875
1751015757052957200,0.483957275390625,-0.6059112548828125,-0.0869598388671875,0.101318359375
1751015757062900000,0.49389990234375,-0.6460113525390625,-0.10198974609375,0.0728759765625
1751015757072843000,0.503843017578125,-0.680084228515625,-0.1613311767578125,0.0572357177734375
1751015757082785000,0.513784912109375,-0.6930694580078125,-0.1944122314453125,0.0676727294921875
1751015757092728000,0.52372802734375,-0.6928558349609375,-0.201171875,0.0775146484375
1751015757102671000,0.533671142578125,-0.7156524658203125,-0.190338134765625,0.0903778076171875
1751015757112614100,0.5436142578125,-0.7438201904296875,-0.16839599609375,0.119598388671875
1751015757122557200,0.55355712890625,-0.7431793212890625,-0.1329803466796875,0.125579833984375
1751015757132500200,0.563500244140625,-0.729461669921875,-0.0996551513671875,0.1309356689453125
1751015757142443300,0.573443359375,-0.71728515625,-0.0953521728515625,0.14703369140625
1751015757152386300,0.58338623046875,-0.74981689453125,-0.089324951171875,0.15142822265625
1751015757162329000,0.5933291015625,-0.81134033203125,-0.0721893310546875,0.15118408203125
1751015757172271400,0.603271240234375,-0.850250244140625,-0.067840576171875,0.16455078125
1751015757182214100,0.613214111328125,-0.85638427734375,-0.1010284423828125,0.1686859130859375
1751015757192157200,0.6231572265625,-0.8826904296875,-0.1298675537109375,0.166259765625
1751015757202100000,0.633099853515625,-0.89898681640625,-0.1678009033203125,0.164886474609375
1751015757212043000,0.64304296875,-0.89739990234375,-0.2146453857421875,0.159820556640625
1751015757221986000,0.652986083984375,-0.9180145263671875,-0.2324066162109375,0.153167724609375
1751015757231929000,0.66292919921875,-0.9525604248046875,-0.227691650390625,0.139862060546875
1751015757241872100,0.6728720703125,-0.9734649658203125,-0.217071533203125,0.112335205078125
1751015757251815200,0.682815185546875,-0.9577484130859375,-0.1969146728515625,0.1078338623046875
1751015757261757200,0.692757080078125,-0.9565277099609375,-0.182952880859375,0.120819091796875
1751015757271700200,0.7027001953125,-0.97589111328125,-0.16748046875,0.1343994140625
1751015757281643300,0.712643310546875,-1.0050811767578125,-0.1476287841796875,0.15118408203125
1751015757291586000,0.7225859375,-1.0157318115234375,-0.1440582275390625,0.14068603515625
1751015757301529000,0.732529052734375,-1.001739501953125,-0.15447998046875,0.1233062744140625
1751015757311472000,0.74247216796875,-0.9943389892578125,-0.1690521240234375,0.1050872802734375
1751015757321415200,0.752415283203125,-0.97662353515625,-0.1995697021484375,0.0922393798828125
1751015757331358200,0.762358154296875,-0.9473114013671875,-0.2310028076171875,0.0859832763671875
1751015757341300200,0.77230029296875,-0.922515869140625,-0.25885009765625,0.081268310546875
1751015757351243300,0.7822431640625,-0.9211273193359375,-0.296844482421875,0.070556640625
1751015757361186300,0.792186279296875,-0.9136505126953125,-0.3214874267578125,0.071685791015625
1751015757371129000,0.802129150390625,-0.9080963134765625,-0.3260650634765625,0.096588134765625
1751015757381072100,0.812072021484375,-0.91619873046875,-0.3377532958984375,0.1019439697265625
1751015757391015200,0.82201513671875,-0.9127960205078125,-0.3452606201171875,0.0962066650390625
1751015757400958000,0.8319580078125,-0.891021728515625,-0.3407135009765625,0.102508544921875
1751015757410901000,0.84190087890625,-0.86865234375,-0.3311920166015625,0.1193084716796875
1751015757420843000,0.851843017578125,-0.8462677001953125,-0.3218841552734375,0.1261138916015625
1751015757430786000,0.8617861328125,-0.8289947509765625,-0.3143157958984375,0.1246337890625
1751015757440729000,0.87172900390625,-0.8270721435546875,-0.31005859375,0.11639404296875
1751015757450672000,0.881672119140625,-0.8391265869140625,-0.3076934814453125,0.1080322265625
1751015757460615200,0.891615234375,-0.844757080078125,-0.304595947265625,0.1123809814453125
1751015757470558200,0.90155810546875,-0.83709716796875,-0.3018341064453125,0.11627197265625
1751015757480501200,0.911501220703125,-0.821014404296875,-0.3047027587890625,0.116546630859375
1751015757490444300,0.9214443359375,-0.817626953125,-0.30670166015625,0.108001708984375
1751015757500387000,0.931386962890625,-0.81829833984375,-0.3164825439453125,0.0976104736328125
1751015757510329300,0.941329345703125,-0.8064117431640625,-0.3308258056640625,0.0966949462890625
1751015757520272100,0.951272216796875,-0.8003997802734375,-0.3514556884765625,0.1021270751953125
1751015757530215200,0.961215087890625,-0.8048248291015625,-0.3749237060546875,0.114105224609375
1751015757540158000,0.971157958984375,-0.813385009765625,-0.3923797607421875,0.126953125
1751015757550101000,0.98110107421875,-0.814361572265625,-0.4141693115234375,0.139923095703125
1751015757560044000,0.9910439453125,-0.810455322265625,-0.43701171875,0.1527099609375
1751015757569987000,1.000987060546875,-0.793731689453125,-0.4543609619140625,0.16192626953125
1751015757579930000,1.01093017578125,-0.771392822265625,-0.4643096923828125,0.1701202392578125
1751015757589873200,1.020873046875,-0.7523956298828125,-0.4678802490234375,0.1762237548828125
1751015757599815200,1.030815185546875,-0.7344970703125,-0.468994140625,0.1846771240234375
1751015757609758200,1.04075830078125,-0.718902587890625,-0.4659881591796875,0.1953582763671875
1751015757619701200,1.050701171875,-0.7063446044921875,-0.4487457275390625,0.1936798095703125
1751015757629644000,1.06064404296875,-0.6839447021484375,-0.4150390625,0.1889495849609375
1751015757639587000,1.070587158203125,-0.6498565673828125,-0.3871917724609375,0.174072265625
1751015757649529300,1.080529296875,-0.57708740234375,-0.40606689453125,0.1540374755859375
1751015757659472400,1.090472412109375,-0.503997802734375,-0.41070556640625,0.1468658447265625
1751015757669415400,1.10041552734375,-0.4912872314453125,-0.379180908203125,0.14984130859375
1751015757679358500,1.1103583984375,-0.553009033203125,-0.362091064453125,0.1505889892578125
1751015757689300500,1.120300537109375,-0.6324462890625,-0.3390350341796875,0.159210205078125
1751015757699243500,1.130243408203125,-0.6902618408203125,-0.321533203125,0.153717041015625
1751015757709186600,1.1401865234375,-0.7498321533203125,-0.3027191162109375,0.14373779296875
1751015757719129600,1.150129638671875,-0.79644775390625,-0.281341552734375,0.1338653564453125
1751015757729072600,1.16007275390625,-0.816162109375,-0.2478790283203125,0.0882720947265625
1751015757739015700,1.170015625,-0.8243408203125,-0.212646484375,0.0265960693359375
1751015757748958500,1.17995849609375,-0.8426513671875,-0.1776275634765625,-0.0277252197265625
1751015757758901500,1.189901611328125,-0.87371826171875,-0.134765625,-0.0558013916015625
1751015757768844500,1.199844482421875,-0.9078216552734375,-0.095794677734375,-0.0619354248046875
1751015757778786300,1.209786376953125,-0.937896728515625,-0.058197021484375,-0.060943603515625
1751015757788729300,1.219729248046875,-0.9673919677734375,-0.037445068359375,-0.04937744140625
1751015757798672400,1.22967236328125,-1.005889892578125,-0.040679931640625,-0.05450439453125
1751015757808615400,1.239615478515625,-1.0431671142578125,-0.0475311279296875,-0.0734100341796875
1751015757818558500,1.249558349609375,-1.0793914794921875,-0.046142578125,-0.09674072265625
1751015757828501500,1.25950146484375,-1.1026153564453125,-0.0466461181640625,-0.116302490234375
1751015757838444500,1.269444580078125,-1.101165771484375,-0.0536651611328125,-0.1187896728515625
1751015757848387600,1.2793876953125,-1.07879638671875,-0.0629730224609375,-0.1035919189453125
1751015757858330400,1.289330322265625,-1.062347412109375,-0.0751495361328125,-0.0883941650390625
1751015757868272600,1.299272705078125,-1.042755126953125,-0.0933380126953125,-0.0779571533203125
1751015757878215400,1.30921533203125,-1.0096282958984375,-0.1110687255859375,-0.0562744140625
1751015757888158500,1.319158447265625,-0.9775238037109375,-0.1279144287109375,-0.039215087890625
1751015757898101500,1.3291015625,-0.9524993896484375,-0.14056396484375,-0.0314788818359375
1751015757908044500,1.33904443359375,-0.9277496337890625,-0.1497344970703125,-0.019256591796875
1751015757917987600,1.348987548828125,-0.89898681640625,-0.1573486328125,-0.00213623046875
1751015757927930600,1.3589306640625,-0.8890838623046875,-0.14947509765625,0.0064239501953125
1751015757937873700,1.368873779296875,-0.9504852294921875,-0.13470458984375,-0.0184478759765625
1751015757947816700,1.378816650390625,-1.0263824462890625,-0.136688232421875,-0.077117919921875
1751015757957759700,1.388759765625,-1.0555267333984375,-0.1605377197265625,-0.1294708251953125
1751015757967701500,1.398701416015625,-1.06884765625,-0.196563720703125,-0.1551513671875
1751015757977644500,1.40864453125,-1.0963134765625,-0.2346038818359375,-0.1413116455078125
1751015757987587300,1.41858740234375,-1.130218505859375,-0.2577972412109375,-0.09814453125
1751015757997530400,1.4285302734375,-1.1655120849609375,-0.261260986328125,-0.0406341552734375
1751015758007473400,1.438473388671875,-1.2036285400390625,-0.2715606689453125,0.010772705078125
1751015758017416400,1.44841650390625,-1.2359619140625,-0.289642333984375,0.0317840576171875
1751015758027359500,1.458359375,-1.243804931640625,-0.3029327392578125,0.0328826904296875
1751015758037302500,1.468302490234375,-1.2485198974609375,-0.305908203125,0.020355224609375
1751015758047245600,1.47824560546875,-1.260955810546875,-0.2955474853515625,0.007415771484375
1751015758057187600,1.4881875,-1.2726593017578125,-0.27630615234375,-0.0018463134765625
1751015758067130600,1.498130615234375,-1.2741241455078125,-0.2557830810546875,-0.01123046875
1751015758077073700,1.50807373046875,-1.265838623046875,-0.2383880615234375,-0.010650634765625
1751015758087016700,1.5180166015625,-1.2463226318359375,-0.2233123779296875,-0.0004425048828125
1751015758096959500,1.52795947265625,-1.225250244140625,-0.2152252197265625,0.0097198486328125
1751015758106902500,1.537902587890625,-1.2260284423828125,-0.2162322998046875,0.02490234375
1751015758116845600,1.547845458984375,-1.2427215576171875,-0.2195587158203125,0.0378570556640625
1751015758126788600,1.55778857421875,-1.2442626953125,-0.2303924560546875,0.0397796630859375
1751015758136731600,1.567731689453125,-1.241455078125,-0.247222900390625,0.0444793701171875
1751015758146673400,1.57767333984375,-1.2593994140625,-0.2444610595703125,0.0450286865234375
1751015758156616400,1.587616455078125,-1.280792236328125,-0.2211761474609375,0.0454559326171875
1751015758166559500,1.5975595703125,-1.2742767333984375,-0.198974609375,0.0622711181640625
1751015758176502500,1.60750244140625,-1.2569580078125,-0.179656982421875,0.1213836669921875
1751015758186445600,1.617445556640625,-1.2524871826171875,-0.150634765625,0.2161865234375
1751015758196388600,1.627388671875,-1.2558441162109375,-0.1233062744140625,0.282562255859375
1751015758206331400,1.637331298828125,-1.2648468017578125,-0.1201171875,0.28173828125
1751015758216274400,1.6472744140625,-1.248504638671875,-0.128936767578125,0.226898193359375
1751015758226217500,1.657217529296875,-1.22021484375,-0.1162872314453125,0.1358184814453125
1751015758236160500,1.667160400390625,-1.22271728515625,-0.0809478759765625,0.0557708740234375
1751015758246102500,1.6771025390625,-1.2322845458984375,-0.049560546875,0.0162506103515625
1751015758256045600,1.687045654296875,-1.241851806640625,-0.025726318359375,-0.0080718994140625
1751015758265988600,1.696988525390625,-1.249053955078125,0.003509521484375,-0.0275726318359375
1751015758275931600,1.706931640625,-1.2488250732421875,0.0260772705078125,-0.04583740234375
1751015758285874700,1.716874755859375,-1.2306671142578125,0.042388916015625,-0.0725250244140625
1751015758295817700,1.726817626953125,-1.2021026611328125,0.056915283203125,-0.1047515869140625
1751015758305760500,1.736760498046875,-1.1790924072265625,0.0662078857421875,-0.128570556640625
1751015758315703600,1.74670361328125,-1.1621856689453125,0.069976806640625,-0.140838623046875
1751015758325646600,1.756646484375,-1.1348419189453125,0.071685791015625,-0.13873291015625
1751015758335589400,1.76658935546875,-1.09814453125,0.075103759765625,-0.1319580078125
1751015758345531400,1.776531494140625,-1.06634521484375,0.0814971923828125,-0.126312255859375
1751015758355474400,1.786474365234375,-1.0467529296875,0.075531005859375,-0.123443603515625
1751015758365417500,1.79641748046875,-1.0263519287109375,0.075836181640625,-0.1162567138671875
1751015758375360500,1.806360595703125,-1.0312347412109375,0.0662384033203125,-0.1049346923828125
1751015758385303600,1.816303466796875,-1.01904296875,0.0529022216796875,-0.0962982177734375
1751015758395246600,1.82624658203125,-1.004119873046875,0.0438385009765625,-0.0905609130859375
1751015758405189600,1.836189697265625,-1.0008392333984375,0.0355072021484375,-0.0822296142578125
1751015758415132400,1.84613232421875,-0.9989776611328125,0.024566650390625,-0.074951171875
1751015758425075500,1.856075439453125,-1.0038604736328125,0.01495361328125,-0.066436767578125
1751015758435018500,1.8660185546875,-1.0068206787109375,-0.013519287109375,-0.0733489990234375
1751015758444960500,1.87596044921875,-1.0074920654296875,-0.06964111328125,-0.097991943359375
1751015758454903600,1.885903564453125,-1.0306549072265625,-0.12554931640625,-0.0792694091796875
1751015758464846600,1.8958466796875,-0.9902496337890625,-0.154754638671875,-0.05950927734375
1751015758474789600,1.90578955078125,-0.8830413818359375,-0.1341705322265625,-0.0918426513671875
1751015758484732700,1.915732666015625,-0.774169921875,-0.04864501953125,-0.130615234375
1751015758494675700,1.92567578125,-0.7453765869140625,0.028717041015625,-0.1575927734375
1751015758504618800,1.93561865234375,-0.7704010009765625,0.0472869873046875,-0.1667327880859375
1751015758514561500,1.9455615234375,-0.83251953125,0.0255584716796875,-0.158935546875
1751015758524504300,1.95550439453125,-0.9034271240234375,0.0054168701171875,-0.12615966796875
1751015758534447400,1.965447265625,-0.933441162109375,-0.00299072265625,-0.104034423828125
1751015758544389400,1.975389404296875,-0.928375244140625,-0.0033721923828125,-0.095001220703125
1751015758554332400,1.98533251953125,-0.9274139404296875,-0.0175628662109375,-0.093780517578125
1751015758564275500,1.995275390625,-0.9372100830078125,-0.0424652099609375,-0.0799407958984375
1751015758574218500,2.005218505859375,-0.93511962890625,-0.0645599365234375,-0.0523681640625
1751015758584161500,2.01516162109375,-0.9526824951171875,-0.0908203125,-0.0410308837890625
1751015758594104600,2.0251044921875,-0.9782257080078125,-0.116058349609375,-0.032440185546875
1751015758604047600,2.035047607421875,-0.979766845703125,-0.1336212158203125,-0.0145721435546875
1751015758613990700,2.04499072265625,-0.9668121337890625,-0.1394195556640625,0.0027923583984375
1751015758623933400,2.054933349609375,-0.9530792236328125,-0.1395263671875,0.017242431640625
1751015758633876500,2.06487646484375,-0.9511260986328125,-0.1314544677734375,0.036865234375
1751015758643818500,2.074818603515625,-0.94378662109375,-0.11517333984375,0.0466766357421875
1751015758653757700,2.0847578125,-0.9141387939453125,-0.1013336181640625,0.0374603271484375
1751015758663700700,2.09470068359375,-0.89422607421875,-0.0977935791015625,0.0153045654296875
1751015758673643800,2.104643798828125,-0.9014129638671875,-0.09564208984375,-0.0051422119140625
1751015758683586800,2.1145869140625,-0.9212188720703125,-0.0906219482421875,-0.01446533203125
1751015758693529900,2.12452978515625,-0.934417724609375,-0.0926666259765625,-0.029998779296875
1751015758703473000,2.134472900390625,-0.94720458984375,-0.1004486083984375,-0.0617218017578125
1751015758713416000,2.144416015625,-0.9351806640625,-0.101837158203125,-0.1128387451171875
1751015758723359000,2.15435888671875,-0.9459686279296875,-0.11431884765625,-0.13397216796875
1751015758733301800,2.1643017578125,-0.995086669921875,-0.141448974609375,-0.0924224853515625
1751015758743244800,2.174244873046875,-1.048309326171875,-0.166961669921875,0.003326416015625
1751015758753186800,2.184186767578125,-1.08355712890625,-0.1889495849609375,0.1154327392578125
1751015758763129900,2.1941298828125,-1.0853271484375,-0.208709716796875,0.1727752685546875
1751015758773073000,2.204072998046875,-1.08172607421875,-0.207275390625,0.170623779296875
1751015758783016000,2.214015869140625,-1.08221435546875,-0.18115234375,0.1350555419921875
1751015758792959000,2.223958984375,-1.08349609375,-0.1424407958984375,0.0866546630859375
1751015758802902000,2.233902099609375,-1.0872344970703125,-0.0966033935546875,0.0318145751953125
1751015758812845000,2.243844970703125,-1.094879150390625,-0.054229736328125,0.0042266845703125
1751015758822788000,2.2537880859375,-1.1012725830078125,-0.039306640625,0.02679443359375
1751015758832731100,2.263731201171875,-1.10980224609375,-0.060882568359375,0.0768585205078125
1751015758842674000,2.273673828125,-1.111419677734375,-0.102294921875,0.1277923583984375
1751015758852616700,2.28361669921875,-1.1312103271484375,-0.135650634765625,0.1602630615234375
1751015758862558700,2.293558837890625,-1.1532745361328125,-0.1544647216796875,0.1689910888671875
1751015758872501800,2.303501708984375,-1.1594085693359375,-0.171112060546875,0.1593017578125
1751015758882444800,2.31344482421875,-1.1637115478515625,-0.178955078125,0.1473846435546875
1751015758892387800,2.323387939453125,-1.1834564208984375,-0.169921875,0.1486663818359375
1751015758902331000,2.333330810546875,-1.2054595947265625,-0.1421661376953125,0.1567840576171875
1751015758912274000,2.34327392578125,-1.2354583740234375,-0.1044158935546875,0.150299072265625
1751015758922217000,2.353217041015625,-1.260986328125,-0.0628509521484375,0.1431732177734375
1751015758932160000,2.363159912109375,-1.2686614990234375,-0.0304412841796875,0.129150390625
1751015758942102800,2.373102783203125,-1.260162353515625,-0.0084228515625,0.095001220703125
1751015758952045800,2.3830458984375,-1.2402496337890625,0.0059051513671875,0.0552520751953125
1751015758961988900,2.39298876953125,-1.213623046875,0.0054931640625,0.0350799560546875
1751015758971931000,2.402930908203125,-1.1865386962890625,-0.0118408203125,0.0286102294921875
1751015758981874000,2.4128740234375,-1.1640167236328125,-0.036773681640625,0.0316009521484375
1751015758991817000,2.42281689453125,-1.1476593017578125,-0.0586395263671875,0.0424652099609375
1751015759001760000,2.432760009765625,-1.1252288818359375,-0.073822021484375,0.0467987060546875
1751015759011703000,2.442703125,-1.102783203125,-0.0882568359375,0.0378265380859375
1751015759021645800,2.452645751953125,-1.078643798828125,-0.1006317138671875,0.0377655029296875
1751015759031588900,2.4625888671875,-1.04901123046875,-0.1088714599609375,0.0490570068359375
1751015759041532000,2.472531982421875,-1.018829345703125,-0.10980224609375,0.0625457763671875
1751015759051474700,2.482474609375,-0.9888153076171875,-0.099578857421875,0.0742950439453125
1751015759061417700,2.492417724609375,-0.9559173583984375,-0.084747314453125,0.07940673828125
1751015759071360800,2.50236083984375,-0.9197998046875,-0.0746612548828125,0.0797119140625
1751015759081302800,2.512302734375,-0.8800048828125,-0.0736846923828125,0.0787506103515625
1751015759091245800,2.522245849609375,-0.848480224609375,-0.0796661376953125,0.0762481689453125
1751015759101188900,2.53218896484375,-0.8192138671875,-0.0903778076171875,0.0724334716796875
1751015759111132000,2.5421318359375,-0.7952728271484375,-0.106842041015625,0.0667724609375
1751015759121075000,2.552074951171875,-0.7832183837890625,-0.11688232421875,0.0609893798828125
1751015759131018000,2.56201806640625,-0.7703704833984375,-0.1284942626953125,0.0541839599609375
1751015759140961000,2.5719609375,-0.7595977783203125,-0.14764404296875,0.0454559326171875
1751015759150904000,2.581904052734375,-0.7537078857421875,-0.15484619140625,0.037078857421875
1751015759160846800,2.591846923828125,-0.7540435791015625,-0.153167724609375,0.027801513671875
1751015759170790000,2.601789794921875,-0.7468414306640625,-0.1548309326171875,0.015655517578125
1751015759180733000,2.61173291015625,-0.739837646484375,-0.1600341796875,0.010589599609375
1751015759190676000,2.621676025390625,-0.73443603515625,-0.1656036376953125,0.0069122314453125
1751015759200617700,2.63161767578125,-0.7337493896484375,-0.1721343994140625,0.0032196044921875
1751015759210560800,2.641560791015625,-0.7409820556640625,-0.1762542724609375,-0.0013427734375
1751015759220503800,2.65150390625,-0.7457427978515625,-0.1786041259765625,-0.0069732666015625
1751015759230446800,2.66144677734375,-0.7491302490234375,-0.184234619140625,-0.0131988525390625
1751015759240390000,2.671389892578125,-0.758392333984375,-0.188385009765625,-0.02056884765625
1751015759250333000,2.6813330078125,-0.767913818359375,-0.1881561279296875,-0.027801513671875
1751015759260276000,2.69127587890625,-0.7803955078125,-0.1872711181640625,-0.0335693359375
1751015759270218800,2.70121875,-0.7969818115234375,-0.185028076171875,-0.0407562255859375
1751015759280161800,2.711161865234375,-0.809539794921875,-0.187835693359375,-0.0536041259765625
1751015759290104800,2.721104736328125,-0.8130950927734375,-0.1884918212890625,-0.0550079345703125
1751015759300048000,2.7310478515625,-0.81390380859375,-0.1911773681640625,-0.0426177978515625
1751015759309991000,2.740990966796875,-0.8211212158203125,-0.19891357421875,-0.0131683349609375
1751015759319933000,2.750932861328125,-0.8320159912109375,-0.211090087890625,0.0214080810546875
1751015759329876000,2.7608759765625,-0.8495330810546875,-0.222015380859375,0.049652099609375
1751015759339819000,2.770819091796875,-0.8631439208984375,-0.2237701416015625,0.0635986328125
1751015759349762000,2.780761962890625,-0.875732421875,-0.2185516357421875,0.068756103515625
1751015759359705000,2.790705078125,-0.8978271484375,-0.2119903564453125,0.07684326171875
1751015759369647900,2.80064794921875,-0.9334564208984375,-0.21490478515625,0.0943603515625
1751015759379591000,2.8105908203125,-0.9742279052734375,-0.2252197265625,0.105743408203125
1751015759389534000,2.820533935546875,-1.0276336669921875,-0.2308197021484375,0.10601806640625
1751015759399477000,2.83047705078125,-1.0930328369140625,-0.2164306640625,0.095428466796875
1751015759409420000,2.840419921875,-1.144866943359375,-0.1856689453125,0.0650787353515625
1751015759419362800,2.85036279296875,-1.179290771484375,-0.156646728515625,0.0154266357421875
1751015759429305900,2.860305908203125,-1.21441650390625,-0.1296234130859375,-0.028533935546875
1751015759439248000,2.870247802734375,-1.24468994140625,-0.1133575439453125,-0.0549163818359375
1751015759449191000,2.88019091796875,-1.2541961669921875,-0.1216888427734375,-0.064971923828125
1751015759459134000,2.890134033203125,-1.2548065185546875,-0.1484222412109375,-0.0548858642578125
1751015759469077000,2.900076904296875,-1.250885009765625,-0.17694091796875,-0.0316925048828125
1751015759479019800,2.910019775390625,-1.2423248291015625,-0.18133544921875,-0.0098876953125
1751015759488962800,2.919962890625,-1.224151611328125,-0.166351318359375,-0.015411376953125
1751015759498905900,2.92990576171875,-1.2643280029296875,-0.14813232421875,-0.0322418212890625
1751015759508849000,2.939848876953125,-1.3151092529296875,-0.1309967041015625,-0.066619873046875
1751015759518792000,2.9497919921875,-1.34649658203125,-0.10687255859375,-0.110443115234375
1751015759528735000,2.95973486328125,-1.3750152587890625,-0.0867462158203125,-0.16143798828125
1751015759538678000,2.969677978515625,-1.4236907958984375,-0.066314697265625,-0.213714599609375
1751015759548621000,2.97962109375,-1.451934814453125,-0.02545166015625,-0.2625885009765625
1751015759558563800,2.989563720703125,-1.4034881591796875,0.01837158203125,-0.29180908203125
1751015759568506000,2.999506103515625,-1.35784912109375,0.05462646484375,-0.3160400390625
1751015759578449000,3.009448974609375,-1.34149169921875,0.0695343017578125,-0.3265228271484375
1751015759588392000,3.019391845703125,-1.274139404296875,0.0585784912109375,-0.3272247314453125
1751015759598334700,3.029334716796875,-1.2113037109375,0.0531463623046875,-0.30902099609375
1751015759608277800,3.03927783203125,-1.17413330078125,0.0517730712890625,-0.2759246826171875
1751015759618220800,3.049220703125,-1.146392822265625,0.029083251953125,-0.24658203125
1751015759628163800,3.059163818359375,-1.1071929931640625,0.0009307861328125,-0.237823486328125
1751015759638107000,3.06910693359375,-1.0709686279296875,-0.019012451171875,-0.23126220703125
1751015759648049700,3.079049560546875,-1.0357666015625,-0.0417938232421875,-0.216888427734375
1751015759657992700,3.08899267578125,-1.0011444091796875,-0.0645751953125,-0.1937408447265625
1751015759667935500,3.098935546875,-0.9435577392578125,-0.0841064453125,-0.1746826171875
1751015759677878500,3.10887841796875,-0.87646484375,-0.0955352783203125,-0.1636810302734375
1751015759687821600,3.118821533203125,-0.8182220458984375,-0.101806640625,-0.1535186767578125
1751015759697763600,3.128763671875,-0.7703704833984375,-0.10760498046875,-0.141265869140625
1751015759707706600,3.13870654296875,-0.7266998291015625,-0.11566162109375,-0.126922607421875
1751015759717649700,3.148649658203125,-0.6911773681640625,-0.1251068115234375,-0.1135406494140625
1751015759727592700,3.1585927734375,-0.663543701171875,-0.133331298828125,-0.09844970703125
1751015759737535700,3.16853564453125,-0.639373779296875,-0.1446685791015625,-0.075836181640625
1751015759747478800,3.178478759765625,-0.6267242431640625,-0.1555633544921875,-0.0576324462890625
1751015759757421800,3.188421875,-0.629425048828125,-0.15423583984375,-0.0419769287109375
1751015759767364900,3.19836474609375,-0.637725830078125,-0.152862548828125,-0.0250701904296875
1751015759777307600,3.2083076171875,-0.648406982421875,-0.1626739501953125,-0.01519775390625
1751015759787250700,3.218250732421875,-0.6597137451171875,-0.1685638427734375,-0.0086212158203125
1751015759797193700,3.22819384765625,-0.6795654296875,-0.1646881103515625,-0.0001220703125
1751015759807136500,3.238136474609375,-0.705413818359375,-0.160186767578125,0.0094146728515625
1751015759817079600,3.24807958984375,-0.7249298095703125,-0.1594696044921875,0.0107421875
1751015759827021600,3.258021484375,-0.7397308349609375,-0.1584014892578125,0.0043182373046875
1751015759836964600,3.267964599609375,-0.763824462890625,-0.15509033203125,-0.0019378662109375
1751015759846907600,3.27790771484375,-0.792510986328125,-0.147674560546875,-0.0037078857421875
1751015759856850700,3.2878505859375,-0.82965087890625,-0.139617919921875,-0.0027313232421875
1751015759866793700,3.297793701171875,-0.8704833984375,-0.1347198486328125,-0.003875732421875
1751015759876736800,3.30773681640625,-0.9082183837890625,-0.1339569091796875,-0.00390625
1751015759886679600,3.317679443359375,-0.927490234375,-0.129547119140625,-0.0103759765625
1751015759896622600,3.32762255859375,-0.9416351318359375,-0.11700439453125,-0.022308349609375
1751015759906565600,3.337565673828125,-0.9847412109375,-0.10443115234375,-0.0302581787109375
1751015759916508700,3.3475087890625,-1.023712158203125,-0.097259521484375,-0.0231781005859375
1751015759926451700,3.35745166015625,-1.0555877685546875,-0.09893798828125,-0.0048675537109375
1751015759936394800,3.367394775390625,-1.0893707275390625,-0.1045989990234375,0.0087738037109375
1751015759946337800,3.377337890625,-1.120849609375,-0.1074676513671875,0.0240478515625
1751015759956280800,3.38728076171875,-1.130462646484375,-0.100830078125,0.0179443359375
1751015759966222800,3.397222900390625,-1.12664794921875,-0.09930419921875,-0.0030364990234375
1751015759976165600,3.40716552734375,-1.142852783203125,-0.1102447509765625,-0.020538330078125
1751015759986108400,3.4171083984375,-1.169097900390625,-0.1280059814453125,-0.01617431640625
1751015759996051500,3.427051513671875,-1.1865692138671875,-0.1401519775390625,0.016632080078125
1751015760005994500,3.436994384765625,-1.197235107421875,-0.1473236083984375,0.0472259521484375
1751015760015937500,3.4469375,-1.2133941650390625,-0.166595458984375,0.05645751953125
1751015760025880600,3.456880615234375,-1.2371368408203125,-0.1964111328125,0.06292724609375
1751015760035823600,3.46682373046875,-1.273590087890625,-0.218231201171875,0.0688018798828125
1751015760045766700,3.4767666015625,-1.3185272216796875,-0.21124267578125,0.0550537109375
1751015760055709700,3.486709716796875,-1.3603668212890625,-0.1898193359375,0.0174102783203125
1751015760065652700,3.49665283203125,-1.389312744140625,-0.16064453125,-0.02239990234375
1751015760075595500,3.506595458984375,-1.4031219482421875,-0.117462158203125,-0.0670318603515625
1751015760085538600,3.51653857421875,-1.3975372314453125,-0.0846405029296875,-0.106689453125
1751015760095481600,3.526481689453125,-1.3712310791015625,-0.0843658447265625,-0.1273956298828125
1751015760105423600,3.536423583984375,-1.3270721435546875,-0.105682373046875,-0.1218414306640625
1751015760115366700,3.54636669921875,-1.263641357421875,-0.1247711181640625,-0.095489501953125
1751015760125309700,3.556309814453125,-1.18841552734375,-0.130584716796875,-0.06390380859375
1751015760135252700,3.566252685546875,-1.1733856201171875,-0.1284332275390625,-0.0075225830078125
1751015760145195800,3.57619580078125,-1.1373291015625,-0.1399688720703125,0.0472259521484375
1751015760155138800,3.586138916015625,-1.090301513671875,-0.1571502685546875,0.0944976806640625
1751015760165081900,3.596081787109375,-1.058868408203125,-0.16656494140625,0.127471923828125
1751015760175024600,3.606024658203125,-1.044891357421875,-0.1626434326171875,0.1509246826171875
1751015760184967700,3.6159677734375,-1.0362548828125,-0.1514129638671875,0.166412353515625
1751015760194910700,3.62591064453125,-1.0310821533203125,-0.132781982421875,0.165130615234375
1751015760204853500,3.635853515625,-1.0282745361328125,-0.105865478515625,0.148712158203125
1751015760214796500,3.645796630859375,-1.031707763671875,-0.0755767822265625,0.121856689453125
1751015760224739600,3.655739501953125,-1.0240936279296875,-0.050567626953125,0.09521484375
1751015760234682600,3.6656826171875,-1.00677490234375,-0.035125732421875,0.0680999755859375
1751015760244625700,3.675625732421875,-0.9879913330078125,-0.0230255126953125,0.03948974609375
1751015760254567700,3.685567626953125,-0.9687347412109375,-0.0175018310546875,0.0170440673828125
1751015760264510700,3.6955107421875,-0.9091033935546875,-0.0082550048828125,0.0089111328125
1751015760274453800,3.705453857421875,-0.8644866943359375,-0.005096435546875,0.008941650390625
1751015760284396500,3.715396484375,-0.837310791015625,-0.0115966796875,0.01513671875
1751015760294339600,3.725339599609375,-0.8125762939453125,-0.02691650390625,0.0253448486328125
1751015760304282600,3.73528271484375,-0.78192138671875,-0.0430755615234375,0.036865234375
1751015760314225700,3.7452255859375,-0.7597503662109375,-0.0525665283203125,0.0440521240234375
1751015760324168700,3.755168701171875,-0.7465667724609375,-0.05908203125,0.044281005859375
1751015760334111700,3.76511181640625,-0.740264892578125,-0.0670318603515625,0.0410919189453125
1751015760344054800,3.7750546875,-0.7339630126953125,-0.0730438232421875,0.035858154296875
1751015760353997800,3.784997802734375,-0.735076904296875,-0.0767669677734375,0.027862548828125
1751015760363940600,3.794940673828125,-0.7397003173828125,-0.076751708984375,0.014923095703125
1751015760373883600,3.804883544921875,-0.73419189453125,-0.0787353515625,0.0008087158203125
1751015760383826700,3.81482666015625,-0.7293853759765625,-0.0792083740234375,-0.014923095703125
1751015760393769700,3.824769775390625,-0.7281951904296875,-0.08026123046875,-0.022735595703125
1751015760403712800,3.834712646484375,-0.73211669921875,-0.0841217041015625,-0.0273284912109375
1751015760413654500,3.844654541015625,-0.7433013916015625,-0.0888671875,-0.0317840576171875
1751015760423597600,3.85459765625,-0.753173828125,-0.093505859375,-0.0343475341796875
1751015760433540600,3.86454052734375,-0.76251220703125,-0.099273681640625,-0.035858154296875
1751015760443483600,3.874483642578125,-0.7771759033203125,-0.1068878173828125,-0.03558349609375
1751015760453426700,3.8844267578125,-0.7906951904296875,-0.118438720703125,-0.0316162109375
1751015760463369700,3.89436962890625,-0.7999114990234375,-0.133056640625,-0.02874755859375
1751015760473312500,3.9043125,-0.8169403076171875,-0.148284912109375,-0.023956298828125
1751015760483255600,3.914255615234375,-0.8404693603515625,-0.163726806640625,-0.0101776123046875
1751015760493198600,3.924198486328125,-0.863555908203125,-0.1806793212890625,0.00555419921875
1751015760503141600,3.9341416015625,-0.898468017578125,-0.19354248046875,0.024261474609375
1751015760513084700,3.944084716796875,-0.93524169921875,-0.2037200927734375,0.0373077392578125
1751015760523027700,3.95402783203125,-0.9804229736328125,-0.2086639404296875,0.053009033203125
1751015760532970800,3.963970703125,-1.030914306640625,-0.20703125,0.0611114501953125
1751015760542913800,3.973913818359375,-1.0878448486328125,-0.210662841796875,0.044769287109375
1751015760552856600,3.983856689453125,-1.1740570068359375,-0.21051025390625,0.02911376953125
1751015760562799600,3.993799560546875,-1.236724853515625,-0.19677734375,0.0040283203125
1751015760572741600,4.00374169921875,-1.257659912109375,-0.2076568603515625,-0.061004638671875
1751015760582684700,4.0136845703125,-1.2205963134765625,-0.2486114501953125,-0.160125732421875
1751015760592627700,4.023627685546875,-1.2625732421875,-0.2522735595703125,-0.248291015625
1751015760602570500,4.033570556640625,-1.3327178955078125,-0.23260498046875,-0.28826904296875
1751015760612513500,4.043513427734375,-1.348907470703125,-0.19903564453125,-0.2873687744140625
1751015760622456600,4.05345654296875,-1.314239501953125,-0.1461181640625,-0.281402587890625
1751015760632399600,4.063399658203125,-1.2928619384765625,-0.0840911865234375,-0.27557373046875
1751015760642342700,4.0733427734375,-1.3094635009765625,-0.0141448974609375,-0.269195556640625
1751015760652286700,4.08328662109375,-1.334259033203125,0.0572967529296875,-0.2753143310546875
1751015760662229800,4.093229736328125,-1.3394775390625,0.1114044189453125,-0.29888916015625
1751015760672172800,4.1031728515625,-1.337554931640625,0.14544677734375,-0.3257293701171875
1751015760682115800,4.11311572265625,-1.329376220703125,0.156524658203125,-0.350860595703125
1751015760692059000,4.123058837890625,-1.3085479736328125,0.1403350830078125,-0.35675048828125
1751015760702002000,4.133001953125,-1.2987823486328125,0.1081085205078125,-0.3498992919921875
1751015760711944700,4.14294482421875,-1.2631683349609375,0.0660400390625,-0.3360137939453125
1751015760721887700,4.1528876953125,-1.196502685546875,0.0111083984375,-0.3123931884765625
1751015760731830800,4.162830810546875,-1.1370391845703125,-0.0410919189453125,-0.284332275390625
1751015760741772800,4.172772705078125,-1.09539794921875,-0.079010009765625,-0.24365234375
1751015760751715800,4.1827158203125,-1.0615234375,-0.1046600341796875,-0.2057647705078125
1751015760761659000,4.192658935546875,-1.02130126953125,-0.12530517578125,-0.171630859375
1751015760771602000,4.202601806640625,-0.9775848388671875,-0.1550750732421875,-0.1370849609375
1751015760781545000,4.212544921875,-0.93572998046875,-0.1803131103515625,-0.0996246337890625
1751015760791488000,4.222488037109375,-0.885772705078125,-0.1933441162109375,-0.0502777099609375
1751015760801430800,4.2324306640625,-0.832611083984375,-0.2026824951171875,-0.0094757080078125
1751015760811373800,4.242373779296875,-0.79193115234375,-0.2076263427734375,0.007080078125
1751015760821316600,4.252316650390625,-0.7566375732421875,-0.2086181640625,0.0084991455078125
1751015760831259600,4.262259765625,-0.7267303466796875,-0.1964569091796875,0.0003814697265625
1751015760841202700,4.27220263671875,-0.68572998046875,-0.1844024658203125,-0.0099029541015625
1751015760851145700,4.282145751953125,-0.6607513427734375,-0.1828155517578125,-0.0115509033203125
1751015760861088800,4.2920888671875,-0.648468017578125,-0.18499755859375,-0.00848388671875
1751015760871031800,4.30203173828125,-0.620361328125,-0.175445556640625,-0.0172119140625
1751015760880974800,4.311974853515625,-0.615203857421875,-0.154632568359375,-0.0259857177734375
1751015760890918000,4.32191796875,-0.62982177734375,-0.1346893310546875,-0.0308074951171875
1751015760900860700,4.331860595703125,-0.6343841552734375,-0.11358642578125,-0.0343170166015625
1751015760910803700,4.3418037109375,-0.6455535888671875,-0.100677490234375,-0.0268096923828125
1751015760920745700,4.351745849609375,-0.673431396484375,-0.09735107421875,-0.022247314453125
1751015760930688800,4.361688720703125,-0.7028350830078125,-0.100372314453125,-0.02703857421875
1751015760940631800,4.3716318359375,-0.7321014404296875,-0.10028076171875,-0.0339508056640625
1751015760950574800,4.381574951171875,-0.7610626220703125,-0.100067138671875,-0.036102294921875
1751015760960518000,4.391517822265625,-0.795501708984375,-0.105499267578125,-0.03582763671875
1751015760970461000,4.4014609375,-0.8238525390625,-0.1193084716796875,-0.0438385009765625
1751015760980404000,4.411404052734375,-0.8494720458984375,-0.13165283203125,-0.0571746826171875
1751015760990347000,4.421346923828125,-0.8814239501953125,-0.141326904296875,-0.0675506591796875
1751015761000289800,4.431289794921875,-0.9216461181640625,-0.1490478515625,-0.0686798095703125
1751015761010232800,4.44123291015625,-0.9520721435546875,-0.1616668701171875,-0.0615997314453125
1751015761020176000,4.45117578125,-0.9670867919921875,-0.1776123046875,-0.05023193359375
1751015761030118700,4.46111865234375,-0.984039306640625,-0.1991424560546875,-0.038330078125
1751015761040061700,4.471061767578125,-1.008880615234375,-0.2180633544921875,-0.0291290283203125
1751015761050004700,4.481004638671875,-1.0364837646484375,-0.224090576171875,-0.0229034423828125
1751015761059947800,4.49094775390625,-1.0669097900390625,-0.2270355224609375,-0.0352020263671875
1751015761069890800,4.500890869140625,-1.0850067138671875,-0.2368621826171875,-0.05706787109375
1751015761079833900,4.510833740234375,-1.1120758056640625,-0.2469635009765625,-0.0714874267578125
1751015761089776600,4.520776611328125,-1.1719818115234375,-0.2488250732421875,-0.06182861328125
1751015761099719000,4.530718994140625,-1.2191009521484375,-0.2354888916015625,-0.0477752685546875
1751015761109661700,4.54066162109375,-1.2323760986328125,-0.20782470703125,-0.04864501953125
1751015761119604700,4.550604736328125,-1.2696685791015625,-0.1756439208984375,-0.052978515625
1751015761129547800,4.5605478515625,-1.3094024658203125,-0.140899658203125,-0.0423583984375
1751015761139490800,4.57049072265625,-1.320281982421875,-0.11199951171875,-0.0453338623046875
1751015761149433900,4.580433837890625,-1.3292388916015625,-0.0980377197265625,-0.0745086669921875
1751015761159377000,4.590376953125,-1.3492889404296875,-0.0904998779296875,-0.0964813232421875
1751015761169320000,4.60031982421875,-1.3393096923828125,-0.096435546875,-0.0927276611328125
1751015761179263000,4.610262939453125,-1.3050689697265625,-0.10174560546875,-0.0749969482421875
1751015761189205800,4.620205810546875,-1.292327880859375,-0.0937957763671875,-0.0558929443359375
1751015761199148800,4.630148681640625,-1.3206787109375,-0.0874176025390625,-0.0416107177734375
1751015761209091800,4.640091796875,-1.3487396240234375,-0.0820770263671875,-0.027374267578125
1751015761219035000,4.650034912109375,-1.3564910888671875,-0.0671234130859375,-0.022735595703125
1751015761228978000,4.65997802734375,-1.3405609130859375,-0.0512237548828125,-0.027099609375
1751015761238921000,4.6699208984375,-1.2995147705078125,-0.0458526611328125,-0.0259857177734375
1751015761248864000,4.679864013671875,-1.2456817626953125,-0.0453033447265625,-0.01470947265625
1751015761258806800,4.689806884765625,-1.1869659423828125,-0.0359954833984375,-0.00146484375
1751015761268749800,4.699749755859375,-1.1420135498046875,-0.019256591796875,0.0098419189453125
1751015761278692600,4.709692626953125,-1.0960693359375,-0.008453369140625,0.01934814453125
1751015761288635000,4.719634765625,-1.048309326171875,-0.0159454345703125,0.02618408203125
1751015761298577700,4.72957763671875,-1.015655517578125,-0.03485107421875,0.034576416015625
1751015761308520700,4.739520751953125,-0.9979095458984375,-0.055511474609375,0.03875732421875
1751015761318463700,4.749463623046875,-0.9888153076171875,-0.0816497802734375,0.0363311767578125
1751015761328406800,4.75940673828125,-0.98291015625,-0.1049957275390625,0.031341552734375
1751015761338349800,4.769349853515625,-0.976959228515625,-0.124786376953125,0.0337371826171875
1751015761348292900,4.77929296875,-0.9726409912109375,-0.13726806640625,0.033233642578125
1751015761358236000,4.78923583984375,-0.972259521484375,-0.138671875,0.0326690673828125
1751015761368179000,4.799178955078125,-0.97039794921875,-0.133056640625,0.0337982177734375
1751015761378121700,4.809121826171875,-0.9631195068359375,-0.12298583984375,0.0313568115234375
1751015761388064800,4.819064697265625,-0.9392852783203125,-0.1120452880859375,0.022674560546875
1751015761398007800,4.8290078125,-0.9121551513671875,-0.1037139892578125,0.0088958740234375
1751015761407950800,4.838950927734375,-0.892852783203125,-0.0946197509765625,-0.001953125
1751015761417894000,4.848893798828125,-0.8753662109375,-0.0831146240234375,-0.0076141357421875
1751015761427837000,4.8588369140625,-0.8546905517578125,-0.0767669677734375,-0.007049560546875
1751015761437780000,4.868780029296875,-0.832244873046875,-0.0756683349609375,-0.00372314453125
1751015761447723000,4.878722900390625,-0.8081512451171875,-0.074066162109375,-0.00201416015625
1751015761457666000,4.888666015625,-0.7888641357421875,-0.07342529296875,-0.0032501220703125
1751015761467608800,4.89860888671875,-0.7700653076171875,-0.0756378173828125,-0.0061187744140625
1751015761477550800,4.90855078125,-0.7556610107421875,-0.079254150390625,-0.0088653564453125
1751015761487493600,4.91849365234375,-0.7433624267578125,-0.0822601318359375,-0.012908935546875
1751015761497436700,4.928436767578125,-0.7354278564453125,-0.0878143310546875,-0.0161590576171875
1751015761507379700,4.938379638671875,-0.7296600341796875,-0.093719482421875,-0.020233154296875
1751015761517322800,4.94832275390625,-0.727508544921875,-0.0968475341796875,-0.02545166015625
1751015761527265800,4.958265869140625,-0.7237091064453125,-0.101715087890625,-0.0334625244140625
1751015761537208800,4.968208740234375,-0.74560546875,-0.100555419921875,-0.0330810546875
1751015761547152000,4.97815185546875,-0.771697998046875,-0.10205078125,-0.029693603515625
1751015761557095000,4.988094970703125,-0.792938232421875,-0.1137542724609375,-0.0304718017578125
1751015761567037700,4.99803759765625,-0.7984619140625,-0.126922607421875,-0.03533935546875
1751015761576980700,5.007980712890625,-0.81439208984375,-0.1334686279296875,-0.029510498046875
1751015761586923800,5.017923828125,-0.830657958984375,-0.13861083984375,-0.0272979736328125
1751015761596866800,5.02786669921875,-0.834808349609375,-0.153472900390625,-0.039947509765625
1751015761606809900,5.037809814453125,-0.8493499755859375,-0.1692352294921875,-0.0430145263671875
1751015761616753000,5.0477529296875,-0.865509033203125,-0.1795806884765625,-0.02655029296875
1751015761626696000,5.057696044921875,-0.893280029296875,-0.2003173828125,-0.00885009765625
1751015761636639000,5.067638916015625,-0.9312286376953125,-0.2195281982421875,0.0135498046875
1751015761646582000,5.07758203125,-0.992767333984375,-0.217254638671875,0.04888916015625
1751015761656528000,5.08752783203125,-1.03912353515625,-0.1979217529296875,0.0879974365234375
1751015761666471000,5.097470947265625,-1.092315673828125,-0.168487548828125,0.1051788330078125
1751015761676414000,5.1074140625,-1.1697998046875,-0.1358489990234375,0.0811004638671875
1751015761686357000,5.11735693359375,-1.207611083984375,-0.09527587890625,0.01788330078125
1751015761696299000,5.127299072265625,-1.222930908203125,-0.07635498046875,-0.0330047607421875
1751015761706242000,5.137241943359375,-1.245330810546875,-0.0731201171875,-0.0654296875
1751015761716185000,5.14718505859375,-1.2757110595703125,-0.0944671630859375,-0.099517822265625
1751015761726128000,5.157128173828125,-1.3060760498046875,-0.118896484375,-0.118316650390625
1751015761736071200,5.1670712890625,-1.3354034423828125,-0.1046295166015625,-0.1337890625
1751015761746014200,5.17701416015625,-1.38330078125,-0.0584716796875,-0.157318115234375
1751015761755957200,5.186957275390625,-1.4409332275390625,-0.0163726806640625,-0.1784515380859375
1751015761765900000,5.196900146484375,-1.4678955078125,0.0149078369140625,-0.205078125
1751015761775843000,5.206843017578125,-1.455963134765625,0.0358734130859375,-0.220977783203125
1751015761785786000,5.2167861328125,-1.4212646484375,0.0486602783203125,-0.2343597412109375
1751015761795729200,5.226729248046875,-1.3805084228515625,0.0671539306640625,-0.25048828125
1751015761805672200,5.236672119140625,-1.3284149169921875,0.084197998046875,-0.2542266845703125
1751015761815615200,5.246615234375,-1.257232666015625,0.089630126953125,-0.2506256103515625
1751015761825558300,5.256558349609375,-1.186004638671875,0.0790252685546875,-0.2437744140625
1751015761835501000,5.2665009765625,-1.117034912109375,0.0503387451171875,-0.2203826904296875
1751015761845443800,5.27644384765625,-1.067413330078125,0.0065765380859375,-0.1851806640625
1751015761855387000,5.286386962890625,-1.030029296875,-0.0356903076171875,-0.1494598388671875
1751015761865330000,5.296329833984375,-1.000274658203125,-0.067474365234375,-0.1310882568359375
1751015761875273000,5.30627294921875,-0.9786224365234375,-0.0921630859375,-0.119140625
1751015761885216000,5.316216064453125,-0.951873779296875,-0.1125946044921875,-0.0927581787109375
1751015761895159000,5.326158935546875,-0.9227142333984375,-0.1259613037109375,-0.0767974853515625
1751015761905101000,5.33610107421875,-0.884490966796875,-0.1277923583984375,-0.063934326171875
1751015761915044000,5.346044189453125,-0.8424224853515625,-0.1216888427734375,-0.0663909912109375
1751015761924987100,5.355987060546875,-0.7956695556640625,-0.1002044677734375,-0.07666015625
1751015761934930200,5.36593017578125,-0.7430572509765625,-0.0767974853515625,-0.0831451416015625
1751015761944873200,5.375873291015625,-0.685821533203125,-0.058502197265625,-0.0826416015625
1751015761954816000,5.38581591796875,-0.646209716796875,-0.035736083984375,-0.0647430419921875
1751015761964759000,5.395759033203125,-0.605072021484375,-0.03009033203125,-0.0308990478515625
1751015761974702000,5.4057021484375,-0.5789031982421875,-0.033905029296875,0.0053863525390625
1751015761984645000,5.41564501953125,-0.5882568359375,-0.0122528076171875,0.037506103515625
1751015761994588200,5.425588134765625,-0.616912841796875,0.003143310546875,0.0697479248046875
1751015762004531200,5.43553125,-0.62664794921875,-0.012908935546875,0.070465087890625
1751015762014474200,5.44547412109375,-0.62109375,-0.0408172607421875,0.0229034423828125
1751015762024417300,5.455417236328125,-0.6328125,-0.054168701171875,-0.0408172607421875
1751015762034360000,5.465360107421875,-0.670654296875,-0.0492401123046875,-0.0881805419921875
1751015762044303000,5.47530322265625,-0.7019195556640625,-0.052093505859375,-0.0971527099609375
1751015762054246000,5.485245849609375,-0.7243499755859375,-0.0764617919921875,-0.0872039794921875
1751015762064189000,5.49518896484375,-0.7702484130859375,-0.0950775146484375,-0.0666961669921875
1751015762074132000,5.505132080078125,-0.818450927734375,-0.1061248779296875,-0.0454559326171875
1751015762084075000,5.515074951171875,-0.8723297119140625,-0.1082916259765625,-0.0444183349609375
1751015762094018000,5.52501806640625,-0.93499755859375,-0.1100311279296875,-0.0697174072265625
1751015762103961000,5.534961181640625,-0.96551513671875,-0.0952606201171875,-0.080596923828125
1751015762113903900,5.54490380859375,-0.9727783203125,-0.073974609375,-0.08905029296875
1751015762123847000,5.554846923828125,-0.9962921142578125,-0.0726470947265625,-0.09722900390625
1751015762133789200,5.5647890625,-1.019317626953125,-0.0798492431640625,-0.1030426025390625
1751015762143732000,5.57473193359375,-1.0128173828125,-0.072174072265625,-0.1001739501953125
1751015762153675000,5.584675048828125,-0.99066162109375,-0.0542144775390625,-0.0994110107421875
1751015762163618000,5.5946181640625,-0.9830322265625,-0.0417327880859375,-0.1025390625
1751015762173561000,5.60456103515625,-1.0060272216796875,-0.0304412841796875,-0.093048095703125
1751015762183504100,5.614504150390625,-1.0553131103515625,-0.0237274169921875,-0.0672607421875
1751015762193447200,5.624447265625,-1.1114959716796875,-0.03460693359375,-0.046661376953125
1751015762203390200,5.63439013671875,-1.1656494140625,-0.05615234375,-0.032806396484375
1751015762213333200,5.644333251953125,-1.2132110595703125,-0.0662078857421875,-0.0181732177734375
1751015762223276000,5.654276123046875,-1.26251220703125,-0.061767578125,-0.022125244140625
1751015762233219000,5.664218994140625,-1.3099365234375,-0.0402984619140625,-0.040771484375
1751015762243162000,5.674162109375,-1.329620361328125,-0.011077880859375,-0.0640869140625
1751015762253105200,5.684105224609375,-1.3401336669921875,0.0023651123046875,-0.0867919921875
1751015762263048200,5.694048095703125,-1.349273681640625,-0.0068817138671875,-0.092437744140625
1751015762272991200,5.7039912109375,-1.35528564453125,-0.024322509765625,-0.0775299072265625
1751015762282934000,5.71393408203125,-1.359466552734375,-0.026336669921875,-0.0605316162109375
1751015762292877000,5.723876953125,-1.3465576171875,-0.0126495361328125,-0.045166015625
1751015762302819800,5.73381982421875,-1.32958984375,-0.0039215087890625,-0.03045654296875
1751015762312763000,5.743762939453125,-1.3140716552734375,-0.0034942626953125,-0.0180511474609375
1751015762322706000,5.753705810546875,-1.288665771484375,0.006011962890625,-0.006744384765625
1751015762332649000,5.76364892578125,-1.2518157958984375,0.0145263671875,0.0067291259765625
1751015762342592000,5.773592041015625,-1.2200775146484375,0.007354736328125,0.023223876953125
1751015762352535000,5.78353515625,-1.1968231201171875,-0.0019683837890625,0.043975830078125
1751015762362478000,5.79347802734375,-1.1778717041015625,-0.0137481689453125,0.0696868896484375
1751015762372421000,5.803421142578125,-1.1636505126953125,-0.031005859375,0.09698486328125
1751015762382363100,5.813363037109375,-1.1607513427734375,-0.03765869140625,0.1085052490234375
1751015762392306200,5.82330615234375,-1.1522369384765625,-0.03485107421875,0.107818603515625
1751015762402249200,5.833249267578125,-1.1487274169921875,-0.0325164794921875,0.1042327880859375
1751015762412192000,5.84319189453125,-1.150146484375,-0.0334930419921875,0.1020050048828125
1751015762422135000,5.853135009765625,-1.1559906005859375,-0.03521728515625,0.102081298828125
1751015762432078000,5.863078125,-1.1757659912109375,-0.0330810546875,0.09613037109375
1751015762442021000,5.873021240234375,-1.1988525390625,-0.018035888671875,0.07861328125
1751015762451964200,5.882964111328125,-1.2108001708984375,0.004486083984375,0.0492706298828125
1751015762461907200,5.8929072265625,-1.208404541015625,0.0260162353515625,0.0114288330078125
1751015762471850200,5.902850341796875,-1.194091796875,0.0441131591796875,-0.02410888671875
1751015762481793300,5.912793212890625,-1.1595916748046875,0.059783935546875,-0.0541839599609375
1751015762491736000,5.922736083984375,-1.109222412109375,0.0729522705078125,-0.07391357421875
1751015762501679000,5.93267919921875,-1.0514068603515625,0.083740234375,-0.07891845703125
1751015762511622000,5.942621826171875,-0.99163818359375,0.0858612060546875,-0.0723114013671875
1751015762521565000,5.95256494140625,-0.924957275390625,0.06988525390625,-0.0581512451171875
1751015762531508000,5.962508056640625,-0.8628387451171875,0.044281005859375,-0.0427398681640625
1751015762541451000,5.972450927734375,-0.798828125,0.02301025390625,-0.029754638671875
1751015762551394000,5.98239404296875,-0.7369384765625,0.0080108642578125,-0.025634765625
1751015762561337000,5.992337158203125,-0.695587158203125,-0.0008392333984375,-0.0188140869140625
1751015762571280100,6.002280029296875,-0.6724700927734375,-0.0169830322265625,-0.01177978515625
1751015762581223000,6.012222900390625,-0.6472320556640625,-0.0386199951171875,-0.011077880859375
1751015762591166000,6.022166015625,-0.6259613037109375,-0.055389404296875,-0.017120361328125
1751015762601109000,6.03210888671875,-0.6219024658203125,-0.0650787353515625,-0.023345947265625
1751015762611052000,6.042052001953125,-0.6229400634765625,-0.078338623046875,-0.026092529296875
1751015762620995000,6.0519951171875,-0.62664794921875,-0.09552001953125,-0.0222930908203125
1751015762630938000,6.061938232421875,-0.6320037841796875,-0.11181640625,-0.0141448974609375
1751015762640880000,6.071880126953125,-0.6393585205078125,-0.12615966796875,-0.0149993896484375
1751015762650822700,6.08182275390625,-0.65802001953125,-0.134796142578125,-0.017181396484375
1751015762660765400,6.091765380859375,-0.684356689453125,-0.1397247314453125,-0.0133514404296875
1751015762670708500,6.10170849609375,-0.711456298828125,-0.1420440673828125,-0.005645751953125
1751015762680651500,6.111651611328125,-0.7335052490234375,-0.1523590087890625,-0.0040435791015625
1751015762690594600,6.121594482421875,-0.76031494140625,-0.1672210693359375,0.00225830078125
1751015762700537300,6.131537353515625,-0.797607421875,-0.1760406494140625,0.0160064697265625
1751015762710480400,6.14148046875,-0.842315673828125,-0.1779327392578125,0.031829833984375
1751015762720423400,6.15142333984375,-0.8903656005859375,-0.173126220703125,0.040252685546875
1751015762730366500,6.161366455078125,-0.9443817138671875,-0.1658935546875,0.0385284423828125
1751015762740309500,6.1713095703125,-1.0019683837890625,-0.161834716796875,0.0372161865234375
1751015762750252500,6.18125244140625,-1.0484619140625,-0.1621246337890625,0.031341552734375
1751015762760195600,6.191195556640625,-1.0908050537109375,-0.1668548583984375,0.01690673828125
1751015762770138600,6.201138671875,-1.138519287109375,-0.1644134521484375,-0.0051116943359375
1751015762780081400,6.211081298828125,-1.1923675537109375,-0.14788818359375,-0.0343017578125
1751015762790024400,6.2210244140625,-1.2388916015625,-0.1253204345703125,-0.0626373291015625
1751015762799967500,6.230967529296875,-1.276885986328125,-0.1026458740234375,-0.0880584716796875
1751015762809910500,6.24091064453125,-1.306915283203125,-0.088958740234375,-0.1098175048828125
1751015762819853600,6.250853515625,-1.3323974609375,-0.0875244140625,-0.131927490234375
1751015762829796600,6.260796630859375,-1.3543548583984375,-0.083282470703125,-0.147613525390625
1751015762839739600,6.27073974609375,-1.37542724609375,-0.096160888671875,-0.1678314208984375
1751015762849682700,6.2806826171875,-1.389617919921875,-0.103118896484375,-0.1836090087890625
1751015762859625500,6.29062548828125,-1.40008544921875,-0.087738037109375,-0.19873046875
1751015762869568500,6.300568603515625,-1.4071502685546875,-0.0570220947265625,-0.2128753662109375
1751015762879511600,6.310511474609375,-1.403717041015625,-0.021331787109375,-0.230072021484375
1751015762889454600,6.32045458984375,-1.3809967041015625,0.01177978515625,-0.2481842041015625
1751015762899397600,6.330397705078125,-1.341827392578125,0.0348052978515625,-0.2623748779296875
1751015762909340700,6.340340576171875,-1.297332763671875,0.047943115234375,-0.268218994140625
1751015762919283700,6.35028369140625,-1.253082275390625,0.0551910400390625,-0.26788330078125
1751015762929226800,6.360226806640625,-1.1947479248046875,0.0624237060546875,-0.2644195556640625
1751015762939169300,6.370169189453125,-1.1364898681640625,0.0661773681640625,-0.25445556640625
1751015762949111600,6.380111572265625,-1.095916748046875,0.062469482421875,-0.22723388671875
1751015762959054600,6.3900546875,-1.069122314453125,0.0461273193359375,-0.1811065673828125
1751015762968997400,6.399997314453125,-1.026885986328125,0.0178985595703125,-0.1439208984375
1751015762978940400,6.4099404296875,-0.9926300048828125,-0.01318359375,-0.1324920654296875
1751015762988883500,6.419883544921875,-0.9749298095703125,-0.034423828125,-0.1412506103515625
1751015762998826500,6.429826416015625,-0.977996826171875,-0.044097900390625,-0.156829833984375
1751015763008769500,6.43976953125,-0.9917144775390625,-0.059783935546875,-0.1656036376953125
1751015763018712600,6.449712646484375,-1.0069122314453125,-0.083465576171875,-0.168121337890625
1751015763028655600,6.459655517578125,-1.0093536376953125,-0.1028594970703125,-0.1591644287109375
1751015763038598700,6.4695986328125,-0.981689453125,-0.1085662841796875,-0.1473846435546875
1751015763048541400,6.47954150390625,-0.930419921875,-0.1017303466796875,-0.139617919921875
1751015763058484500,6.489484375,-0.880340576171875,-0.0905609130859375,-0.1363677978515625
1751015763068427500,6.499427490234375,-0.832183837890625,-0.0714874267578125,-0.1331634521484375
1751015763078370600,6.50937060546875,-0.8043060302734375,-0.0480499267578125,-0.1211090087890625
1751015763088313600,6.519313720703125,-0.78778076171875,-0.028167724609375,-0.1079254150390625
1751015763098256600,6.529256591796875,-0.756988525390625,-0.0213623046875,-0.1004791259765625
1751015763108199700,6.53919970703125,-0.722869873046875,-0.030487060546875,-0.0987091064453125
1751015763118142700,6.549142822265625,-0.693634033203125,-0.04669189453125,-0.092193603515625
1751015763128085500,6.55908544921875,-0.644073486328125,-0.064727783203125,-0.070343017578125
1751015763138028500,6.569028564453125,-0.6169891357421875,-0.0887908935546875,-0.043670654296875
1751015763147971600,6.5789716796875,-0.640899658203125,-0.1148834228515625,-0.0054168701171875
1751015763157914600,6.58891455078125,-0.64501953125,-0.136505126953125,0.0360107421875
1751015763167857400,6.598857421875,-0.6287841796875,-0.1478118896484375,0.0831756591796875
1751015763177800400,6.608800537109375,-0.615142822265625,-0.1568145751953125,0.1209564208984375
1751015763187743500,6.618743408203125,-0.6307373046875,-0.17742919921875,0.1395111083984375
1751015763197686500,6.6286865234375,-0.670166015625,-0.193634033203125,0.139404296875
1751015763207629600,6.638629638671875,-0.71142578125,-0.191925048828125,0.13018798828125
1751015763217572400,6.648572265625,-0.7552642822265625,-0.1813507080078125,0.1154632568359375
1751015763227515400,6.658515380859375,-0.8066864013671875,-0.1695404052734375,0.0911865234375
1751015763237458400,6.66845849609375,-0.852142333984375,-0.162994384765625,0.066375732421875
1751015763247401500,6.6784013671875,-0.8886260986328125,-0.155181884765625,0.0570831298828125
1751015763257344500,6.688344482421875,-0.9191436767578125,-0.146026611328125,0.051971435546875
1751015763267287600,6.69828759765625,-0.9459991455078125,-0.1462554931640625,0.041839599609375
1751015763277229600,6.7082294921875,-0.9739837646484375,-0.1531219482421875,0.0320281982421875
1751015763287172600,6.718172607421875,-1.011627197265625,-0.159149169921875,0.036224365234375
1751015763297115600,6.72811572265625,-1.0482635498046875,-0.1653289794921875,0.0519561767578125
1751015763307058700,6.73805859375,-1.0730133056640625,-0.177459716796875,0.073699951171875
1751015763317001500,6.74800146484375,-1.0950469970703125,-0.1882476806640625,0.0887298583984375
1751015763326944500,6.757944580078125,-1.1185455322265625,-0.192138671875,0.100555419921875
1751015763336887600,6.767887451171875,-1.1475677490234375,-0.194549560546875,0.1097564697265625
1751015763346830600,6.77783056640625,-1.171661376953125,-0.19134521484375,0.1144561767578125
1751015763356773600,6.787773681640625,-1.1930389404296875,-0.179656982421875,0.1066436767578125
1751015763366716700,6.797716552734375,-1.2248077392578125,-0.1529998779296875,0.08575439453125
1751015763376659700,6.80765966796875,-1.25396728515625,-0.121124267578125,0.0587921142578125
1751015763386602800,6.817602783203125,-1.27899169921875,-0.0976104736328125,0.028533935546875
1751015763396545500,6.827545654296875,-1.3032989501953125,-0.092071533203125,0.002227783203125
1751015763406488300,6.83748828125,-1.324249267578125,-0.10205078125,-0.0175323486328125
1751015763416431400,6.847431396484375,-1.341278076171875,-0.107574462890625,-0.02880859375
1751015763426374400,6.85737451171875,-1.36285400390625,-0.102508544921875,-0.028076171875
1751015763436317400,6.8673173828125,-1.382568359375,-0.092864990234375,-0.010772705078125
1751015763446260500,6.877260498046875,-1.389129638671875,-0.0760498046875,0.008209228515625
1751015763456203500,6.88720361328125,-1.373291015625,-0.0399322509765625,0.015838623046875
1751015763466146600,6.897146484375,-1.32177734375,-0.009429931640625,0.00921630859375
1751015763476089600,6.907089599609375,-1.2474517822265625,-0.00372314453125,0.001617431640625
1751015763486032400,6.917032470703125,-1.1819000244140625,-0.0006103515625,0.01727294921875
1751015763495975400,6.926975341796875,-1.122711181640625,0.0071258544921875,0.05255126953125
1751015763505918500,6.93691845703125,-1.0739288330078125,0.007171630859375,0.0848388671875
1751015763515861500,6.946861572265625,-1.032989501953125,0.0012664794921875,0.1120758056640625
1751015763525804500,6.956804443359375,-1.002532958984375,-0.0106048583984375,0.138031005859375
1751015763535747600,6.96674755859375,-0.9844818115234375,-0.0322418212890625,0.1614227294921875
1751015763545690600,6.976690673828125,-0.976165771484375,-0.05487060546875,0.178070068359375
1751015763555633700,6.986633544921875,-0.9736175537109375,-0.073394775390625,0.1805572509765625
1751015763565576400,6.996576416015625,-0.972869873046875,-0.088897705078125,0.1699676513671875
1751015763575519500,7.00651953125,-0.9734954833984375,-0.0997314453125,0.1511993408203125
1751015763585462500,7.016462646484375,-0.9819793701171875,-0.1018829345703125,0.128509521484375
1751015763595405600,7.026405517578125,-0.9893646240234375,-0.0974884033203125,0.1010894775390625
1751015763605348600,7.0363486328125,-0.9903106689453125,-0.0899200439453125,0.07635498046875
1751015763615291600,7.046291748046875,-0.9912872314453125,-0.0791168212890625,0.0565032958984375
1751015763625234700,7.056234619140625,-0.979156494140625,-0.0629119873046875,0.0458221435546875
1751015763635177700,7.066177734375,-0.9567108154296875,-0.0464630126953125,0.0396728515625
1751015763645119500,7.076119384765625,-0.927734375,-0.034423828125,0.03497314453125
1751015763655062800,7.086062744140625,-0.89776611328125,-0.028564453125,0.0321044921875
1751015763665005600,7.096005615234375,-0.8641357421875,-0.02862548828125,0.0303955078125
1751015763674948600,7.105948486328125,-0.8303375244140625,-0.031890869140625,0.0291900634765625
1751015763684891600,7.1158916015625,-0.8032989501953125,-0.0368194580078125,0.030181884765625
1751015763694834700,7.125834716796875,-0.7888641357421875,-0.0385589599609375,0.0344696044921875
1751015763704777700,7.13577783203125,-0.78192138671875,-0.0389556884765625,0.041534423828125
1751015763714720800,7.145720703125,-0.7774658203125,-0.04486083984375,0.04034423828125
1751015763724663800,7.155663818359375,-0.7724456787109375,-0.0525970458984375,0.0278167724609375
1751015763734606800,7.16560693359375,-0.7713470458984375,-0.0608978271484375,0.010101318359375
1751015763744549600,7.175549560546875,-0.773651123046875,-0.069427490234375,-0.005218505859375
1751015763754492700,7.18549267578125,-0.7830352783203125,-0.079742431640625,-0.01416015625
1751015763764435700,7.195435791015625,-0.8058013916015625,-0.0867767333984375,-0.0209503173828125
1751015763774378800,7.205378662109375,-0.821807861328125,-0.086883544921875,-0.0308380126953125
1751015763784321800,7.21532177734375,-0.8370513916015625,-0.0854949951171875,-0.04425048828125
1751015763794264800,7.225264892578125,-0.84783935546875,-0.08392333984375,-0.055419921875
1751015763804207900,7.235207763671875,-0.854736328125,-0.0861358642578125,-0.0594024658203125
1751015763814151000,7.24515087890625,-0.8642120361328125,-0.0961456298828125,-0.0536041259765625
1751015763824093700,7.25509375,-0.8806304931640625,-0.10809326171875,-0.0361785888671875
1751015763834036700,7.26503662109375,-0.8945465087890625,-0.1179046630859375,-0.0187225341796875
1751015763843979800,7.274979736328125,-0.910858154296875,-0.12518310546875,-0.0109405517578125
1751015763853922800,7.2849228515625,-0.9397125244140625,-0.1291351318359375,-0.003173828125
1751015763863865900,7.294865966796875,-0.971771240234375,-0.1328277587890625,0.0117340087890625
1751015763873809000,7.304808837890625,-1.01080322265625,-0.1349639892578125,0.0308990478515625
1751015763883752000,7.314751953125,-1.0649261474609375,-0.126953125,0.050262451171875
1751015763893695000,7.324695068359375,-1.12347412109375,-0.1060791015625,0.052642822265625
1751015763903637800,7.3346376953125,-1.18353271484375,-0.0815277099609375,0.0304718017578125
1751015763913580800,7.344580810546875,-1.236083984375,-0.059814453125,-0.002227783203125
1751015763923523600,7.354523681640625,-1.2753448486328125,-0.049285888671875,-0.0389251708984375
1751015763933466600,7.364466552734375,-1.3004913330078125,-0.0395965576171875,-0.065826416015625
1751015763943409700,7.37440966796875,-1.3138275146484375,-0.02783203125,-0.0751800537109375
1751015763953352700,7.384352783203125,-1.3197174072265625,-0.041656494140625,-0.07037353515625
1751015763963295700,7.394295654296875,-1.338470458984375,-0.0807647705078125,-0.043487548828125
1751015763973238800,7.40423876953125,-1.330108642578125,-0.1076812744140625,-0.0143890380859375
1751015763983181800,7.414181884765625,-1.29766845703125,-0.12091064453125,-0.0100860595703125
1751015763993124600,7.42412451171875,-1.338348388671875,-0.0907440185546875,-0.0273284912109375
1751015764003067600,7.434067626953125,-1.3989715576171875,-0.030517578125,-0.0604095458984375
1751015764013010700,7.4440107421875,-1.399078369140625,0.02655029296875,-0.1075592041015625
1751015764022953700,7.45395361328125,-1.3631591796875,0.0666656494140625,-0.1494140625
1751015764032896800,7.463896728515625,-1.3379058837890625,0.07763671875,-0.1734771728515625
1751015764042839800,7.47383984375,-1.3106689453125,0.0749664306640625,-0.18792724609375
1751015764052781800,7.48378173828125,-1.2823486328125,0.0837249755859375,-0.1956634521484375
1751015764062724900,7.493724853515625,-1.2437744140625,0.0882415771484375,-0.21160888671875
1751015764072668000,7.50366796875,-1.195098876953125,0.0743560791015625,-0.2371368408203125
1751015764082611000,7.51361083984375,-1.1575164794921875,0.0534515380859375,-0.2515411376953125
1751015764092553700,7.5235537109375,-1.125030517578125,0.0316925048828125,-0.243896484375
1751015764102496800,7.533496826171875,-1.08489990234375,-0.0053253173828125,-0.22235107421875
1751015764112439800,7.543439697265625,-1.052764892578125,-0.0478668212890625,-0.2022552490234375
1751015764122382800,7.5533828125,-1.0289154052734375,-0.083831787109375,-0.1794281005859375
1751015764132326000,7.563325927734375,-1.0018768310546875,-0.1078033447265625,-0.1504364013671875
1751015764142268700,7.5732685546875,-0.978240966796875,-0.119049072265625,-0.1147308349609375
1751015764152211700,7.583211669921875,-0.9444122314453125,-0.1203765869140625,-0.0976715087890625
1751015764162154800,7.59315478515625,-0.8993682861328125,-0.1091156005859375,-0.0878753662109375
1751015764172097800,7.603097900390625,-0.853668212890625,-0.087066650390625,-0.0792388916015625
1751015764182040600,7.61304052734375,-0.8117218017578125,-0.06134033203125,-0.061676025390625
1751015764191983600,7.622983642578125,-0.7719879150390625,-0.042083740234375,-0.0360107421875
1751015764201926700,7.6329267578125,-0.734710693359375,-0.0338897705078125,-0.0110626220703125
1751015764211869700,7.64286962890625,-0.6967315673828125,-0.031524658203125,0.0058746337890625
1751015764221812700,7.652812744140625,-0.6598358154296875,-0.032196044921875,0.0122833251953125
1751015764231755800,7.662755859375,-0.6304168701171875,-0.03985595703125,0.014556884765625
1751015764241698800,7.67269873046875,-0.6066131591796875,-0.0550689697265625,0.0192718505859375
1751015764251641900,7.682641845703125,-0.58856201171875,-0.07568359375,0.02587890625
1751015764261584600,7.692584716796875,-0.5711822509765625,-0.0999298095703125,0.0327606201171875
1751015764271527700,7.702527587890625,-0.5592193603515625,-0.12481689453125,0.03436279296875
1751015764281470700,7.712470703125,-0.5553131103515625,-0.1456756591796875,0.0383453369140625
1751015764291413800,7.722413818359375,-0.560333251953125,-0.1656341552734375,0.0415802001953125
1751015764301356800,7.732356689453125,-0.5758819580078125,-0.178741455078125,0.0427093505859375
1751015764311299800,7.7422998046875,-0.5894012451171875,-0.191680908203125,0.042022705078125
1751015764321243000,7.752242919921875,-0.613800048828125,-0.1978912353515625,0.043426513671875
1751015764331186000,7.76218603515625,-0.6543426513671875,-0.194610595703125,0.046112060546875
1751015764341128700,7.772128662109375,-0.702850341796875,-0.1853485107421875,0.0470733642578125
1751015764351071700,7.78207177734375,-0.7523651123046875,-0.1722412109375,0.031982421875
1751015764361014800,7.792014892578125,-0.80303955078125,-0.1593780517578125,0.009429931640625
1751015764370957800,7.801957763671875,-0.8523712158203125,-0.1553802490234375,-0.0145111083984375
1751015764380900900,7.81190087890625,-0.897491455078125,-0.165557861328125,-0.035888671875
1751015764390844000,7.821843994140625,-0.943084716796875,-0.183746337890625,-0.045013427734375
1751015764400787000,7.831786865234375,-0.9925994873046875,-0.204681396484375,-0.04656982421875
1751015764410730000,7.84172998046875,-1.041961669921875,-0.2213897705078125,-0.04425048828125
1751015764420672800,7.8516728515625,-1.0853729248046875,-0.2290191650390625,-0.0401611328125
1751015764430615600,7.861615478515625,-1.120941162109375,-0.2375640869140625,-0.0296173095703125
1751015764440558600,7.87155859375,-1.1506500244140625,-0.2489471435546875,-0.0090789794921875
1751015764450501600,7.881501708984375,-1.1956634521484375,-0.24969482421875,0.01397705078125
1751015764460444700,7.891444580078125,-1.2419281005859375,-0.23663330078125,0.0333099365234375
1751015764470387700,7.9013876953125,-1.2735443115234375,-0.2136993408203125,0.031982421875
1751015764480330800,7.911330810546875,-1.3048248291015625,-0.1830902099609375,0.0111236572265625
1751015764490273800,7.921273681640625,-1.3378448486328125,-0.148223876953125,-0.010101318359375
1751015764500216800,7.931216796875,-1.360565185546875,-0.11602783203125,-0.033203125
1751015764510158800,7.941158935546875,-1.3729095458984375,-0.0930938720703125,-0.056060791015625
1751015764520102000,7.951101806640625,-1.366424560546875,-0.096710205078125,-0.0650787353515625
1751015764530044700,7.961044677734375,-1.35308837890625,-0.1277313232421875,-0.0611114501953125
1751015764539987700,7.97098779296875,-1.3427581787109375,-0.1598052978515625,-0.0451812744140625
1751015764549930800,7.9809306640625,-1.335113525390625,-0.174041748046875,-0.026611328125
1751015764559873800,7.990873779296875,-1.3228302001953125,-0.188446044921875,-0.003021240234375
1751015764569816800,8.00081689453125,-1.312042236328125,-0.2008209228515625,0.0215911865234375
1751015764579759900,8.010759765625,-1.3060302734375,-0.1836700439453125,0.0402679443359375
1751015764589703000,8.020702880859375,-1.2995147705078125,-0.137847900390625,0.054229736328125
1751015764599646000,8.03064599609375,-1.2734222412109375,-0.0934600830078125,0.0614776611328125
1751015764609588700,8.040588623046874,-1.23895263671875,-0.0638275146484375,0.06121826171875
1751015764619531800,8.05053173828125,-1.2050628662109375,-0.038177490234375,0.0680084228515625
1751015764629474800,8.060474853515625,-1.179443359375,-0.01434326171875,0.083282470703125
1751015764639417900,8.07041796875,-1.162689208984375,0.0007476806640625,0.100311279296875
1751015764649360600,8.080360595703125,-1.1495208740234375,0.0189666748046875,0.1121063232421875
1751015764659299300,8.09029931640625,-1.137237548828125,0.0323028564453125,0.1104888916015625
1751015764669242400,8.100242431640625,-1.1279144287109375,0.0303955078125,0.1003875732421875
1751015764679185400,8.110185302734376,-1.1219329833984375,0.02496337890625,0.08782958984375
1751015764689128400,8.12012841796875,-1.1156158447265625,0.0194244384765625,0.0726470947265625
1751015764699071500,8.130071533203125,-1.1051025390625,0.0083160400390625,0.0535888671875
1751015764709014500,8.1400146484375,-1.0931854248046875,-0.0111846923828125,0.034881591796875
1751015764718957300,8.149957275390625,-1.076202392578125,-0.02410888671875,0.0165557861328125
1751015764728900400,8.159900390625,-1.0600128173828125,-0.0292510986328125,-0.0000152587890625
1751015764738843400,8.169843505859374,-1.0440673828125,-0.0288238525390625,-0.0142059326171875
1751015764748786400,8.179786376953125,-1.0252227783203125,-0.0284423828125,-0.028411865234375
1751015764758729500,8.1897294921875,-0.9965972900390625,-0.03173828125,-0.0394744873046875
1751015764768672500,8.199672607421874,-0.96160888671875,-0.036712646484375,-0.0488739013671875
1751015764778615600,8.209615478515625,-0.925079345703125,-0.0394287109375,-0.0573272705078125
1751015764788558600,8.21955859375,-0.8850860595703125,-0.045074462890625,-0.06146240234375
1751015764798501400,8.22950146484375,-0.84619140625,-0.0518951416015625,-0.0613250732421875
1751015764808444400,8.2394443359375,-0.812286376953125,-0.05865478515625,-0.0624847412109375
1751015764818387500,8.249387451171875,-0.7763519287109375,-0.065765380859375,-0.062591552734375
1751015764828330500,8.25933056640625,-0.748077392578125,-0.06732177734375,-0.0630645751953125
1751015764838273500,8.2692734375,-0.7247314453125,-0.0675201416015625,-0.0675506591796875
1751015764848216600,8.279216552734376,-0.695953369140625,-0.070220947265625,-0.078033447265625
1751015764858159600,8.28915966796875,-0.6683807373046875,-0.074676513671875,-0.086578369140625
1751015764868102700,8.2991025390625,-0.6465301513671875,-0.081634521484375,-0.0850067138671875
1751015764878045400,8.30904541015625,-0.62725830078125,-0.0962371826171875,-0.08172607421875
1751015764887988200,8.31898828125,-0.6182861328125,-0.1070404052734375,-0.0760955810546875
1751015764897931300,8.32893115234375,-0.6088409423828125,-0.1162872314453125,-0.06048583984375
1751015764907874300,8.338874267578126,-0.6021728515625,-0.1299896240234375,-0.0441436767578125
1751015764917817300,8.3488173828125,-0.601715087890625,-0.1410675048828125,-0.03399658203125
1751015764927760400,8.358760498046875,-0.6101531982421875,-0.1491546630859375,-0.0232086181640625
1751015764937703400,8.368703369140626,-0.6269073486328125,-0.1502532958984375,-0.011505126953125
1751015764947646500,8.378646484375,-0.6467437744140625,-0.1475372314453125,-0.002471923828125
1751015764957589500,8.388589599609375,-0.6695098876953125,-0.14093017578125,-0.00311279296875
1751015764967532300,8.3985322265625,-0.6915283203125,-0.1403045654296875,-0.006195068359375
1751015764977475300,8.408475341796875,-0.710357666015625,-0.1458587646484375,-0.00555419921875
1751015764987418400,8.41841845703125,-0.740478515625,-0.1520538330078125,-0.003265380859375
1751015764997361400,8.428361328125,-0.7750701904296875,-0.15789794921875,0.0050811767578125
1751015765007304400,8.438304443359375,-0.81512451171875,-0.165924072265625,0.015777587890625
1751015765017247500,8.44824755859375,-0.8602752685546875,-0.1826324462890625,0.01739501953125
1751015765027190500,8.4581904296875,-0.9322357177734375,-0.181793212890625,0.0237884521484375
1751015765037133600,8.468133544921875,-1.0138092041015625,-0.1705780029296875,0.0309906005859375
1751015765047076400,8.478076416015625,-1.0933074951171875,-0.165985107421875,0.0298614501953125
1751015765057018600,8.4880185546875,-1.18157958984375,-0.1487274169921875,0.02581787109375
1751015765066961400,8.49796142578125,-1.2752227783203125,-0.1081695556640625,0.0222930908203125
1751015765076904400,8.507904541015625,-1.34112548828125,-0.0655670166015625,0.017547607421875
1751015765086847500,8.517847412109376,-1.3824310302734375,-0.0363616943359375,0.0196075439453125
1751015765096790500,8.52779052734375,-1.4203338623046875,-0.01605224609375,0.034820556640625
1751015765106733600,8.537733642578125,-1.42376708984375,0.0061187744140625,0.0602264404296875
1751015765116676400,8.54767626953125,-1.449188232421875,0.0037994384765625,0.072021484375
1751015765126619400,8.557619384765625,-1.5010833740234375,-0.0205230712890625,0.0563812255859375
1751015765136562400,8.5675625,-1.538726806640625,-0.030242919921875,0.0291290283203125
1751015765146505500,8.57750537109375,-1.5474395751953125,-0.021484375,-0.0105438232421875
1751015765156448300,8.5874482421875,-1.5570220947265625,0.00286865234375,-0.0450439453125
1751015765166391300,8.597391357421875,-1.5264434814453125,0.033935546875,-0.0732421875
1751015765176334300,8.607334228515626,-1.4360504150390625,0.04473876953125,-0.1078948974609375
1751015765186277400,8.61727734375,-1.3766937255859375,0.03851318359375,-0.141815185546875
1751015765196220400,8.627220458984375,-1.313934326171875,0.0328369140625,-0.1605682373046875
1751015765206163500,8.63716357421875,-1.2473907470703125,0.0304412841796875,-0.17437744140625
1751015765216106500,8.6471064453125,-1.2049407958984375,0.0214385986328125,-0.180450439453125
1751015765226049500,8.657049560546875,-1.1689300537109375,-0.0013427734375,-0.17236328125
1751015765235992300,8.666992431640624,-1.1318359375,-0.0390167236328125,-0.1590423583984375
1751015765245935400,8.676935302734375,-1.1018218994140625,-0.072540283203125,-0.1431732177734375
1751015765255878400,8.68687841796875,-1.082244873046875,-0.08929443359375,-0.1339874267578125
1751015765265821400,8.696821533203124,-1.06561279296875,-0.0912322998046875,-0.13726806640625
1751015765275764500,8.706764404296875,-1.057952880859375,-0.0945892333984375,-0.1475982666015625
1751015765285707500,8.71670751953125,-1.0584716796875,-0.101776123046875,-0.1641998291015625
1751015765295650600,8.726650634765624,-1.058837890625,-0.1110687255859375,-0.17523193359375
1751015765305593600,8.736593505859375,-1.0609283447265625,-0.118438720703125,-0.1790008544921875
1751015765315536400,8.746536376953125,-1.0543365478515625,-0.120391845703125,-0.1770782470703125
1751015765325479400,8.7564794921875,-1.026458740234375,-0.112274169921875,-0.1688690185546875
1751015765335422500,8.76642236328125,-0.973541259765625,-0.1022491455078125,-0.1708221435546875
1751015765345365500,8.776365478515626,-0.9080047607421875,-0.0902557373046875,-0.16778564453125
1751015765355308500,8.78630859375,-0.844482421875,-0.0781402587890625,-0.154266357421875
1751015765365251600,8.79625146484375,-0.79217529296875,-0.0676422119140625,-0.13641357421875
1751015765375194600,8.806194580078126,-0.7478179931640625,-0.0624542236328125,-0.1193389892578125
1751015765385137700,8.8161376953125,-0.704864501953125,-0.068115234375,-0.1092529296875
1751015765395080400,8.82608056640625,-0.659393310546875,-0.080596923828125,-0.099151611328125
1751015765405023200,8.836023193359376,-0.627532958984375,-0.0994873046875,-0.0871429443359375
1751015765414966300,8.84596630859375,-0.6024322509765625,-0.1262969970703125,-0.069854736328125
1751015765424909300,8.855909423828125,-0.5899505615234375,-0.1530914306640625,-0.0440521240234375
1751015765434852400,8.865852294921876,-0.59893798828125,-0.1752166748046875,-0.013092041015625
1751015765444795400,8.87579541015625,-0.6103363037109375,-0.1939239501953125,0.009613037109375
1751015765454738400,8.885738525390625,-0.6224212646484375,-0.208465576171875,0.02789306640625
1751015765464681500,8.895681396484376,-0.6383819580078125,-0.220947265625,0.0438690185546875
1751015765474624500,8.90562451171875,-0.65460205078125,-0.2250823974609375,0.051239013671875
1751015765484567300,8.9155673828125,-0.6766510009765625,-0.22021484375,0.049072265625
1751015765494510300,8.92551025390625,-0.705230712890625,-0.2124786376953125,0.0418243408203125
1751015765504453400,8.935453369140625,-0.743255615234375,-0.2058563232421875,0.0406494140625
1751015765514396400,8.945396484375,-0.7841949462890625,-0.2008209228515625,0.0463714599609375
1751015765524339500,8.95533935546875,-0.820037841796875,-0.1982421875,0.04925537109375
1751015765534282500,8.965282470703125,-0.853057861328125,-0.199310302734375,0.04473876953125
1751015765544225500,8.9752255859375,-0.8845062255859375,-0.201873779296875,0.042236328125
1751015765554168600,8.98516845703125,-0.909698486328125,-0.206634521484375,0.049713134765625
1751015765564111400,8.995111328125,-0.94488525390625,-0.20892333984375,0.0589141845703125
1751015765574054400,9.005054443359375,-0.9924774169921875,-0.2071533203125,0.0710906982421875
1751015765583997400,9.01499755859375,-1.02789306640625,-0.2091217041015625,0.08868408203125
1751015765593940500,9.0249404296875,-1.0560455322265625,-0.219757080078125,0.0975189208984375
1751015765603883500,9.034883544921875,-1.0876007080078125,-0.2296905517578125,0.1012420654296875
1751015765613826600,9.04482666015625,-1.12091064453125,-0.236602783203125,0.1091766357421875
1751015765623769600,9.05476953125,-1.1556396484375,-0.240631103515625,0.1148681640625
1751015765633712600,9.064712646484375,-1.184722900390625,-0.237060546875,0.1145477294921875
1751015765643655400,9.074655517578124,-1.2159576416015625,-0.222259521484375,0.1083831787109375
1751015765653599200,9.08459912109375,-1.24163818359375,-0.2086029052734375,0.1028594970703125
1751015765663541200,9.094541259765625,-1.255523681640625,-0.2044830322265625,0.1019439697265625
1751015765673484300,9.104484375,-1.26397705078125,-0.208465576171875,0.09844970703125
1751015765683427300,9.11442724609375,-1.2714691162109375,-0.2227325439453125,0.0988922119140625
1751015765693370400,9.124370361328126,-1.28265380859375,-0.2379608154296875,0.10540771484375
1751015765703313400,9.1343134765625,-1.3053436279296875,-0.2333526611328125,0.1117401123046875
1751015765713256400,9.14425634765625,-1.3221588134765625,-0.2217254638671875,0.116851806640625
1751015765723199500,9.154199462890626,-1.338226318359375,-0.201263427734375,0.122833251953125
1751015765733142300,9.164142333984374,-1.3326873779296875,-0.1469268798828125,0.1185760498046875
1751015765743085300,9.174085205078125,-1.3132781982421875,-0.09295654296875,0.09161376953125
1751015765753028400,9.1840283203125,-1.248992919921875,-0.06646728515625,0.0670166015625
1751015765762971400,9.193971435546874,-1.1391448974609375,-0.0634918212890625,0.0421295166015625
1751015765772914400,9.20391455078125,-1.083892822265625,-0.074920654296875,0.0292816162109375
1751015765782857500,9.213857421875,-1.0575103759765625,-0.0908050537109375,0.0552215576171875
1751015765792800500,9.223800537109375,-1.0437164306640625,-0.1137847900390625,0.108673095703125
1751015765802743600,9.23374365234375,-1.025054931640625,-0.1392974853515625,0.1529541015625
1751015765812686000,9.24368603515625,-1.02655029296875,-0.1552276611328125,0.1646270751953125
1751015765822629000,9.253629150390625,-1.041839599609375,-0.1562652587890625,0.161956787109375
1751015765832572200,9.263572265625,-1.0513153076171875,-0.152587890625,0.1485137939453125
1751015765842515200,9.27351513671875,-1.06121826171875,-0.1467437744140625,0.119140625
1751015765852458200,9.283458251953125,-1.0735321044921875,-0.1364288330078125,0.0741424560546875
1751015765862401300,9.2934013671875,-1.0895538330078125,-0.1179656982421875,0.037109375
1751015765872344300,9.30334423828125,-1.0965576171875,-0.0958251953125,0.0160980224609375
1751015765882287400,9.313287353515625,-1.085662841796875,-0.076995849609375,-0.005218505859375
1751015765892230400,9.32323046875,-1.0585174560546875,-0.063446044921875,-0.0320587158203125
1751015765902173200,9.333173095703126,-1.01934814453125,-0.058929443359375,-0.0462188720703125
1751015765912116200,9.3431162109375,-0.9748382568359375,-0.060272216796875,-0.055084228515625
1751015765922059300,9.353059326171875,-0.9337615966796875,-0.0625457763671875,-0.0567779541015625
1751015765932002300,9.363002197265626,-0.89019775390625,-0.065521240234375,-0.0506439208984375
1751015765941945300,9.3729453125,-0.846282958984375,-0.0750579833984375,-0.0383758544921875
1751015765951888400,9.382888427734375,-0.8071746826171875,-0.09051513671875,-0.0225982666015625
1751015765961831400,9.39283154296875,-0.7761077880859375,-0.103851318359375,-0.00885009765625
1751015765971774500,9.4027744140625,-0.7556304931640625,-0.1125946044921875,-0.0018157958984375
1751015765981717200,9.41271728515625,-0.7414093017578125,-0.118194580078125,-0.001068115234375
1751015765991660300,9.422660400390624,-0.7278594970703125,-0.12200927734375,-0.003143310546875
1751015766001603300,9.432603271484375,-0.713775634765625,-0.12750244140625,-0.0057220458984375
1751015766011546400,9.44254638671875,-0.7085418701171875,-0.1364898681640625,-0.0159149169921875
1751015766021489400,9.452489501953124,-0.719573974609375,-0.14923095703125,-0.0232086181640625
1751015766031432400,9.462432373046875,-0.7275848388671875,-0.161224365234375,-0.0245208740234375
1751015766041375500,9.47237548828125,-0.73486328125,-0.1714019775390625,-0.0276947021484375
1751015766051318500,9.482318603515624,-0.7440338134765625,-0.182525634765625,-0.0303802490234375
1751015766061261300,9.49226123046875,-0.759521484375,-0.1925506591796875,-0.036285400390625
1751015766071204400,9.502204345703126,-0.771209716796875,-0.19970703125,-0.0423126220703125
1751015766081147400,9.5121474609375,-0.7864532470703125,-0.1996002197265625,-0.0473785400390625
1751015766091090200,9.522090087890625,-0.7985382080078125,-0.1975555419921875,-0.0493927001953125
1751015766101033200,9.532033203125,-0.8096160888671875,-0.1971588134765625,-0.0470428466796875
1751015766110976300,9.541976318359374,-0.818328857421875,-0.1977081298828125,-0.0439453125
1751015766120919300,9.551919189453125,-0.8238983154296875,-0.20025634765625,-0.0382843017578125
1751015766130862300,9.5618623046875,-0.8402099609375,-0.2047882080078125,-0.0212249755859375
1751015766140805000,9.57180517578125,-0.862579345703125,-0.2120361328125,-0.0021209716796875
1751015766150748200,9.581748046875,-0.8915252685546875,-0.214752197265625,0.020904541015625
1751015766160691200,9.591691162109376,-0.9289703369140625,-0.2119140625,0.0369415283203125
1751015766170634200,9.60163427734375,-0.98095703125,-0.203704833984375,0.0505828857421875
1751015766180577300,9.611577392578125,-1.028411865234375,-0.1907196044921875,0.058837890625
1751015766190520300,9.621520263671876,-1.0754241943359375,-0.1811981201171875,0.0630950927734375
1751015766200463400,9.63146337890625,-1.1228790283203125,-0.171783447265625,0.057281494140625
1751015766210406400,9.641406494140625,-1.165863037109375,-0.160125732421875,0.037384033203125
1751015766220349200,9.65134912109375,-1.2054901123046875,-0.1455841064453125,0.01123046875
1751015766230292200,9.661292236328125,-1.2382354736328125,-0.13427734375,-0.0164642333984375
1751015766240235300,9.6712353515625,-1.278167724609375,-0.1301116943359375,-0.037750244140625
1751015766250178300,9.68117822265625,-1.3131103515625,-0.131134033203125,-0.052459716796875
1751015766260121300,9.691121337890625,-1.3436431884765625,-0.138336181640625,-0.063232421875
1751015766270064400,9.701064453125,-1.352020263671875,-0.151397705078125,-0.0741729736328125
1751015766280007400,9.71100732421875,-1.3659515380859375,-0.1526947021484375,-0.0854949951171875
1751015766289950500,9.720950439453125,-1.3881378173828125,-0.132568359375,-0.093963623046875
1751015766299893500,9.7308935546875,-1.4097900390625,-0.1004486083984375,-0.104705810546875
1751015766309836300,9.740836181640624,-1.4200592041015625,-0.062896728515625,-0.119140625
1751015766319779300,9.750779296875,-1.412811279296875,-0.0281829833984375,-0.135894775390625
1751015766329722400,9.760722412109375,-1.3922882080078125,0.005615234375,-0.16156005859375
1751015766339665400,9.77066552734375,-1.35076904296875,0.03570556640625,-0.1840057373046875
1751015766349608400,9.7806083984375,-1.29278564453125,0.0545806884765625,-0.2033538818359375
1751015766359551500,9.790551513671875,-1.2300872802734375,0.0599365234375,-0.2148895263671875
1751015766369494300,9.800494384765624,-1.1750335693359375,0.0552520751953125,-0.215179443359375
1751015766379437300,9.810437255859375,-1.135528564453125,0.0477294921875,-0.2004852294921875
1751015766389380000,9.820380126953125,-1.1136474609375,0.0363311767578125,-0.1773223876953125
1751015766399323100,9.8303232421875,-1.09735107421875,0.0204925537109375,-0.1402435302734375
1751015766409265200,9.84026513671875,-1.0784149169921875,0.006134033203125,-0.117889404296875
1751015766419208200,9.850208251953125,-1.0727386474609375,-0.00335693359375,-0.1263427734375
1751015766429151200,9.860151123046874,-1.07635498046875,-0.012664794921875,-0.1441497802734375
1751015766439094300,9.87009423828125,-1.076568603515625,-0.0332794189453125,-0.1648406982421875
1751015766449037300,9.880037353515625,-1.0866241455078125,-0.0561370849609375,-0.17938232421875
1751015766458980400,9.88998046875,-1.0923309326171875,-0.0717620849609375,-0.179595947265625
1751015766468923400,9.89992333984375,-1.080902099609375,-0.0763702392578125,-0.167022705078125
1751015766478866400,9.909866455078125,-1.0374298095703125,-0.073974609375,-0.1576690673828125
1751015766488809500,9.9198095703125,-0.963714599609375,-0.0661773681640625,-0.1522674560546875
1751015766498752300,9.929752197265625,-0.9052581787109375,-0.0558319091796875,-0.1350250244140625
1751015766508695300,9.9396953125,-0.8483123779296875,-0.045806884765625,-0.1010894775390625
1751015766518638300,9.949638427734374,-0.7946014404296875,-0.043243408203125,-0.06683349609375
1751015766528581400,9.959581298828125,-0.7372589111328125,-0.0429534912109375,-0.02606201171875
1751015766538524400,9.9695244140625,-0.69940185546875,-0.04498291015625,0.01031494140625
1751015766548467500,9.979467529296874,-0.670745849609375,-0.0492706298828125,0.039398193359375
1751015766558410500,9.989410400390625,-0.645294189453125,-0.0591583251953125,0.0578765869140625
1751015766568353500,9.999353515625,-0.622589111328125,-0.073455810546875,0.0589752197265625
1751015766578296300,10.00929638671875,-0.62188720703125,-0.10101318359375,0.0426177978515625
1751015766588239400,10.0192392578125,-0.656707763671875,-0.1341552734375,0.0257720947265625
1751015766598182100,10.02918212890625,-0.7042236328125,-0.15679931640625,0.0186767578125
1751015766608125200,10.039125244140624,-0.751220703125,-0.1653900146484375,0.0109710693359375
1751015766618068200,10.049068115234375,-0.8084564208984375,-0.175201416015625,0.00885009765625
1751015766628011300,10.05901123046875,-0.8341064453125,-0.17510986328125,0.041595458984375
1751015766637954300,10.068954345703125,-0.8544769287109375,-0.1707916259765625,0.0953826904296875
1751015766647897300,10.0788974609375,-0.881439208984375,-0.1660919189453125,0.145477294921875
1751015766657840000,10.088840087890626,-0.8875885009765625,-0.15264892578125,0.1789703369140625
1751015766667782700,10.09878271484375,-0.889556884765625,-0.1392059326171875,0.2121429443359375
1751015766677725700,10.1087255859375,-0.9093017578125,-0.1431884765625,0.207305908203125
1751015766687668700,10.118668701171876,-0.92529296875,-0.150634765625,0.1773834228515625
1751015766697611800,10.12861181640625,-0.922454833984375,-0.163238525390625,0.143157958984375
1751015766707554800,10.138554931640625,-0.9377288818359375,-0.1839447021484375,0.11907958984375
1751015766717497900,10.148497802734376,-0.9679718017578125,-0.19903564453125,0.1088409423828125
1751015766727441000,10.15844091796875,-0.991363525390625,-0.2181243896484375,0.0953216552734375
1751015766737384000,10.168384033203125,-1.0190582275390625,-0.2458343505859375,0.0904083251953125
1751015766747327000,10.178326904296876,-1.0502777099609375,-0.257110595703125,0.0910186767578125
1751015766757269800,10.188269775390625,-1.0693511962890625,-0.2512969970703125,0.084747314453125
1751015766767212800,10.198212890625,-1.0904541015625,-0.23992919921875,0.081634521484375
1751015766777155800,10.20815576171875,-1.113067626953125,-0.22821044921875,0.0852203369140625
1751015766787099000,10.218098876953125,-1.1420135498046875,-0.208404541015625,0.0946197509765625
1751015766797042000,10.2280419921875,-1.1682891845703125,-0.1776123046875,0.1084442138671875
1751015766806985000,10.23798486328125,-1.1815338134765625,-0.1436767578125,0.11944580078125
1751015766816928000,10.247927978515625,-1.190704345703125,-0.110565185546875,0.1252288818359375
1751015766826871000,10.25787109375,-1.2000579833984375,-0.0880889892578125,0.122528076171875
1751015766836813800,10.267813720703124,-1.217620849609375,-0.0758209228515625,0.1108856201171875
1751015766846756900,10.2777568359375,-1.234619140625,-0.06976318359375,0.0948028564453125
1751015766856700000,10.287699951171875,-1.24554443359375,-0.07489013671875,0.076019287109375
1751015766866643000,10.297642822265624,-1.259674072265625,-0.0926055908203125,0.0554351806640625
1751015766876586000,10.3075859375,-1.26885986328125,-0.11224365234375,0.0438385009765625
1751015766886529000,10.317529052734375,-1.2655487060546875,-0.1239776611328125,0.0408935546875
1751015766896472000,10.32747216796875,-1.257965087890625,-0.125579833984375,0.0410919189453125
1751015766906415000,10.3374150390625,-1.2559356689453125,-0.107177734375,0.0449066162109375
1751015766916358000,10.34735791015625,-1.258941650390625,-0.0681610107421875,0.0468597412109375
1751015766926301000,10.357301025390624,-1.257843017578125,-0.0366973876953125,0.0541229248046875
1751015766936244000,10.367243896484375,-1.2420501708984375,-0.0416412353515625,0.0529022216796875
1751015766946187000,10.37718701171875,-1.2203369140625,-0.0500030517578125,0.0524139404296875
1751015766956129800,10.3871298828125,-1.1945343017578125,-0.0440826416015625,0.0538330078125
1751015766966072800,10.39707275390625,-1.1714630126953125,-0.025177001953125,0.06903076171875
1751015766976016000,10.407015869140626,-1.154052734375,-0.011383056640625,0.0810546875
1751015766985959000,10.416958984375,-1.1665191650390625,-0.009033203125,0.0875701904296875
1751015766995901700,10.426901611328125,-1.205078125,0.00732421875,0.11126708984375
1751015767005844700,10.4368447265625,-1.2350616455078125,0.024627685546875,0.119873046875
1751015767015787800,10.446787841796874,-1.2743988037109375,0.027130126953125,0.1118316650390625
1751015767025730800,10.456730712890625,-1.3279266357421875,0.0227813720703125,0.1074676513671875
1751015767035673900,10.466673828125,-1.3639984130859375,0.0087432861328125,0.10076904296875
1751015767045617000,10.476616943359375,-1.4012908935546875,0.009124755859375,0.0933074951171875
1751015767055560000,10.486559814453125,-1.4063873291015625,0.03570556640625,0.068450927734375
1751015767065503000,10.4965029296875,-1.350799560546875,0.0692291259765625,0.0343780517578125
1751015767075446000,10.506446044921875,-1.27294921875,0.092620849609375,-0.001434326171875
1751015767085388800,10.516388916015625,-1.2060546875,0.113311767578125,-0.020904541015625
1751015767095331800,10.526331787109376,-1.1637115478515625,0.1296234130859375,-0.034698486328125
1751015767105275000,10.53627490234375,-1.10791015625,0.118316650390625,-0.049407958984375
1751015767115218000,10.546218017578125,-1.0351715087890625,0.0884857177734375,-0.0615081787109375
1751015767125161000,10.556160888671876,-0.9827117919921875,0.05560302734375,-0.081298828125
1751015767135104000,10.56610400390625,-0.959869384765625,0.0215606689453125,-0.1065521240234375
1751015767145047000,10.576047119140625,-0.934326171875,-0.019256591796875,-0.1324615478515625
1751015767154990000,10.585989990234374,-0.8975830078125,-0.0593109130859375,-0.16339111328125
1751015767164932900,10.595932861328125,-0.856597900390625,-0.0958099365234375,-0.179229736328125
1751015767174876000,10.6058759765625,-0.831512451171875,-0.128692626953125,-0.1732025146484375
1751015767184819000,10.61581884765625,-0.80767822265625,-0.1520843505859375,-0.1611328125
1751015767194762000,10.625761962890625,-0.768890380859375,-0.1589202880859375,-0.1438140869140625
1751015767204705000,10.635705078125,-0.755706787109375,-0.1463165283203125,-0.1035003662109375
1751015767214648000,10.64564794921875,-0.793182373046875,-0.108856201171875,-0.0525665283203125
1751015767224591000,10.655591064453125,-0.7989501953125,-0.0932769775390625,-0.0102386474609375
1751015767234534000,10.665533935546875,-0.79803466796875,-0.08807373046875,0.01019287109375
1751015767244476700,10.6754765625,-0.828033447265625,-0.061279296875,0.011474609375
1751015767254419700,10.685419677734375,-0.8283538818359375,-0.060394287109375,-0.0087738037109375
1751015767264362800,10.69536279296875,-0.8316802978515625,-0.0784454345703125,-0.0415191650390625
1751015767274305800,10.705305908203124,-0.875946044921875,-0.0931549072265625,-0.0528106689453125
1751015767284248800,10.715248779296875,-0.908782958984375,-0.110595703125,-0.05224609375
1751015767294191900,10.72519189453125,-0.9136199951171875,-0.13134765625,-0.0327301025390625
1751015767304135000,10.735135009765624,-0.9157562255859375,-0.1539459228515625,-0.002410888671875
1751015767314078000,10.745077880859375,-0.922698974609375,-0.173736572265625,0.025482177734375
1751015767324020700,10.755020751953126,-0.9472198486328125,-0.171356201171875,0.0485382080078125
1751015767333963800,10.7649638671875,-0.95733642578125,-0.1739501953125,0.063934326171875
1751015767343906800,10.77490673828125,-0.95880126953125,-0.1909027099609375,0.0595245361328125
1751015767353849900,10.784849853515626,-0.9562835693359375,-0.1952667236328125,0.0415496826171875
1751015767363793000,10.79479296875,-0.9441375732421875,-0.1999359130859375,0.0280914306640625
1751015767373736000,10.80473583984375,-0.93896484375,-0.218841552734375,0.032684326171875
1751015767383678000,10.814677978515626,-0.962799072265625,-0.2394866943359375,0.044342041015625
1751015767393621000,10.82462109375,-0.9928436279296875,-0.2590484619140625,0.0430450439453125
1751015767403564000,10.83456396484375,-1.0143890380859375,-0.2764892578125,0.0319671630859375
1751015767413507000,10.844507080078126,-1.0345916748046875,-0.2830352783203125,0.022735595703125
1751015767423450000,10.8544501953125,-1.0533599853515625,-0.2918548583984375,0.024322509765625
1751015767433393000,10.864392822265625,-1.071014404296875,-0.2724456787109375,0.0285797119140625
1751015767443336000,10.8743359375,-1.0480499267578125,-0.2392578125,0.0291595458984375
1751015767453279000,10.884279052734374,-1.0399322509765625,-0.219635009765625,0.0304718017578125
1751015767463221800,10.8942216796875,-1.1056365966796875,-0.1627655029296875,0.0505828857421875
1751015767473164800,10.904164794921876,-1.119964599609375,-0.1076812744140625,0.0738372802734375
1751015767483107800,10.91410791015625,-1.0380859375,-0.119171142578125,0.0509033203125
1751015767493051000,10.92405078125,-0.937225341796875,-0.1670989990234375,-0.0097808837890625
1751015767502994000,10.933993896484376,-0.913848876953125,-0.2211456298828125,-0.0779266357421875
1751015767512936700,10.943936767578125,-0.9284820556640625,-0.269561767578125,-0.11480712890625
1751015767522879700,10.953879638671875,-0.9154510498046875,-0.320892333984375,-0.109283447265625
1751015767532822800,10.96382275390625,-0.893096923828125,-0.3574676513671875,-0.099822998046875
1751015767542765800,10.973765869140625,-0.8946990966796875,-0.35003662109375,-0.0958709716796875
1751015767552708900,10.983708984375,-0.9037322998046875,-0.315826416015625,-0.10150146484375
1751015767562652000,10.99365185546875,-0.8840789794921875,-0.2828369140625,-0.1120147705078125
1751015767572595000,11.003594970703125,-0.85369873046875,-0.2390594482421875,-0.1257171630859375
1751015767582538000,11.0135380859375,-0.842742919921875,-0.192779541015625,-0.11700439453125
1751015767592481000,11.02348095703125,-0.8472137451171875,-0.16278076171875,-0.0921478271484375
1751015767602423800,11.033423828125,-0.8229827880859375,-0.1468505859375,-0.074005126953125
1751015767612366800,11.043366943359375,-0.7996826171875,-0.1502532958984375,-0.0699005126953125
1751015767622310000,11.053309814453126,-0.839202880859375,-0.1498260498046875,-0.0594635009765625
1751015767632253000,11.0632529296875,-0.8619384765625,-0.1508941650390625,-0.0573272705078125
1751015767642196000,11.073196044921875,-0.859893798828125,-0.15130615234375,-0.0584869384765625
1751015767652139000,11.083138916015624,-0.8708038330078125,-0.148468017578125,-0.0566864013671875
1751015767662081500,11.09308154296875,-0.8991546630859375,-0.149261474609375,-0.0453948974609375
1751015767672024600,11.103024658203125,-0.92694091796875,-0.1640472412109375,-0.0370941162109375
1751015767681967600,11.112967529296874,-0.92401123046875,-0.1726226806640625,-0.04779052734375
1751015767691910400,11.122910400390625,-0.9239959716796875,-0.168365478515625,-0.0478668212890625
1751015767701853400,11.132853515625,-0.9336700439453125,-0.17608642578125,-0.0395965576171875
1751015767711796500,11.14279638671875,-0.93865966796875,-0.1855316162109375,-0.0292205810546875
1751015767721739500,11.152739501953125,-0.9309844970703125,-0.2055816650390625,-0.014068603515625
1751015767731682600,11.1626826171875,-0.9072265625,-0.2312164306640625,0.0012359619140625
1751015767741625600,11.17262548828125,-0.88934326171875,-0.2510223388671875,0.01190185546875
1751015767751568600,11.182568603515625,-0.8795013427734375,-0.271392822265625,0.015899658203125
1751015767761511700,11.19251171875,-0.8497161865234375,-0.2968292236328125,0.017791748046875
1751015767771454500,11.202454345703124,-0.8026123046875,-0.3226776123046875,0.014404296875
1751015767781397500,11.2123974609375,-0.7707366943359375,-0.344146728515625,0.01983642578125
1751015767791340500,11.222340576171876,-0.759002685546875,-0.355621337890625,0.0195159912109375
1751015767801283600,11.23228369140625,-0.7428436279296875,-0.361968994140625,0.0117340087890625
1751015767811226600,11.2422265625,-0.7155914306640625,-0.3584136962890625,-0.0072021484375
1751015767821169700,11.252169677734376,-0.6868438720703125,-0.352203369140625,-0.02801513671875
1751015767831112700,11.26211279296875,-0.6849822998046875,-0.341949462890625,-0.03369140625
1751015767841055700,11.2720556640625,-0.693389892578125,-0.32550048828125,-0.048797607421875
1751015767850998500,11.28199853515625,-0.68206787109375,-0.315673828125,-0.0666046142578125
1751015767860941600,11.291941650390624,-0.6644744873046875,-0.323760986328125,-0.0852813720703125
1751015767870884600,11.301884521484375,-0.6515655517578125,-0.332794189453125,-0.1024627685546875
1751015767880827600,11.31182763671875,-0.647369384765625,-0.3311920166015625,-0.1112823486328125
1751015767890770700,11.321770751953125,-0.6601409912109375,-0.3258514404296875,-0.1116485595703125
1751015767900713700,11.331713623046875,-0.6852569580078125,-0.334075927734375,-0.101470947265625
1751015767910656500,11.341656494140626,-0.688446044921875,-0.359619140625,-0.077911376953125
1751015767920599600,11.351599609375,-0.7085723876953125,-0.35699462890625,-0.027374267578125
1751015767930542600,11.36154248046875,-0.767730712890625,-0.3290252685546875,0.040374755859375
1751015767940485400,11.3714853515625,-0.7988433837890625,-0.306671142578125,0.0869598388671875
1751015767950428400,11.381428466796875,-0.78533935546875,-0.307647705078125,0.0909271240234375
1751015767960371500,11.391371337890625,-0.791412353515625,-0.3125,0.070159912109375
1751015767970314500,11.401314453125,-0.84173583984375,-0.3148956298828125,0.0651092529296875
1751015767980257500,11.411257568359375,-0.895050048828125,-0.3234710693359375,0.0541839599609375
1751015767990200600,11.42120068359375,-0.947845458984375,-0.304443359375,0.0370330810546875
1751015768000143600,11.4311435546875,-0.9790191650390625,-0.2729339599609375,0.0139312744140625
1751015768010086700,11.441086669921875,-0.9716033935546875,-0.254364013671875,-0.0282745361328125
1751015768020029400,11.451029541015625,-0.942840576171875,-0.235809326171875,-0.0778350830078125
1751015768029972500,11.460972412109374,-0.929840087890625,-0.20904541015625,-0.1138916015625
1751015768039915500,11.47091552734375,-0.92041015625,-0.1901702880859375,-0.1373748779296875
1751015768049858600,11.480858642578125,-0.9080810546875,-0.1930389404296875,-0.149932861328125
1751015768059801600,11.490801513671874,-0.9046630859375,-0.2103729248046875,-0.1634979248046875
1751015768069744600,11.50074462890625,-0.8924102783203125,-0.221588134765625,-0.1868743896484375
1751015768079687700,11.510687744140625,-0.8702392578125,-0.23004150390625,-0.2077789306640625
1751015768089630700,11.520630615234374,-0.8685455322265625,-0.247894287109375,-0.2309112548828125
1751015768099573500,11.530573486328125,-0.8823089599609375,-0.27117919921875,-0.2373809814453125
1751015768109516500,11.5405166015625,-0.892303466796875,-0.3084259033203125,-0.219818115234375
1751015768119459600,11.55045947265625,-0.9050750732421875,-0.358428955078125,-0.1737060546875
1751015768129402600,11.560402587890625,-0.9058074951171875,-0.4120330810546875,-0.118438720703125
1751015768139345700,11.570345703125,-0.8925018310546875,-0.442626953125,-0.071502685546875
1751015768149288700,11.580288818359374,-0.8821868896484375,-0.4447479248046875,-0.031707763671875
1751015768159231700,11.590231689453125,-0.8843841552734375,-0.4253082275390625,0.00885009765625
1751015768169174800,11.6001748046875,-0.869354248046875,-0.4026947021484375,0.044677734375
1751015768179117600,11.61011767578125,-0.83819580078125,-0.3499755859375,0.0455474853515625
1751015768189060400,11.620060302734375,-0.8262176513671875,-0.2505035400390625,0.0171051025390625
1751015768199003400,11.63000341796875,-0.859130859375,-0.1278533935546875,-0.00238037109375
1751015768208946400,11.639946533203124,-0.901123046875,-0.02899169921875,-0.0306396484375
1751015768218889500,11.649889404296875,-0.94769287109375,0.039337158203125,-0.077880859375
1751015768228832500,11.65983251953125,-1.017364501953125,0.0886993408203125,-0.1118927001953125
1751015768238775600,11.669775634765625,-1.0267486572265625,0.1027679443359375,-0.168792724609375
1751015768248718600,11.679718505859375,-1.03948974609375,0.0976104736328125,-0.253997802734375
1751015768258661600,11.68966162109375,-1.094970703125,0.082733154296875,-0.298828125
1751015768268604400,11.6996044921875,-1.1483001708984375,0.0608367919921875,-0.3287353515625
1751015768278547500,11.70954736328125,-1.1912384033203125,0.057830810546875,-0.358306884765625
1751015768288490500,11.719490478515626,-1.2415313720703125,0.0813140869140625,-0.3563385009765625
1751015768298433500,11.72943359375,-1.2803497314453125,0.1026458740234375,-0.325531005859375
1751015768308376600,11.73937646484375,-1.290740966796875,0.1082611083984375,-0.3102569580078125
1751015768318319600,11.749319580078126,-1.3070068359375,0.1179046630859375,-0.31195068359375
1751015768328262700,11.7592626953125,-1.3273162841796875,0.13616943359375,-0.3120880126953125
1751015768338205700,11.769205810546875,-1.33648681640625,0.145538330078125,-0.325531005859375
1751015768348148500,11.7791484375,-1.3466949462890625,0.1544952392578125,-0.3326416015625
1751015768358091500,11.789091552734375,-1.34832763671875,0.1712493896484375,-0.3267364501953125
1751015768368034600,11.79903466796875,-1.340576171875,0.191558837890625,-0.31439208984375
1751015768377977600,11.8089775390625,-1.3150634765625,0.209564208984375,-0.311431884765625
1751015768387920600,11.818920654296875,-1.2919464111328125,0.2277984619140625,-0.2921905517578125
1751015768397863700,11.82886376953125,-1.2577056884765625,0.2242889404296875,-0.2454986572265625
1751015768407806700,11.838806640625,-1.2006072998046875,0.203399658203125,-0.177764892578125
1751015768417749800,11.848749755859375,-1.13348388671875,0.1786041259765625,-0.110595703125
1751015768427692500,11.858692626953125,-1.0716552734375,0.1483612060546875,-0.044952392578125
1751015768437635600,11.868635498046874,-1.0352935791015625,0.1087799072265625,0.016693115234375
1751015768447578600,11.87857861328125,-1.041351318359375,0.0662078857421875,0.0504302978515625
1751015768457521700,11.888521728515625,-1.0466156005859375,0.0391845703125,0.0871429443359375
1751015768467464700,11.898464599609374,-1.0287017822265625,0.020843505859375,0.11846923828125
1751015768477407500,11.908407470703125,-1.0079498291015625,-0.0012969970703125,0.1280975341796875
1751015768487350500,11.9183505859375,-0.9890899658203125,-0.018646240234375,0.111358642578125
1751015768497293600,11.92829345703125,-0.972686767578125,-0.0280609130859375,0.0761566162109375
1751015768507236600,11.938236572265625,-0.9687042236328125,-0.0294647216796875,0.04608154296875
1751015768517179400,11.948179443359376,-0.9623870849609375,-0.0286865234375,0.021942138671875
1751015768527122400,11.958122314453124,-0.9508819580078125,-0.020263671875,0.0054931640625
1751015768537065500,11.9680654296875,-0.9390106201171875,-0.0125274658203125,-0.0013885498046875
1751015768547008500,11.978008544921876,-0.934539794921875,-0.01275634765625,-0.005126953125
1751015768556951600,11.98795166015625,-0.9427337646484375,-0.02130126953125,-0.0179595947265625
1751015768566894600,11.99789453125,-0.946441650390625,-0.026214599609375,-0.0196380615234375
1751015768576837600,12.007837646484376,-0.9449005126953125,-0.03607177734375,-0.02569580078125
1751015768586780700,12.01778076171875,-0.9375,-0.04949951171875,-0.027984619140625
1751015768596723500,12.027723388671875,-0.9226531982421875,-0.0552978515625,-0.020111083984375
1751015768606666500,12.03766650390625,-0.9104156494140625,-0.0566558837890625,-0.0072174072265625
1751015768616609500,12.047609619140625,-0.9017333984375,-0.057098388671875,0.0074005126953125
1751015768626552600,12.057552490234375,-0.891571044921875,-0.06439208984375,0.0157012939453125
1751015768636495600,12.06749560546875,-0.87933349609375,-0.0782470703125,0.0199737548828125
1751015768646438700,12.077438720703125,-0.862945556640625,-0.0913238525390625,0.0211181640625
1751015768656382500,12.087382568359375,-0.85186767578125,-0.0984649658203125,0.02496337890625
1751015768666325500,12.097325439453124,-0.8583831787109375,-0.109588623046875,0.0387725830078125
1751015768676268500,12.1072685546875,-0.86627197265625,-0.1284637451171875,0.0485687255859375
1751015768686211600,12.117211669921875,-0.8726654052734375,-0.1409759521484375,0.05078125
1751015768696154600,12.127154541015624,-0.8932952880859375,-0.147674560546875,0.0262451171875
1751015768706097700,12.13709765625,-0.946319580078125,-0.153472900390625,0.0340576171875
1751015768716040700,12.147040771484376,-1.050018310546875,-0.1419677734375,0.0581817626953125
1751015768725983700,12.156983642578124,-1.2093048095703125,-0.110870361328125,0.0712738037109375
1751015768735926500,12.166926513671875,-1.381500244140625,-0.076141357421875,0.0854339599609375
1751015768745869600,12.17686962890625,-1.47650146484375,-0.0425567626953125,0.040435791015625
1751015768755812600,12.1868125,-1.521514892578125,0.0087738037109375,-0.0766143798828125
1751015768765755600,12.196755615234375,-1.558868408203125,0.1006622314453125,-0.2078704833984375
1751015768775698700,12.20669873046875,-1.537261962890625,0.1901397705078125,-0.316558837890625
1751015768785641700,12.216641845703125,-1.50347900390625,0.2562255859375,-0.3900299072265625
1751015768795584800,12.226584716796875,-1.463836669921875,0.2908172607421875,-0.43096923828125
1751015768805527800,12.23652783203125,-1.42913818359375,0.2999267578125,-0.4316253662109375
1751015768815470600,12.246470703125,-1.40032958984375,0.2967529296875,-0.3866424560546875
1751015768825413600,12.25641357421875,-1.389434814453125,0.281829833984375,-0.315277099609375
1751015768835356700,12.266356689453126,-1.3771209716796875,0.2574615478515625,-0.2698822021484375
1751015768845299700,12.2762998046875,-1.34124755859375,0.232330322265625,-0.2545318603515625
1751015768855242800,12.28624267578125,-1.3043975830078125,0.204376220703125,-0.2631072998046875
1751015768865185800,12.296185791015626,-1.2752227783203125,0.174072265625,-0.276519775390625
1751015768875128800,12.30612890625,-1.2506256103515625,0.149017333984375,-0.2794647216796875
1751015768885072000,12.31607177734375,-1.2290496826171875,0.1331329345703125,-0.2783203125
1751015768895013600,12.326013671875,-1.2089080810546875,0.1197967529296875,-0.2745361328125
1751015768904956700,12.335956787109374,-1.1974639892578125,0.1112060546875,-0.2677001953125
1751015768914899700,12.345899658203125,-1.203369140625,0.118377685546875,-0.2862091064453125
1751015768924843500,12.355843505859376,-1.1932373046875,0.152130126953125,-0.295745849609375
1751015768934785500,12.36578564453125,-1.162322998046875,0.1856536865234375,-0.284912109375
1751015768944728600,12.375728515625,-1.140625,0.2131805419921875,-0.2591552734375
1751015768954671600,12.385671630859376,-1.126129150390625,0.2322845458984375,-0.2524261474609375
1751015768964614700,12.39561474609375,-1.1108245849609375,0.2436981201171875,-0.2684173583984375
1751015768974557700,12.4055576171875,-1.0939483642578125,0.2523345947265625,-0.292022705078125
1751015768984500700,12.415500732421876,-1.0644989013671875,0.2564849853515625,-0.3160247802734375
1751015768994443800,12.42544384765625,-1.02972412109375,0.252410888671875,-0.3274078369140625
1751015769004386600,12.435386474609375,-1.001251220703125,0.2424163818359375,-0.318634033203125
1751015769014329600,12.44532958984375,-0.968414306640625,0.220916748046875,-0.2898101806640625
1751015769024272600,12.455272705078125,-0.92047119140625,0.190948486328125,-0.25439453125
1751015769034215700,12.465215576171875,-0.877227783203125,0.160400390625,-0.2237091064453125
1751015769044158700,12.47515869140625,-0.83837890625,0.13262939453125,-0.2039947509765625
1751015769054101800,12.485101806640625,-0.7942657470703125,0.1034393310546875,-0.1909332275390625
1751015769064044800,12.495044921875,-0.7502593994140625,0.0736083984375,-0.181976318359375
1751015769073987800,12.50498779296875,-0.7087249755859375,0.0501556396484375,-0.174591064453125
1751015769083930600,12.5149306640625,-0.67254638671875,0.0294647216796875,-0.162933349609375
1751015769093873700,12.524873779296875,-0.6307525634765625,0.00921630859375,-0.1415252685546875
1751015769103816700,12.534816650390624,-0.59271240234375,-0.0084075927734375,-0.1178741455078125
1751015769113759700,12.544759765625,-0.5667266845703125,-0.0183258056640625,-0.0916290283203125
1751015769123702800,12.554702880859375,-0.5487518310546875,-0.024749755859375,-0.0689239501953125
1751015769133645600,12.5646455078125,-0.5368804931640625,-0.03167724609375,-0.0524444580078125
1751015769143588600,12.574588623046875,-0.5342864990234375,-0.0393524169921875,-0.042449951171875
1751015769153531600,12.58453173828125,-0.541290283203125,-0.044952392578125,-0.039642333984375
1751015769163474400,12.594474365234374,-0.55078125,-0.0537872314453125,-0.0443572998046875
1751015769173417500,12.60441748046875,-0.5569915771484375,-0.066253662109375,-0.0481109619140625
1751015769183360500,12.614360595703126,-0.5750885009765625,-0.078094482421875,-0.0517730712890625
1751015769193303600,12.624303466796874,-0.6067352294921875,-0.08441162109375,-0.0595703125
1751015769203246600,12.63424658203125,-0.64569091796875,-0.08819580078125,-0.06939697265625
1751015769213189600,12.644189697265626,-0.696197509765625,-0.0894775390625,-0.0836334228515625
1751015769223132700,12.654132568359374,-0.7637481689453125,-0.0882415771484375,-0.0997772216796875
1751015769233075700,12.66407568359375,-0.8477325439453125,-0.0984039306640625,-0.1098480224609375
1751015769243018800,12.674018798828126,-0.9258575439453125,-0.11907958984375,-0.1262664794921875
1751015769252961500,12.68396142578125,-0.9884796142578125,-0.1483917236328125,-0.1430816650390625
1751015769262904600,12.693904541015625,-1.0483551025390625,-0.1816558837890625,-0.157379150390625
1751015769272847600,12.70384765625,-1.11737060546875,-0.195159912109375,-0.1796112060546875
1751015769282790700,12.713790771484375,-1.181243896484375,-0.1780548095703125,-0.1934661865234375
1751015769292733700,12.723733642578125,-1.2366485595703125,-0.1440277099609375,-0.185089111328125
1751015769302676700,12.7336767578125,-1.2312469482421875,-0.0780792236328125,-0.16754150390625
1751015769312619800,12.743619873046875,-1.1936798095703125,-0.0185089111328125,-0.1686859130859375
1751015769322562800,12.753562744140625,-1.194000244140625,0.0185546875,-0.17510986328125
1751015769332505600,12.763505615234376,-1.2058258056640625,0.043975830078125,-0.1847381591796875
1751015769342448600,12.77344873046875,-1.222259521484375,0.0637969970703125,-0.184051513671875
1751015769352391700,12.7833916015625,-1.274658203125,0.08746337890625,-0.16302490234375
1751015769362334700,12.793334716796876,-1.33245849609375,0.1128082275390625,-0.1461029052734375
1751015769372277800,12.80327783203125,-1.3550262451171875,0.1396484375,-0.143280029296875
1751015769382220800,12.813220703125,-1.364105224609375,0.1725311279296875,-0.15185546875
1751015769392163800,12.823163818359374,-1.367645263671875,0.1933746337890625,-0.17315673828125
1751015769402107000,12.83310693359375,-1.3623809814453125,0.1909027099609375,-0.1945648193359375
1751015769412049400,12.84304931640625,-1.357269287109375,0.1711578369140625,-0.212432861328125
