time,seconds_elapsed,z,y,x
1751015577373535700,0.11753564453125,-0.9931793212890625,-0.1046905517578125,0.009613037109375
1751015577383478800,0.127478759765625,-1.005096435546875,-0.105743408203125,0.0168609619140625
1751015577393421800,0.137421875,-1.0175933837890625,-0.117919921875,0.0245361328125
1751015577403364900,0.14736474609375,-1.016571044921875,-0.1295013427734375,0.0306549072265625
1751015577413308000,0.157307861328125,-1.0208587646484375,-0.1313323974609375,0.0305938720703125
1751015577423251000,0.1672509765625,-1.0258331298828125,-0.1252288818359375,0.0276641845703125
1751015577433194000,0.177194091796875,-1.0256805419921875,-0.1224822998046875,0.0185089111328125
1751015577443137800,0.1871376953125,-1.03466796875,-0.118896484375,0.011505126953125
1751015577453080800,0.197080810546875,-1.05059814453125,-0.109954833984375,0.0034942626953125
1751015577463024400,0.2070244140625,-1.0538787841796875,-0.10638427734375,-0.014495849609375
1751015577472967400,0.216967529296875,-1.0418243408203125,-0.1085357666015625,-0.0275726318359375
1751015577482910500,0.226910400390625,-1.0240020751953125,-0.1167449951171875,-0.0339202880859375
1751015577492853500,0.236853515625,-1.013031005859375,-0.13116455078125,-0.03466796875
1751015577502797300,0.24679736328125,-1.0074920654296875,-0.1441650390625,-0.0315704345703125
1751015577512740400,0.256740234375,-0.995758056640625,-0.15496826171875,-0.027313232421875
1751015577522683400,0.266683349609375,-0.98468017578125,-0.158172607421875,-0.0223541259765625
1751015577532626400,0.27662646484375,-0.9908599853515625,-0.13201904296875,-0.0003662109375
1751015577542569500,0.286569580078125,-1.0293121337890625,-0.1158599853515625,0.0101318359375
1751015577552512500,0.296512451171875,-1.0189361572265625,-0.1320343017578125,-0.0235748291015625
1751015577562455300,0.306455322265625,-0.9969482421875,-0.1325836181640625,-0.0310516357421875
1751015577572399400,0.3163994140625,-0.9826507568359375,-0.1414031982421875,-0.028839111328125
1751015577582342400,0.32634228515625,-1.0152435302734375,-0.0948028564453125,-0.0492401123046875
1751015577592285400,0.336285400390625,-1.1093902587890625,-0.0058441162109375,-0.034881591796875
1751015577602228500,0.346228515625,-0.995086669921875,-0.1195068359375,0.00970458984375
1751015577612171500,0.356171630859375,-0.9543609619140625,-0.20208740234375,-0.0217437744140625
1751015577622114300,0.3661142578125,-0.943939208984375,-0.18756103515625,-0.069091796875
1751015577632058400,0.376058349609375,-0.9535675048828125,-0.122467041015625,-0.0992584228515625
1751015577642001400,0.38600146484375,-0.9734649658203125,-0.07525634765625,-0.0963592529296875
1751015577651944400,0.3959443359375,-0.9760589599609375,-0.069488525390625,-0.0850982666015625
1751015577661887500,0.405887451171875,-0.9761199951171875,-0.0860748291015625,-0.0789947509765625
1751015577671830500,0.41583056640625,-0.970703125,-0.1040191650390625,-0.0844268798828125
1751015577681773300,0.425773193359375,-0.966217041015625,-0.10943603515625,-0.0955657958984375
1751015577691716400,0.43571630859375,-0.9692230224609375,-0.100860595703125,-0.0961151123046875
1751015577701660400,0.445660400390625,-0.983673095703125,-0.0956878662109375,-0.0854644775390625
1751015577711603500,0.455603515625,-0.994598388671875,-0.0943450927734375,-0.0794525146484375
1751015577721546500,0.46554638671875,-0.995208740234375,-0.0995025634765625,-0.0851898193359375
1751015577731489500,0.475489501953125,-0.9961395263671875,-0.1067657470703125,-0.0765533447265625
1751015577741432300,0.485432373046875,-1.010498046875,-0.1075592041015625,-0.083831787109375
1751015577751375400,0.495375244140625,-1.0137939453125,-0.111297607421875,-0.0937347412109375
1751015577761319400,0.5053193359375,-1.0114593505859375,-0.127410888671875,-0.0854949951171875
1751015577771262500,0.515262451171875,-1.01251220703125,-0.1527252197265625,-0.078216552734375
1751015577781205500,0.52520556640625,-1.0197906494140625,-0.1515045166015625,-0.077239990234375
1751015577791148500,0.5351484375,-1.01422119140625,-0.12713623046875,-0.0732421875
1751015577801091300,0.54509130859375,-1.0019073486328125,-0.1179656982421875,-0.070831298828125
1751015577811034400,0.555034423828125,-0.994903564453125,-0.120697021484375,-0.0691375732421875
1751015577820978400,0.564978515625,-0.989654541015625,-0.126373291015625,-0.0732574462890625
1751015577830921500,0.57492138671875,-0.9826812744140625,-0.1273651123046875,-0.0753936767578125
1751015577840864500,0.584864501953125,-0.97589111328125,-0.128021240234375,-0.0765838623046875
1751015577850807600,0.5948076171875,-0.9686431884765625,-0.1326446533203125,-0.0793609619140625
1751015577860750300,0.604750244140625,-0.9584197998046875,-0.1376190185546875,-0.0775299072265625
1751015577870693400,0.614693359375,-0.9493560791015625,-0.144317626953125,-0.07476806640625
1751015577880636400,0.624636474609375,-0.936737060546875,-0.160552978515625,-0.08734130859375
1751015577890580500,0.63458056640625,-0.922882080078125,-0.16802978515625,-0.0661468505859375
1751015577900523500,0.6445234375,-0.9338836669921875,-0.15960693359375,-0.0446929931640625
1751015577910466600,0.654466552734375,-0.9439544677734375,-0.151702880859375,-0.0467376708984375
1751015577920409300,0.664409423828125,-0.9387054443359375,-0.1556396484375,-0.0520172119140625
1751015577930352400,0.674352294921875,-0.9261016845703125,-0.1642303466796875,-0.0500640869140625
1751015577940295400,0.68429541015625,-0.93536376953125,-0.165863037109375,-0.045379638671875
1751015577950239500,0.694239501953125,-0.9544525146484375,-0.16162109375,-0.0480804443359375
1751015577960182500,0.7041826171875,-0.9583892822265625,-0.158843994140625,-0.0569000244140625
1751015577970125300,0.714125244140625,-0.9536285400390625,-0.1566314697265625,-0.0613555908203125
1751015577980068400,0.724068359375,-0.955047607421875,-0.152679443359375,-0.06707763671875
1751015577990011400,0.734011474609375,-0.9584503173828125,-0.1470184326171875,-0.071685791015625
1751015577999954400,0.743954345703125,-0.9568939208984375,-0.14215087890625,-0.0780792236328125
1751015578009898500,0.7538984375,-0.9586639404296875,-0.135955810546875,-0.08184814453125
1751015578019841500,0.763841552734375,-0.9700927734375,-0.1303863525390625,-0.075042724609375
1751015578029784300,0.773784423828125,-0.9855194091796875,-0.1251220703125,-0.060394287109375
1751015578039727400,0.783727294921875,-0.998626708984375,-0.12225341796875,-0.0503997802734375
1751015578049670400,0.79367041015625,-1.00439453125,-0.1280517578125,-0.058135986328125
1751015578059613400,0.803613525390625,-1.00640869140625,-0.1383819580078125,-0.066986083984375
1751015578069556500,0.813556396484375,-1.0012969970703125,-0.1448211669921875,-0.0627288818359375
1751015578079500500,0.82350048828125,-0.9987640380859375,-0.1456298828125,-0.0549163818359375
1751015578089443300,0.833443359375,-1.0037384033203125,-0.1484832763671875,-0.05389404296875
1751015578099386400,0.843386474609375,-1.00152587890625,-0.155792236328125,-0.05419921875
1751015578109329400,0.853329345703125,-0.9976043701171875,-0.16436767578125,-0.059326171875
1751015578119272400,0.8632724609375,-1.0021209716796875,-0.1735992431640625,-0.0687713623046875
1751015578129215500,0.873215576171875,-1.0025177001953125,-0.17437744140625,-0.074462890625
1751015578139159600,0.88315966796875,-1.0021514892578125,-0.172698974609375,-0.0735321044921875
1751015578149102300,0.893102294921875,-1.0017547607421875,-0.1726837158203125,-0.0688018798828125
1751015578159045400,0.90304541015625,-1.0054779052734375,-0.173980712890625,-0.0623626708984375
1751015578168988400,0.912988525390625,-1.0086822509765625,-0.1718597412109375,-0.0549468994140625
1751015578178931500,0.922931396484375,-1.012725830078125,-0.1661529541015625,-0.050262451171875
1751015578188874500,0.93287451171875,-1.0229034423828125,-0.1617279052734375,-0.05316162109375
1751015578198818600,0.942818603515625,-1.0344085693359375,-0.1567535400390625,-0.0599822998046875
1751015578208761300,0.95276123046875,-1.0409088134765625,-0.1530303955078125,-0.0662841796875
1751015578218704400,0.962704345703125,-1.05462646484375,-0.14892578125,-0.073211669921875
1751015578228647400,0.9726474609375,-1.0751495361328125,-0.144805908203125,-0.075042724609375
1751015578238590500,0.982590576171875,-1.09954833984375,-0.1414642333984375,-0.07672119140625
1751015578248533500,0.992533447265625,-1.1228179931640625,-0.1389617919921875,-0.077484130859375
1751015578258476500,1.0024765625,-1.1341705322265625,-0.142608642578125,-0.0743255615234375
1751015578268420400,1.01242041015625,-1.13470458984375,-0.1508331298828125,-0.074066162109375
1751015578278363400,1.02236328125,-1.13787841796875,-0.1563262939453125,-0.0788726806640625
1751015578288306400,1.032306396484375,-1.149444580078125,-0.15716552734375,-0.08343505859375
1751015578298249500,1.04224951171875,-1.1639862060546875,-0.156158447265625,-0.086700439453125
1751015578308192500,1.052192626953125,-1.1707305908203125,-0.1556854248046875,-0.08587646484375
1751015578318135600,1.062135498046875,-1.1746826171875,-0.154327392578125,-0.0878143310546875
1751015578328079400,1.072079345703125,-1.1745147705078125,-0.1543426513671875,-0.0927581787109375
1751015578338022400,1.0820224609375,-1.16180419921875,-0.1571807861328125,-0.0949859619140625
1751015578347965400,1.09196533203125,-1.151702880859375,-0.1616973876953125,-0.0866851806640625
1751015578357908500,1.101908447265625,-1.15728759765625,-0.15618896484375,-0.0731353759765625
1751015578367851500,1.1118515625,-1.16485595703125,-0.1470489501953125,-0.057037353515625
1751015578377794600,1.121794677734375,-1.167938232421875,-0.1444091796875,-0.044769287109375
1751015578387738400,1.13173828125,-1.170867919921875,-0.13934326171875,-0.039306640625
1751015578397681400,1.141681396484375,-1.202484130859375,-0.1195526123046875,-0.0472869873046875
1751015578407624400,1.15162451171875,-1.27081298828125,-0.0879669189453125,-0.0516357421875
1751015578417567500,1.1615673828125,-1.3382720947265625,-0.0492095947265625,-0.0345001220703125
1751015578427510500,1.171510498046875,-1.35870361328125,-0.0118255615234375,-0.0222625732421875
1751015578437453600,1.18145361328125,-1.3285064697265625,0.0219268798828125,-0.038543701171875
1751015578447397400,1.1913974609375,-1.276824951171875,0.0453338623046875,-0.07025146484375
1751015578457340400,1.20134033203125,-1.213531494140625,0.05364990234375,-0.1033477783203125
1751015578467279000,1.211279052734375,-1.139739990234375,0.0555877685546875,-0.1278533935546875
1751015578477222100,1.22122216796875,-1.0596160888671875,0.0593414306640625,-0.1432037353515625
1751015578487165200,1.231165283203125,-0.9877471923828125,0.0565948486328125,-0.142486572265625
1751015578497108200,1.241108154296875,-0.9346466064453125,0.0454254150390625,-0.12359619140625
1751015578507052300,1.25105224609375,-0.898651123046875,0.02313232421875,-0.0867156982421875
1751015578516995000,1.2609951171875,-0.8734588623046875,-0.0030364990234375,-0.0478973388671875
1751015578526938000,1.270938232421875,-0.862518310546875,-0.022796630859375,-0.0039825439453125
1751015578536881200,1.280881103515625,-0.8501739501953125,-0.04296875,0.02667236328125
1751015578546824200,1.29082421875,-0.8465423583984375,-0.06890869140625,0.0474853515625
1751015578556767200,1.300767333984375,-0.8535614013671875,-0.090972900390625,0.0666046142578125
1751015578566711300,1.310711181640625,-0.8679962158203125,-0.105621337890625,0.0860137939453125
1751015578576654000,1.320654052734375,-0.8790283203125,-0.1210174560546875,0.1029510498046875
1751015578586597000,1.33059716796875,-0.8831329345703125,-0.1337432861328125,0.1068267822265625
1751015578596540200,1.3405400390625,-0.8842926025390625,-0.141845703125,0.10736083984375
1751015578606483200,1.350483154296875,-0.8937835693359375,-0.149139404296875,0.1123504638671875
1751015578616426200,1.36042626953125,-0.9051055908203125,-0.1552276611328125,0.1212005615234375
1751015578626369300,1.370369384765625,-0.9192962646484375,-0.1595916748046875,0.1241912841796875
1751015578636313000,1.38031298828125,-0.9290771484375,-0.153472900390625,0.1258544921875
1751015578646256000,1.390256103515625,-0.94195556640625,-0.1358642578125,0.123565673828125
1751015578656199200,1.40019921875,-0.9511871337890625,-0.1157989501953125,0.1165008544921875
1751015578666142200,1.41014208984375,-0.949127197265625,-0.1048736572265625,0.102874755859375
1751015578676085200,1.420085205078125,-0.9387969970703125,-0.09893798828125,0.0826416015625
1751015578686028300,1.4300283203125,-0.9335784912109375,-0.0946197509765625,0.0674285888671875
1751015578695972000,1.43997216796875,-0.92218017578125,-0.0908660888671875,0.0614166259765625
1751015578705915100,1.4499150390625,-0.9067535400390625,-0.0909881591796875,0.0582733154296875
1751015578715858200,1.459858154296875,-0.8917694091796875,-0.0960693359375,0.04547119140625
1751015578725801200,1.46980126953125,-0.8811798095703125,-0.1046295166015625,0.032867431640625
1751015578735744300,1.479744140625,-0.8768157958984375,-0.111053466796875,0.033294677734375
1751015578745687300,1.489687255859375,-0.8812103271484375,-0.12103271484375,0.0389404296875
1751015578755631000,1.499631103515625,-0.89373779296875,-0.132476806640625,0.0438690185546875
1751015578765574100,1.50957421875,-0.9056854248046875,-0.14105224609375,0.04156494140625
1751015578775517200,1.51951708984375,-0.91180419921875,-0.150543212890625,0.0355377197265625
1751015578785460200,1.529460205078125,-0.914154052734375,-0.159423828125,0.0311279296875
1751015578795403300,1.5394033203125,-0.917449951171875,-0.17083740234375,0.022796630859375
1751015578805346300,1.54934619140625,-0.9169769287109375,-0.1800537109375,0.0140228271484375
1751015578815290000,1.5592900390625,-0.916534423828125,-0.192230224609375,0.010955810546875
1751015578825233200,1.569233154296875,-0.9179534912109375,-0.2043304443359375,0.0108795166015625
1751015578835176200,1.57917626953125,-0.9256591796875,-0.2140350341796875,0.007904052734375
1751015578845119200,1.589119140625,-0.9404296875,-0.2205810546875,0.008758544921875
1751015578855062300,1.599062255859375,-0.9554443359375,-0.22625732421875,0.0093231201171875
1751015578865005300,1.60900537109375,-0.968841552734375,-0.2266387939453125,0.00628662109375
1751015578874949000,1.61894921875,-0.9755859375,-0.2219085693359375,-0.0023651123046875
1751015578884892200,1.62889208984375,-0.9737548828125,-0.222198486328125,-0.010772705078125
1751015578894835200,1.638835205078125,-0.9610443115234375,-0.2358245849609375,-0.01507568359375
1751015578904778200,1.6487783203125,-0.9555816650390625,-0.2433624267578125,-0.009246826171875
1751015578914721300,1.65872119140625,-0.971527099609375,-0.2404327392578125,0.000823974609375
1751015578924664300,1.668664306640625,-0.98980712890625,-0.2326812744140625,0.0159759521484375
1751015578934608100,1.678608154296875,-1.006195068359375,-0.2067413330078125,0.0346527099609375
1751015578944551200,1.68855126953125,-1.0018768310546875,-0.2051239013671875,0.0597991943359375
1751015578954494200,1.698494140625,-1.020050048828125,-0.207733154296875,0.076324462890625
1751015578964437200,1.708437255859375,-1.097930908203125,-0.196502685546875,0.091522216796875
1751015578974380300,1.71838037109375,-1.16229248046875,-0.1688690185546875,0.0990142822265625
1751015578984323300,1.7283232421875,-1.2030487060546875,-0.1434173583984375,0.092926025390625
1751015578994267100,1.73826708984375,-1.185943603515625,-0.13397216796875,0.0724334716796875
1751015579004210200,1.748210205078125,-1.143218994140625,-0.115936279296875,0.0522308349609375
1751015579014153200,1.7581533203125,-1.0735015869140625,-0.1096649169921875,0.0061492919921875
1751015579024096300,1.76809619140625,-1.1106109619140625,-0.0870208740234375,-0.0311126708984375
1751015579034039300,1.778039306640625,-1.2351837158203125,-0.07257080078125,-0.0420684814453125
1751015579043982300,1.787982421875,-1.244659423828125,-0.0800628662109375,-0.0306854248046875
1751015579053926100,1.797926025390625,-1.201385498046875,-0.095489501953125,-0.029083251953125
1751015579063869200,1.807869140625,-1.16815185546875,-0.115692138671875,-0.039215087890625
1751015579073812200,1.817812255859375,-1.168243408203125,-0.1302337646484375,-0.046722412109375
1751015579083755300,1.82775537109375,-1.184326171875,-0.127288818359375,-0.049468994140625
1751015579093698300,1.8376982421875,-1.201385498046875,-0.1188201904296875,-0.0501708984375
1751015579103641300,1.847641357421875,-1.2104034423828125,-0.1132659912109375,-0.04742431640625
1751015579113585200,1.857585205078125,-1.220550537109375,-0.1066741943359375,-0.048431396484375
1751015579123528200,1.867528076171875,-1.2471923828125,-0.0836334228515625,-0.05987548828125
1751015579133471200,1.87747119140625,-1.2742919921875,-0.046875,-0.0735931396484375
1751015579143414300,1.887414306640625,-1.2924346923828125,-0.0028533935546875,-0.098297119140625
1751015579153357300,1.897357421875,-1.271942138671875,0.033355712890625,-0.128204345703125
1751015579163300400,1.90730029296875,-1.22027587890625,0.032867431640625,-0.1837158203125
1751015579173244200,1.917244140625,-1.2333526611328125,-0.0207672119140625,-0.252044677734375
1751015579183187200,1.927187255859375,-1.158233642578125,0.041717529296875,-0.198211669921875
1751015579193130200,1.937130126953125,-1.0570068359375,0.0802764892578125,-0.1950836181640625
1751015579203073300,1.9470732421875,-0.9756622314453125,0.08648681640625,-0.165985107421875
1751015579213016300,1.957016357421875,-0.9378662109375,0.087921142578125,-0.1194610595703125
1751015579222959400,1.96695947265625,-0.9087371826171875,0.07733154296875,-0.065155029296875
1751015579232903200,1.976903076171875,-0.917388916015625,0.033843994140625,-0.0662078857421875
1751015579242846200,1.98684619140625,-0.9529876708984375,-0.0294342041015625,-0.0819244384765625
1751015579252789200,1.996789306640625,-0.940826416015625,-0.068817138671875,-0.081024169921875
1751015579262732300,2.006732177734375,-0.9150848388671875,-0.08270263671875,-0.085693359375
1751015579272675300,2.01667529296875,-0.9063568115234375,-0.0913848876953125,-0.08837890625
1751015579282618400,2.026618408203125,-0.9031524658203125,-0.1043243408203125,-0.07696533203125
1751015579292562200,2.036562255859375,-0.898712158203125,-0.1119842529296875,-0.063812255859375
1751015579302505200,2.046505126953125,-0.8920745849609375,-0.1104736328125,-0.054412841796875
1751015579312448300,2.0564482421875,-0.8805084228515625,-0.1038360595703125,-0.0474700927734375
1751015579322391300,2.066391357421875,-0.8641815185546875,-0.0973358154296875,-0.040496826171875
1751015579332334300,2.076334228515625,-0.850677490234375,-0.11004638671875,-0.0182037353515625
1751015579342277400,2.08627734375,-0.850189208984375,-0.1176605224609375,-0.014617919921875
1751015579352221200,2.09622119140625,-0.8305511474609375,-0.0974273681640625,-0.0102081298828125
1751015579362164200,2.106164306640625,-0.8013458251953125,-0.0891265869140625,0.000640869140625
1751015579372107300,2.116107177734375,-0.782470703125,-0.105621337890625,0.0050506591796875
1751015579382050300,2.12605029296875,-0.780731201171875,-0.1247406005859375,0.0005645751953125
1751015579391993300,2.135993408203125,-0.783660888671875,-0.138092041015625,-0.0051116943359375
1751015579401936400,2.145936279296875,-0.7824554443359375,-0.14874267578125,-0.0126495361328125
1751015579411880200,2.155880126953125,-0.7763214111328125,-0.1600189208984375,-0.0191650390625
1751015579421823200,2.1658232421875,-0.7807159423828125,-0.1696624755859375,-0.0203857421875
1751015579431766300,2.175766357421875,-0.787872314453125,-0.1768646240234375,-0.0194549560546875
1751015579441709300,2.185709228515625,-0.7955169677734375,-0.1812744140625,-0.0167388916015625
1751015579451652400,2.19565234375,-0.7996368408203125,-0.1893157958984375,-0.0150299072265625
1751015579461595600,2.205595703125,-0.809051513671875,-0.1986083984375,-0.01953125
1751015579471539500,2.21553955078125,-0.8263092041015625,-0.1993560791015625,-0.03131103515625
1751015579481482500,2.225482421875,-0.8472900390625,-0.19305419921875,-0.0464935302734375
1751015579491425500,2.235425537109375,-0.862640380859375,-0.189422607421875,-0.0588531494140625
1751015579501368600,2.24536865234375,-0.87176513671875,-0.189971923828125,-0.071685791015625
1751015579511311600,2.2553115234375,-0.886444091796875,-0.19378662109375,-0.080108642578125
1751015579521254700,2.265254638671875,-0.91131591796875,-0.1977691650390625,-0.0822601318359375
1751015579531198500,2.275198486328125,-0.941375732421875,-0.2050933837890625,-0.0763092041015625
1751015579541141500,2.2851416015625,-0.9698333740234375,-0.2185516357421875,-0.071746826171875
1751015579551084500,2.29508447265625,-1.003692626953125,-0.2284393310546875,-0.0673828125
1751015579561027600,2.305027587890625,-1.0340118408203125,-0.232513427734375,-0.057403564453125
1751015579570970600,2.314970703125,-1.0541839599609375,-0.2351226806640625,-0.045440673828125
1751015579580913700,2.32491357421875,-1.0675201416015625,-0.239532470703125,-0.0336151123046875
1751015579590857500,2.334857421875,-1.076751708984375,-0.247833251953125,-0.0276336669921875
1751015579600800500,2.344800537109375,-1.08489990234375,-0.256866455078125,-0.0258331298828125
1751015579610743600,2.35474365234375,-1.1036834716796875,-0.25787353515625,-0.0311126708984375
1751015579620686600,2.3646865234375,-1.1264495849609375,-0.2552947998046875,-0.0322265625
1751015579630629600,2.374629638671875,-1.1487274169921875,-0.251251220703125,-0.02923583984375
1751015579640573400,2.384573486328125,-1.1681976318359375,-0.2468414306640625,-0.015838623046875
1751015579650516500,2.3945166015625,-1.182281494140625,-0.2313995361328125,-0.00433349609375
1751015579660459500,2.40445947265625,-1.185516357421875,-0.2169342041015625,-0.002960205078125
1751015579670402600,2.414402587890625,-1.1819915771484375,-0.217071533203125,-0.0025787353515625
1751015579680345600,2.424345703125,-1.1726226806640625,-0.229095458984375,-0.003875732421875
1751015579690288600,2.43428857421875,-1.164794921875,-0.2347259521484375,-0.0059356689453125
1751015579700232400,2.444232421875,-1.1598358154296875,-0.225494384765625,-0.00933837890625
1751015579710175500,2.454175537109375,-1.157623291015625,-0.217987060546875,-0.005828857421875
1751015579720118500,2.464118408203125,-1.167144775390625,-0.222686767578125,0.009613037109375
1751015579730061600,2.4740615234375,-1.1950836181640625,-0.217010498046875,0.0306854248046875
1751015579740004600,2.484004638671875,-1.22052001953125,-0.19219970703125,0.0453338623046875
1751015579749947600,2.49394775390625,-1.22552490234375,-0.1685791015625,0.0511932373046875
1751015579759891500,2.503891357421875,-1.2231597900390625,-0.1521148681640625,0.0583648681640625
1751015579769834500,2.51383447265625,-1.2174224853515625,-0.133087158203125,0.068878173828125
1751015579779777500,2.523777587890625,-1.2014923095703125,-0.1042022705078125,0.077667236328125
1751015579789720600,2.533720458984375,-1.1727294921875,-0.0792388916015625,0.077301025390625
1751015579799663600,2.54366357421875,-1.134918212890625,-0.0747528076171875,0.0666656494140625
1751015579809606700,2.553606689453125,-1.105712890625,-0.0783538818359375,0.0490264892578125
1751015579819550500,2.563550537109375,-1.0889129638671875,-0.082122802734375,0.03887939453125
1751015579829493500,2.573493408203125,-1.07379150390625,-0.0926361083984375,0.0397186279296875
1751015579839436500,2.5834365234375,-1.05877685546875,-0.1133575439453125,0.0416412353515625
1751015579849379600,2.593379638671875,-1.0460968017578125,-0.132232666015625,0.0416107177734375
1751015579859322600,2.603322509765625,-1.0293121337890625,-0.138671875,0.037353515625
1751015579869265700,2.613265625,-1.0089874267578125,-0.1388092041015625,0.038238525390625
1751015579879209500,2.62320947265625,-0.9760589599609375,-0.1375274658203125,0.0424957275390625
1751015579889152500,2.633152587890625,-0.935394287109375,-0.1327972412109375,0.042022705078125
1751015579899095600,2.643095458984375,-0.8922271728515625,-0.1268768310546875,0.0394287109375
1751015579909038600,2.65303857421875,-0.8527679443359375,-0.1211090087890625,0.0320587158203125
1751015579918981600,2.662981689453125,-0.8217620849609375,-0.116943359375,0.0227813720703125
1751015579928925400,2.672925537109375,-0.7942657470703125,-0.117889404296875,0.0134124755859375
1751015579938868500,2.682868408203125,-0.763702392578125,-0.1286773681640625,0.0037689208984375
1751015579948811500,2.6928115234375,-0.734527587890625,-0.1460723876953125,-0.0055999755859375
1751015579958754600,2.702754638671875,-0.713348388671875,-0.1650238037109375,-0.0166778564453125
1751015579968697600,2.712697509765625,-0.70343017578125,-0.1816253662109375,-0.024200439453125
1751015579978640600,2.722640625,-0.7034912109375,-0.19525146484375,-0.0292205810546875
1751015579988584400,2.73258447265625,-0.71673583984375,-0.2103271484375,-0.0332794189453125
1751015579998527500,2.742527587890625,-0.736297607421875,-0.2263946533203125,-0.0289306640625
1751015580008470500,2.752470458984375,-0.751068115234375,-0.2414093017578125,-0.0229644775390625
1751015580018413600,2.76241357421875,-0.7617950439453125,-0.2519989013671875,-0.0170745849609375
1751015580028356600,2.772356689453125,-0.771026611328125,-0.2517547607421875,-0.010833740234375
1751015580038299600,2.782299560546875,-0.771697998046875,-0.2469940185546875,-0.01776123046875
1751015580048243500,2.792243408203125,-0.7662811279296875,-0.2429046630859375,-0.0334625244140625
1751015580058186500,2.8021865234375,-0.761505126953125,-0.24163818359375,-0.0478057861328125
1751015580068129500,2.812129638671875,-0.7640380859375,-0.2403717041015625,-0.0523223876953125
1751015580078072600,2.822072509765625,-0.7713470458984375,-0.243408203125,-0.0469207763671875
1751015580088015600,2.832015625,-0.783538818359375,-0.24822998046875,-0.03350830078125
1751015580097958700,2.841958740234375,-0.796630859375,-0.2510223388671875,-0.0215606689453125
1751015580107902500,2.85190234375,-0.8084869384765625,-0.250823974609375,-0.010101318359375
1751015580117845500,2.861845458984375,-0.8181304931640625,-0.251190185546875,0.0046844482421875
1751015580127788500,2.87178857421875,-0.8276214599609375,-0.25830078125,0.0079345703125
1751015580137731600,2.881731689453125,-0.851959228515625,-0.2666015625,0.0099334716796875
1751015580147674600,2.891674560546875,-0.8836669921875,-0.2734527587890625,0.0200653076171875
1751015580157617700,2.90161767578125,-0.923736572265625,-0.2823333740234375,0.0359954833984375
1751015580167561500,2.9115615234375,-0.9651031494140625,-0.2906646728515625,0.041961669921875
1751015580177504500,2.92150439453125,-1.009124755859375,-0.2909698486328125,0.04412841796875
1751015580187447600,2.931447509765625,-1.0586395263671875,-0.2804412841796875,0.0412445068359375
1751015580197390600,2.941390625,-1.1110687255859375,-0.2702484130859375,0.033966064453125
1751015580207333600,2.951333740234375,-1.162933349609375,-0.2619171142578125,0.024078369140625
1751015580217277400,2.96127734375,-1.20379638671875,-0.252410888671875,0.0111541748046875
1751015580227220500,2.971220458984375,-1.2374420166015625,-0.239898681640625,-0.006866455078125
1751015580237163500,2.98116357421875,-1.2600555419921875,-0.2318115234375,-0.03375244140625
1751015580247106600,2.9911064453125,-1.2825927734375,-0.223876953125,-0.056396484375
1751015580257049600,3.001049560546875,-1.303863525390625,-0.2145538330078125,-0.0681915283203125
1751015580266992600,3.01099267578125,-1.3265228271484375,-0.191558837890625,-0.076751708984375
1751015580276936400,3.0209365234375,-1.350555419921875,-0.1498870849609375,-0.087249755859375
1751015580286879500,3.03087939453125,-1.3561859130859375,-0.1187744140625,-0.1033782958984375
1751015580296822500,3.040822509765625,-1.3543701171875,-0.1070098876953125,-0.118255615234375
1751015580306765600,3.050765625,-1.3564453125,-0.0970306396484375,-0.12725830078125
1751015580316708600,3.06070849609375,-1.36016845703125,-0.08270263671875,-0.127716064453125
1751015580326651600,3.070651611328125,-1.3625030517578125,-0.0610504150390625,-0.1350555419921875
1751015580336595500,3.080595458984375,-1.357391357421875,-0.034027099609375,-0.153717041015625
1751015580346538500,3.09053857421875,-1.337921142578125,-0.019775390625,-0.17041015625
1751015580356481500,3.1004814453125,-1.2982635498046875,-0.0196533203125,-0.1800384521484375
1751015580366424600,3.110424560546875,-1.257965087890625,-0.020050048828125,-0.1808929443359375
1751015580376367600,3.12036767578125,-1.2188873291015625,-0.0268707275390625,-0.174560546875
1751015580386311400,3.1303115234375,-1.1776275634765625,-0.0395355224609375,-0.17132568359375
1751015580396254500,3.14025439453125,-1.133880615234375,-0.0609130859375,-0.1679229736328125
1751015580406197500,3.150197509765625,-1.08782958984375,-0.08624267578125,-0.157928466796875
1751015580416140500,3.160140625,-1.048980712890625,-0.1070098876953125,-0.1433563232421875
1751015580426083600,3.17008349609375,-1.010467529296875,-0.1235809326171875,-0.126220703125
1751015580436026600,3.180026611328125,-0.9652099609375,-0.1394195556640625,-0.10296630859375
1751015580445970400,3.189970458984375,-0.919403076171875,-0.147918701171875,-0.07623291015625
1751015580455913500,3.19991357421875,-0.8771820068359375,-0.1513519287109375,-0.05230712890625
1751015580465857000,3.20985693359375,-0.8330535888671875,-0.150115966796875,-0.03106689453125
1751015580475800000,3.219800048828125,-0.7886505126953125,-0.144195556640625,-0.0190582275390625
1751015580485743000,3.2297431640625,-0.740509033203125,-0.13995361328125,-0.015380859375
1751015580495686100,3.23968603515625,-0.7028350830078125,-0.1331329345703125,-0.01104736328125
1751015580505630000,3.2496298828125,-0.674407958984375,-0.12744140625,-0.0032958984375
1751015580515573000,3.259572998046875,-0.6479034423828125,-0.1291961669921875,0.0017242431640625
1751015580525516000,3.26951611328125,-0.62554931640625,-0.139678955078125,0.006622314453125
1751015580535459000,3.279458984375,-0.6168212890625,-0.1570587158203125,0.013885498046875
1751015580545402000,3.289402099609375,-0.6174468994140625,-0.1746063232421875,0.026092529296875
1751015580555346000,3.299345947265625,-0.63018798828125,-0.1909637451171875,0.0347137451171875
1751015580565289000,3.3092890625,-0.647705078125,-0.209869384765625,0.037750244140625
1751015580575232000,3.31923193359375,-0.67059326171875,-0.223968505859375,0.03509521484375
1751015580585175000,3.329175048828125,-0.6931610107421875,-0.2306365966796875,0.031402587890625
1751015580595118000,3.3391181640625,-0.7126922607421875,-0.2281646728515625,0.0201873779296875
1751015580605061000,3.34906103515625,-0.737457275390625,-0.2185516357421875,0.0028839111328125
1751015580615005000,3.3590048828125,-0.7616119384765625,-0.2092437744140625,-0.014556884765625
1751015580624948000,3.368947998046875,-0.7864990234375,-0.20526123046875,-0.0252685546875
1751015580634891000,3.37889111328125,-0.812225341796875,-0.1996612548828125,-0.0340576171875
1751015580644834000,3.388833984375,-0.8382720947265625,-0.195098876953125,-0.0510101318359375
1751015580654777000,3.398777099609375,-0.8565216064453125,-0.1914825439453125,-0.072357177734375
1751015580664720100,3.40872021484375,-0.8660888671875,-0.19647216796875,-0.0915069580078125
1751015580674664000,3.418663818359375,-0.885528564453125,-0.2080230712890625,-0.107208251953125
1751015580684607000,3.42860693359375,-0.9158477783203125,-0.2133636474609375,-0.11151123046875
1751015580694550000,3.438550048828125,-0.9493408203125,-0.2167816162109375,-0.0993804931640625
1751015580704493000,3.4484931640625,-0.9687042236328125,-0.2272796630859375,-0.086029052734375
1751015580714436000,3.45843603515625,-0.9886322021484375,-0.2425079345703125,-0.0738372802734375
1751015580724379100,3.468379150390625,-1.0192718505859375,-0.2609100341796875,-0.0531005859375
1751015580734323000,3.478322998046875,-1.051666259765625,-0.2750091552734375,-0.0325775146484375
1751015580744266000,3.488265869140625,-1.0811920166015625,-0.282440185546875,-0.016754150390625
1751015580754209000,3.498208984375,-1.109893798828125,-0.28253173828125,-0.0070648193359375
1751015580764152000,3.508152099609375,-1.1487274169921875,-0.271942138671875,-0.00341796875
1751015580774095000,3.51809521484375,-1.188995361328125,-0.24920654296875,-0.0115203857421875
1751015580784039000,3.528038818359375,-1.22808837890625,-0.2223358154296875,-0.0315704345703125
1751015580793982000,3.53798193359375,-1.26312255859375,-0.1979827880859375,-0.04730224609375
1751015580803925000,3.547925048828125,-1.2858428955078125,-0.185821533203125,-0.0548553466796875
1751015580813868000,3.557867919921875,-1.301971435546875,-0.1910400390625,-0.0580902099609375
1751015580823811000,3.56781103515625,-1.3128662109375,-0.2030487060546875,-0.053466796875
1751015580833754000,3.577754150390625,-1.3377685546875,-0.1945037841796875,-0.04095458984375
1751015580843698000,3.587697998046875,-1.374908447265625,-0.1638946533203125,-0.0210418701171875
1751015580853641000,3.597640869140625,-1.4044342041015625,-0.1337432861328125,-0.0053558349609375
1751015580863584000,3.607583984375,-1.4138641357421875,-0.1197052001953125,0.016937255859375
1751015580873527000,3.617527099609375,-1.3944549560546875,-0.1153564453125,0.034881591796875
1751015580883470000,3.627469970703125,-1.3605804443359375,-0.110931396484375,0.0399322509765625
1751015580893413000,3.6374130859375,-1.3223114013671875,-0.1057281494140625,0.0420379638671875
1751015580903357000,3.64735693359375,-1.2772369384765625,-0.1007080078125,0.0471343994140625
1751015580913300000,3.657300048828125,-1.233856201171875,-0.0984344482421875,0.0493621826171875
1751015580923243000,3.667242919921875,-1.20709228515625,-0.1055755615234375,0.0518341064453125
1751015580933186000,3.67718603515625,-1.1858673095703125,-0.121429443359375,0.0677032470703125
1751015580943129000,3.687129150390625,-1.1629791259765625,-0.1297149658203125,0.08807373046875
1751015580953073200,3.6970732421875,-1.14581298828125,-0.13494873046875,0.0946044921875
1751015580963016000,3.707015869140625,-1.1271514892578125,-0.1511077880859375,0.0946502685546875
1751015580972959000,3.716958984375,-1.10504150390625,-0.168060302734375,0.089599609375
1751015580982902000,3.726902099609375,-1.084991455078125,-0.1646270751953125,0.0814056396484375
1751015580992845000,3.736844970703125,-1.06488037109375,-0.143402099609375,0.0712127685546875
1751015581002788000,3.7467880859375,-1.03228759765625,-0.1259765625,0.0535430908203125
1751015581012732000,3.75673193359375,-0.990753173828125,-0.11444091796875,0.0302581787109375
1751015581022675000,3.766675048828125,-0.9463653564453125,-0.104949951171875,0.013031005859375
1751015581032618000,3.776617919921875,-0.8985137939453125,-0.098541259765625,0.000396728515625
1751015581042561000,3.78656103515625,-0.8494110107421875,-0.0996246337890625,-0.009735107421875
1751015581052504000,3.796504150390625,-0.8065643310546875,-0.105621337890625,-0.021209716796875
1751015581062447000,3.806447021484375,-0.7736053466796875,-0.1164093017578125,-0.0227508544921875
1751015581072391000,3.816390869140625,-0.74835205078125,-0.127716064453125,-0.015960693359375
1751015581082334000,3.826333984375,-0.7296142578125,-0.1366119384765625,-0.007904052734375
1751015581092277000,3.836277099609375,-0.7100677490234375,-0.145111083984375,-0.008636474609375
1751015581102220000,3.846219970703125,-0.707977294921875,-0.1493072509765625,-0.014617919921875
1751015581112163000,3.8561630859375,-0.720245361328125,-0.1500396728515625,-0.013275146484375
1751015581122107100,3.866107177734375,-0.7135162353515625,-0.1580810546875,-0.0242919921875
1751015581132050000,3.8760498046875,-0.703887939453125,-0.172332763671875,-0.0430755615234375
1751015581141993000,3.885992919921875,-0.728973388671875,-0.1796417236328125,-0.04547119140625
1751015581151936000,3.89593603515625,-0.759735107421875,-0.1786041259765625,-0.0204010009765625
1751015581161879000,3.905879150390625,-0.7591400146484375,-0.1781463623046875,0.002105712890625
1751015581171822000,3.915822021484375,-0.7569732666015625,-0.1813507080078125,0.0090179443359375
1751015581181766100,3.92576611328125,-0.7761688232421875,-0.1854248046875,0.020416259765625
1751015581191709000,3.935708984375,-0.796905517578125,-0.18426513671875,0.0365142822265625
1751015581201652000,3.94565185546875,-0.8134918212890625,-0.1767578125,0.0346221923828125
1751015581211595000,3.955594970703125,-0.8311767578125,-0.175537109375,0.0246429443359375
1751015581221538000,3.9655380859375,-0.8481292724609375,-0.186614990234375,0.021209716796875
1751015581231481000,3.975481201171875,-0.8564300537109375,-0.19927978515625,0.0261993408203125
1751015581241425200,3.985425048828125,-0.873443603515625,-0.207550048828125,0.0379638671875
1751015581251368000,3.995367919921875,-0.900787353515625,-0.2153472900390625,0.0555877685546875
1751015581261311000,4.00531103515625,-0.9315948486328125,-0.2191009521484375,0.0650634765625
1751015581271254000,4.01525390625,-0.9583740234375,-0.2226409912109375,0.070037841796875
1751015581281197000,4.025197021484375,-0.976593017578125,-0.224884033203125,0.066864013671875
1751015581291141000,4.03514111328125,-0.997344970703125,-0.221832275390625,0.0604248046875
1751015581301084200,4.045084228515625,-1.0260467529296875,-0.2141571044921875,0.0560760498046875
1751015581311027000,4.05502685546875,-1.0605926513671875,-0.2069091796875,0.051666259765625
1751015581320970000,4.064969970703125,-1.08770751953125,-0.19805908203125,0.039825439453125
1751015581330913000,4.0749130859375,-1.1240692138671875,-0.1849517822265625,0.0146026611328125
1751015581340856000,4.08485595703125,-1.1795806884765625,-0.167572021484375,-0.0093841552734375
1751015581350800100,4.094800048828125,-1.2301788330078125,-0.1487274169921875,-0.03973388671875
1751015581360743200,4.1047431640625,-1.2735748291015625,-0.1348419189453125,-0.0595703125
1751015581370686000,4.11468603515625,-1.3326873779296875,-0.131195068359375,-0.057464599609375
1751015581380629000,4.12462890625,-1.375396728515625,-0.1438140869140625,-0.06451416015625
1751015581390572000,4.134572021484375,-1.3926239013671875,-0.1525421142578125,-0.094879150390625
1751015581400514800,4.144514892578125,-1.420806884765625,-0.1315155029296875,-0.1250457763671875
1751015581410459100,4.154459228515625,-1.406097412109375,-0.1059417724609375,-0.1374969482421875
1751015581420402200,4.164402099609375,-1.361358642578125,-0.086578369140625,-0.1617279052734375
1751015581430345000,4.174344970703125,-1.3344573974609375,-0.0570068359375,-0.1784210205078125
1751015581440288000,4.1842880859375,-1.3092498779296875,-0.0274200439453125,-0.1658172607421875
1751015581450231000,4.19423095703125,-1.2817840576171875,-0.001800537109375,-0.154571533203125
1751015581460173800,4.204173828125,-1.2509918212890625,0.0209503173828125,-0.1479034423828125
1751015581470117600,4.21411767578125,-1.2056884765625,0.0235137939453125,-0.1421966552734375
1751015581480060700,4.224060791015625,-1.16473388671875,-0.0014190673828125,-0.1312713623046875
1751015581490003700,4.234003662109375,-1.1284027099609375,-0.0316314697265625,-0.1255035400390625
1751015581499946500,4.243946533203125,-1.0938262939453125,-0.051483154296875,-0.1259765625
1751015581509889500,4.2538896484375,-1.05487060546875,-0.0756683349609375,-0.1324005126953125
1751015581519833600,4.26383349609375,-1.019439697265625,-0.107147216796875,-0.1343536376953125
1751015581529776600,4.273776611328125,-1.001556396484375,-0.1314697265625,-0.1219940185546875
1751015581539719700,4.2837197265625,-0.9898681640625,-0.149688720703125,-0.0963134765625
1751015581549662500,4.293662353515625,-0.9794921875,-0.162506103515625,-0.070709228515625
1751015581559605500,4.30360546875,-0.9619293212890625,-0.1611785888671875,-0.041259765625
1751015581569548500,4.313548583984375,-0.92596435546875,-0.15264892578125,-0.0069427490234375
1751015581579492600,4.32349267578125,-0.8720245361328125,-0.1394500732421875,0.01983642578125
1751015581589435600,4.333435546875,-0.8320159912109375,-0.1181793212890625,0.0466766357421875
1751015581599378700,4.343378662109375,-0.7963409423828125,-0.0977935791015625,0.071075439453125
1751015581609321500,4.353321533203125,-0.7530670166015625,-0.0865631103515625,0.0809326171875
1751015581619264500,4.363264404296875,-0.71270751953125,-0.0902557373046875,0.075164794921875
1751015581629207600,4.37320751953125,-0.6849365234375,-0.09844970703125,0.058349609375
1751015581639151600,4.383151611328125,-0.6711273193359375,-0.10821533203125,0.045562744140625
1751015581649094700,4.3930947265625,-0.6692657470703125,-0.121917724609375,0.0435333251953125
1751015581659037700,4.40303759765625,-0.6651153564453125,-0.1403045654296875,0.050933837890625
1751015581668980500,4.41298046875,-0.6619720458984375,-0.161865234375,0.058746337890625
1751015581678923500,4.422923583984375,-0.6640167236328125,-0.181060791015625,0.0661163330078125
1751015581688866600,4.432866455078125,-0.6722259521484375,-0.19317626953125,0.072479248046875
1751015581698810600,4.442810546875,-0.6770477294921875,-0.1998443603515625,0.071929931640625
1751015581708753700,4.452753662109375,-0.6854248046875,-0.205169677734375,0.0676727294921875
1751015581718696700,4.46269677734375,-0.6998138427734375,-0.2048797607421875,0.0635528564453125
1751015581728639500,4.472639404296875,-0.7091522216796875,-0.20294189453125,0.0649871826171875
1751015581738582500,4.48258251953125,-0.7235260009765625,-0.20562744140625,0.07000732421875
1751015581748526600,4.492526611328125,-0.7392730712890625,-0.2157440185546875,0.075225830078125
1751015581758469600,4.5024697265625,-0.7567901611328125,-0.2313079833984375,0.072052001953125
1751015581768412700,4.51241259765625,-0.7866973876953125,-0.2483978271484375,0.0665130615234375
1751015581778355700,4.522355712890625,-0.822662353515625,-0.2664947509765625,0.0622100830078125
1751015581788298500,4.532298583984375,-0.8650665283203125,-0.2807464599609375,0.052215576171875
1751015581798241500,4.542241455078125,-0.9111480712890625,-0.2862701416015625,0.041656494140625
1751015581808185600,4.552185546875,-0.9589385986328125,-0.2902374267578125,0.026519775390625
1751015581818128600,4.562128662109375,-1.005218505859375,-0.2965240478515625,0.0128021240234375
1751015581828071700,4.57207177734375,-1.0462799072265625,-0.3095703125,0.001708984375
1751015581838014700,4.5820146484375,-1.0937957763671875,-0.320648193359375,-0.0063018798828125
1751015581847957500,4.59195751953125,-1.1413116455078125,-0.3238372802734375,-0.0100555419921875
1751015581857900500,4.601900634765625,-1.177154541015625,-0.3179473876953125,-0.009185791015625
1751015581867844600,4.6118447265625,-1.209259033203125,-0.2983856201171875,-0.0059661865234375
1751015581877787600,4.62178759765625,-1.2483062744140625,-0.267120361328125,-0.0036163330078125
1751015581887730700,4.631730712890625,-1.280364990234375,-0.2336578369140625,-0.0070648193359375
1751015581897673700,4.641673828125,-1.3005218505859375,-0.2075042724609375,-0.0073699951171875
1751015581907616500,4.651616455078125,-1.2973785400390625,-0.192901611328125,0.0020599365234375
1751015581917560600,4.661560546875,-1.279327392578125,-0.2009735107421875,0.002044677734375
1751015581927503600,4.671503662109375,-1.288665771484375,-0.2138671875,0.013763427734375
1751015581937446700,4.68144677734375,-1.2903594970703125,-0.2190093994140625,0.033111572265625
1751015581947389700,4.6913896484375,-1.2859344482421875,-0.2198944091796875,0.0413970947265625
1751015581957332700,4.701332763671875,-1.29119873046875,-0.22265625,0.0479888916015625
1751015581967275500,4.711275634765625,-1.29949951171875,-0.22113037109375,0.0503692626953125
1751015581977219600,4.721219482421875,-1.3200531005859375,-0.21099853515625,0.0554046630859375
1751015581987162600,4.73116259765625,-1.3383026123046875,-0.200927734375,0.0631256103515625
1751015581997105700,4.741105712890625,-1.3289031982421875,-0.194061279296875,0.06878662109375
1751015582007048700,4.751048583984375,-1.299530029296875,-0.186676025390625,0.0764007568359375
1751015582016991500,4.760991455078125,-1.270538330078125,-0.168975830078125,0.082061767578125
1751015582026935600,4.770935546875,-1.240020751953125,-0.1579132080078125,0.078033447265625
1751015582036878600,4.780878662109375,-1.2147674560546875,-0.153900146484375,0.06634521484375
1751015582046821600,4.790821533203125,-1.1995391845703125,-0.147613525390625,0.0440826416015625
1751015582056764700,4.8007646484375,-1.185302734375,-0.140838623046875,0.0234832763671875
1751015582066707700,4.810707763671875,-1.1710205078125,-0.1355133056640625,0.0111083984375
1751015582076650500,4.820650390625,-1.1449432373046875,-0.1441497802734375,-0.000274658203125
1751015582086594600,4.830594482421875,-1.10833740234375,-0.1658782958984375,-0.0196380615234375
1751015582096537600,4.84053759765625,-1.0711822509765625,-0.17877197265625,-0.0370635986328125
1751015582106480600,4.850480712890625,-1.03265380859375,-0.181060791015625,-0.0434417724609375
1751015582116423700,4.860423583984375,-0.982513427734375,-0.1775665283203125,-0.045318603515625
1751015582126366700,4.87036669921875,-0.9259490966796875,-0.1655731201171875,-0.0488433837890625
1751015582136309500,4.8803095703125,-0.873748779296875,-0.1499176025390625,-0.0440673828125
1751015582146253600,4.890253662109375,-0.82342529296875,-0.1346282958984375,-0.0276947021484375
1751015582156196600,4.900196533203125,-0.7827911376953125,-0.12060546875,-0.0164947509765625
1751015582166139600,4.9101396484375,-0.748870849609375,-0.1129150390625,-0.007232666015625
1751015582176082700,4.920082763671875,-0.71905517578125,-0.1080169677734375,-0.0029144287109375
1751015582186025700,4.930025634765625,-0.6982269287109375,-0.10565185546875,0.0023040771484375
1751015582195969500,4.939969482421875,-0.6898040771484375,-0.1063079833984375,0.009552001953125
1751015582205912600,4.94991259765625,-0.683685302734375,-0.109130859375,0.013031005859375
1751015582215855600,4.959855712890625,-0.6796722412109375,-0.118194580078125,0.0124359130859375
1751015582225798700,4.969798583984375,-0.6750030517578125,-0.1333465576171875,0.00714111328125
1751015582235741700,4.97974169921875,-0.670989990234375,-0.1529693603515625,-0.0013427734375
1751015582245684700,4.989684814453125,-0.6761932373046875,-0.1678619384765625,-0.00921630859375
1751015582255628500,4.999628662109375,-0.6837615966796875,-0.1804962158203125,-0.0130615234375
1751015582265571600,5.009571533203125,-0.6966705322265625,-0.190948486328125,-0.01824951171875
1751015582275514600,5.0195146484375,-0.7174072265625,-0.2034149169921875,-0.0250701904296875
1751015582285457700,5.029457763671875,-0.7370452880859375,-0.211273193359375,-0.0240478515625
1751015582295400700,5.039400634765625,-0.760772705078125,-0.208221435546875,-0.017059326171875
1751015582305344500,5.049344482421875,-0.782867431640625,-0.198760986328125,-0.0064697265625
1751015582315287600,5.05928759765625,-0.7934417724609375,-0.18792724609375,-0.0046234130859375
1751015582325230600,5.069230712890625,-0.798431396484375,-0.1830902099609375,-0.011505126953125
1751015582335173600,5.079173583984375,-0.8125762939453125,-0.1817626953125,-0.0244293212890625
1751015582345116700,5.08911669921875,-0.8300018310546875,-0.1850128173828125,-0.0339202880859375
1751015582355059700,5.099059814453125,-0.8385009765625,-0.1985931396484375,-0.042449951171875
1751015582365003500,5.10900341796875,-0.853790283203125,-0.210174560546875,-0.0554962158203125
1751015582374946600,5.118946533203125,-0.8883056640625,-0.2209625244140625,-0.052154541015625
1751015582384889600,5.1288896484375,-0.92608642578125,-0.225860595703125,-0.033111572265625
1751015582394832600,5.13883251953125,-0.9659271240234375,-0.2250823974609375,-0.0139617919921875
1751015582404775700,5.148775634765625,-1.0142822265625,-0.2252655029296875,-0.008331298828125
1751015582414719500,5.158719482421875,-1.0801849365234375,-0.22564697265625,-0.015716552734375
1751015582424662500,5.16866259765625,-1.1443634033203125,-0.2202911376953125,-0.0390777587890625
1751015582434605600,5.17860546875,-1.1841278076171875,-0.208953857421875,-0.0755767822265625
1751015582444548600,5.188548583984375,-1.2001495361328125,-0.1920623779296875,-0.1145172119140625
1751015582454491600,5.19849169921875,-1.20928955078125,-0.178619384765625,-0.1425323486328125
1751015582464434700,5.2084345703125,-1.217254638671875,-0.173614501953125,-0.1585693359375
1751015582474378800,5.218378662109375,-1.2336273193359375,-0.1721954345703125,-0.1752777099609375
1751015582484321500,5.228321533203125,-1.2575225830078125,-0.1743927001953125,-0.190765380859375
1751015582494264600,5.2382646484375,-1.2733306884765625,-0.183685302734375,-0.2053680419921875
1751015582504207600,5.24820751953125,-1.290313720703125,-0.1795196533203125,-0.212677001953125
1751015582514150700,5.258150634765625,-1.30120849609375,-0.1638641357421875,-0.20465087890625
1751015582524093700,5.26809375,-1.281463623046875,-0.1714630126953125,-0.2008056640625
1751015582534037500,5.27803759765625,-1.26788330078125,-0.1899871826171875,-0.2081298828125
1751015582543980500,5.28798046875,-1.274932861328125,-0.181182861328125,-0.20654296875
1751015582553923600,5.297923583984375,-1.280853271484375,-0.1563568115234375,-0.2043914794921875
1751015582563866600,5.30786669921875,-1.281036376953125,-0.1353302001953125,-0.206756591796875
1751015582573809700,5.3178095703125,-1.269073486328125,-0.1256256103515625,-0.2060394287109375
1751015582583753700,5.327753662109375,-1.2461700439453125,-0.11785888671875,-0.1896209716796875
1751015582593696500,5.337696533203125,-1.2153778076171875,-0.108673095703125,-0.160491943359375
1751015582603639600,5.3476396484375,-1.174224853515625,-0.109405517578125,-0.1241912841796875
1751015582613582600,5.35758251953125,-1.1383514404296875,-0.1092071533203125,-0.095123291015625
1751015582623525600,5.367525634765625,-1.09912109375,-0.10894775390625,-0.0775299072265625
1751015582633468700,5.37746875,-1.0579376220703125,-0.1152801513671875,-0.07098388671875
1751015582643412500,5.38741259765625,-1.0263214111328125,-0.1263580322265625,-0.0725250244140625
1751015582653355500,5.39735546875,-0.99908447265625,-0.136566162109375,-0.0683441162109375
1751015582663298600,5.407298583984375,-0.9663543701171875,-0.1450958251953125,-0.06646728515625
1751015582673241600,5.41724169921875,-0.92498779296875,-0.156524658203125,-0.0718231201171875
1751015582683184600,5.4271845703125,-0.8713836669921875,-0.16632080078125,-0.08001708984375
1751015582693128700,5.437128662109375,-0.8199615478515625,-0.168792724609375,-0.08416748046875
1751015582703071500,5.447071533203125,-0.7735748291015625,-0.169769287109375,-0.0827484130859375
1751015582713014500,5.4570146484375,-0.7265472412109375,-0.176910400390625,-0.079803466796875
1751015582722957600,5.46695751953125,-0.6865081787109375,-0.1874847412109375,-0.0760345458984375
1751015582732900600,5.476900634765625,-0.6625823974609375,-0.195220947265625,-0.0667877197265625
1751015582742843600,5.48684375,-0.6432952880859375,-0.199462890625,-0.055206298828125
1751015582752787700,5.49678759765625,-0.6382293701171875,-0.201446533203125,-0.0416717529296875
1751015582762730500,5.50673046875,-0.636444091796875,-0.20660400390625,-0.029144287109375
1751015582772673500,5.516673583984375,-0.636627197265625,-0.215118408203125,-0.0295257568359375
1751015582782616600,5.526616455078125,-0.6576080322265625,-0.2192230224609375,-0.0287628173828125
1751015582792559600,5.5365595703125,-0.6900177001953125,-0.220855712890625,-0.011749267578125
1751015582802504000,5.54650390625,-0.7169952392578125,-0.219757080078125,0.00390625
1751015582812446700,5.55644677734375,-0.7272491455078125,-0.2202606201171875,-0.008514404296875
1751015582822389500,5.566389404296875,-0.748504638671875,-0.2295684814453125,-0.035491943359375
1751015582832332500,5.57633251953125,-0.794830322265625,-0.24755859375,-0.0548553466796875
1751015582842275600,5.586275634765625,-0.8624725341796875,-0.27008056640625,-0.060150146484375
1751015582852218600,5.596218505859375,-0.92340087890625,-0.2917938232421875,-0.0458984375
1751015582862162700,5.60616259765625,-0.9612884521484375,-0.299530029296875,-0.0323333740234375
1751015582872105500,5.61610546875,-0.9470062255859375,-0.3046417236328125,-0.0230255126953125
1751015582882048500,5.626048583984375,-0.9342498779296875,-0.31146240234375,-0.01727294921875
1751015582891991600,5.635991455078125,-0.940277099609375,-0.31219482421875,-0.005401611328125
1751015582901934600,5.6459345703125,-0.95892333984375,-0.3202056884765625,0.02740478515625
1751015582911879000,5.65587890625,-0.9895477294921875,-0.3365325927734375,0.0863800048828125
1751015582921821700,5.66582177734375,-1.0107269287109375,-0.3447265625,0.13812255859375
1751015582931764500,5.675764404296875,-1.0467376708984375,-0.34661865234375,0.1634979248046875
1751015582941707500,5.68570751953125,-1.0754852294921875,-0.342498779296875,0.1737060546875
1751015582951650600,5.695650634765625,-1.091094970703125,-0.3361663818359375,0.1683349609375
1751015582961595000,5.705594970703125,-1.1179656982421875,-0.3245697021484375,0.153564453125
1751015582971537700,5.71553759765625,-1.1463165283203125,-0.2971954345703125,0.1463165283203125
1751015582981480700,5.725480712890625,-1.1744384765625,-0.25634765625,0.140472412109375
1751015582991423500,5.735423583984375,-1.190277099609375,-0.2161407470703125,0.131134033203125
1751015583001366500,5.745366455078125,-1.1820526123046875,-0.191253662109375,0.10284423828125
1751015583011309600,5.7553095703125,-1.1632537841796875,-0.193145751953125,0.073455810546875
1751015583021254000,5.76525390625,-1.1522064208984375,-0.2230224609375,0.05328369140625
1751015583031196700,5.77519677734375,-1.163330078125,-0.2401885986328125,0.0440826416015625
1751015583041139700,5.7851396484375,-1.1832427978515625,-0.2414703369140625,0.053192138671875
1751015583051082500,5.79508251953125,-1.229156494140625,-0.231903076171875,0.0829315185546875
1751015583061025500,5.805025634765625,-1.27716064453125,-0.2108917236328125,0.11016845703125
1751015583070969900,5.814969970703125,-1.3069000244140625,-0.191802978515625,0.1378631591796875
1751015583080912600,5.82491259765625,-1.304229736328125,-0.1727294921875,0.159271240234375
1751015583090855700,5.834855712890625,-1.2809906005859375,-0.15386962890625,0.14691162109375
1751015583100798700,5.844798828125,-1.25555419921875,-0.1403350830078125,0.1234588623046875
1751015583110741500,5.854741455078125,-1.2299652099609375,-0.1302947998046875,0.1194000244140625
1751015583120684500,5.8646845703125,-1.216583251953125,-0.124847412109375,0.11273193359375
1751015583130628900,5.87462890625,-1.2148284912109375,-0.1318511962890625,0.1038818359375
1751015583140571600,5.884571533203125,-1.220367431640625,-0.1555328369140625,0.1032562255859375
1751015583150514700,5.8945146484375,-1.232177734375,-0.1776275634765625,0.1005706787109375
1751015583160457700,5.904457763671875,-1.2349853515625,-0.1875152587890625,0.08099365234375
1751015583170400500,5.914400390625,-1.2183837890625,-0.193511962890625,0.0639801025390625
1751015583180344800,5.9243447265625,-1.175537109375,-0.1937103271484375,0.0536041259765625
1751015583190287600,5.93428759765625,-1.1189117431640625,-0.180389404296875,0.0406646728515625
1751015583200230700,5.944230712890625,-1.060211181640625,-0.1558380126953125,0.0273590087890625
1751015583210173700,5.954173583984375,-0.9905853271484375,-0.1348876953125,0.0142822265625
1751015583220116700,5.96411669921875,-0.9219970703125,-0.12139892578125,0.004852294921875
1751015583230060800,5.974060791015625,-0.86285400390625,-0.1087799072265625,0.00897216796875
1751015583240003800,5.98400390625,-0.8072662353515625,-0.10052490234375,0.0194549560546875
1751015583249946600,5.993946533203125,-0.7743988037109375,-0.0939788818359375,0.0375518798828125
1751015583259889700,6.0038896484375,-0.7479248046875,-0.0971832275390625,0.0546417236328125
1751015583269832700,6.013832763671875,-0.71331787109375,-0.1049041748046875,0.05950927734375
1751015583279775700,6.023775634765625,-0.6930694580078125,-0.11395263671875,0.0590057373046875
1751015583289719800,6.0337197265625,-0.694610595703125,-0.12701416015625,0.0653228759765625
1751015583299662600,6.04366259765625,-0.7062225341796875,-0.1390228271484375,0.0715179443359375
1751015583309605600,6.053605712890625,-0.7211456298828125,-0.150726318359375,0.074249267578125
1751015583319548700,6.063548583984375,-0.7267303466796875,-0.1628570556640625,0.0681915283203125
1751015583329491700,6.07349169921875,-0.7399749755859375,-0.1680908203125,0.0603179931640625
1751015583339435800,6.083435791015625,-0.7557525634765625,-0.1679840087890625,0.058746337890625
1751015583349378800,6.09337890625,-0.7628936767578125,-0.165618896484375,0.060455322265625
1751015583359321600,6.103321533203125,-0.7687835693359375,-0.1635894775390625,0.0465850830078125
1751015583369264600,6.1132646484375,-0.7768707275390625,-0.1573944091796875,0.0198211669921875
1751015583379207700,6.123207763671875,-0.79010009765625,-0.144622802734375,-0.002685546875
1751015583389151700,6.13315185546875,-0.8007965087890625,-0.1312103271484375,-0.0126800537109375
1751015583399094800,6.1430947265625,-0.798187255859375,-0.12750244140625,-0.0186614990234375
1751015583409037600,6.15303759765625,-0.791534423828125,-0.128143310546875,-0.0272064208984375
1751015583418980600,6.162980712890625,-0.7861480712890625,-0.1257171630859375,-0.02655029296875
1751015583428923600,6.172923583984375,-0.77740478515625,-0.134918212890625,-0.0198974609375
1751015583438866700,6.18286669921875,-0.7685394287109375,-0.1510009765625,-0.0101165771484375
1751015583448810800,6.192810791015625,-0.7623443603515625,-0.1683349609375,0.001190185546875
1751015583458753800,6.20275390625,-0.7728424072265625,-0.187255859375,0.004425048828125
1751015583468700000,6.212699951171875,-0.7957305908203125,-0.2089996337890625,0.0185699462890625
1751015583478643000,6.222642822265625,-0.8329620361328125,-0.2289581298828125,0.0432586669921875
1751015583488586000,6.2325859375,-0.88092041015625,-0.251220703125,0.0677032470703125
1751015583498529800,6.24252978515625,-0.9368133544921875,-0.26629638671875,0.086578369140625
1751015583508472800,6.252472900390625,-0.9922637939453125,-0.2666015625,0.088592529296875
1751015583518416000,6.262415771484375,-1.037628173828125,-0.263671875,0.0644683837890625
1751015583528359000,6.27235888671875,-1.087158203125,-0.2640533447265625,0.0364837646484375
1751015583538302000,6.282302001953125,-1.1490631103515625,-0.2501678466796875,0.00714111328125
1751015583548246000,6.29224609375,-1.211517333984375,-0.2356109619140625,-0.0243377685546875
1751015583558188800,6.302188720703125,-1.2565460205078125,-0.2328338623046875,-0.042724609375
1751015583568131800,6.3121318359375,-1.2766571044921875,-0.2158050537109375,-0.053131103515625
1751015583578075000,6.322074951171875,-1.306793212890625,-0.1800537109375,-0.059600830078125
1751015583588018000,6.332017822265625,-1.3267822265625,-0.1449737548828125,-0.0619049072265625
1751015583597961000,6.3419609375,-1.3462677001953125,-0.1157073974609375,-0.0812530517578125
1751015583607905000,6.351905029296875,-1.3887786865234375,-0.0713043212890625,-0.0955810546875
1751015583617847800,6.361847900390625,-1.4011688232421875,-0.0234832763671875,-0.10888671875
1751015583627790800,6.371790771484375,-1.400360107421875,0.00799560546875,-0.130462646484375
1751015583637734000,6.38173388671875,-1.3933563232421875,0.02813720703125,-0.1532135009765625
1751015583647677000,6.391677001953125,-1.37310791015625,0.0361785888671875,-0.1750946044921875
1751015583657621000,6.40162109375,-1.3472137451171875,0.0302886962890625,-0.183441162109375
1751015583667564000,6.41156396484375,-1.329559326171875,0.01263427734375,-0.1689910888671875
1751015583677506800,6.4215068359375,-1.306121826171875,-0.0016937255859375,-0.1488189697265625
1751015583687449900,6.431449951171875,-1.27838134765625,-0.0134429931640625,-0.1469573974609375
1751015583697393000,6.441392822265625,-1.250885009765625,-0.0308380126953125,-0.1533203125
1751015583707337000,6.4513369140625,-1.22216796875,-0.0507965087890625,-0.1502838134765625
1751015583717280000,6.461280029296875,-1.2018280029296875,-0.067474365234375,-0.1404876708984375
1751015583727223000,6.47122314453125,-1.1852264404296875,-0.074005126953125,-0.1306304931640625
1751015583737165800,6.481165771484375,-1.1624755859375,-0.0782928466796875,-0.12860107421875
1751015583747108900,6.49110888671875,-1.1310577392578125,-0.0795440673828125,-0.133575439453125
1751015583757052000,6.501052001953125,-1.100921630859375,-0.07489013671875,-0.14300537109375
1751015583766996000,6.510995849609375,-1.069061279296875,-0.0658416748046875,-0.147857666015625
1751015583776939000,6.52093896484375,-1.035186767578125,-0.06195068359375,-0.1425933837890625
1751015583786882000,6.530882080078125,-0.9932708740234375,-0.0633697509765625,-0.1279296875
1751015583796824800,6.540824951171875,-0.9431610107421875,-0.0638427734375,-0.12152099609375
1751015583806767900,6.550767822265625,-0.8874664306640625,-0.066558837890625,-0.1144866943359375
1751015583816712000,6.5607119140625,-0.831207275390625,-0.0752105712890625,-0.1080169677734375
1751015583826655000,6.570655029296875,-0.7803955078125,-0.0859375,-0.0940399169921875
1751015583836598000,6.580597900390625,-0.7293701171875,-0.097076416015625,-0.07098388671875
1751015583846540800,6.590540771484375,-0.6782684326171875,-0.1100616455078125,-0.048370361328125
1751015583856483800,6.60048388671875,-0.638671875,-0.121734619140625,-0.0323638916015625
1751015583866428000,6.610427978515625,-0.615020751953125,-0.1319580078125,-0.016937255859375
1751015583876371000,6.620370849609375,-0.5952301025390625,-0.141845703125,0.00335693359375
1751015583886314000,6.63031396484375,-0.573394775390625,-0.150848388671875,0.0207061767578125
1751015583896257000,6.640257080078125,-0.56146240234375,-0.1599884033203125,0.0285491943359375
1751015583906199800,6.65019970703125,-0.5620880126953125,-0.1688079833984375,0.032989501953125
1751015583916142800,6.660142822265625,-0.5665740966796875,-0.1759796142578125,0.03228759765625
1751015583926087000,6.6700869140625,-0.5746917724609375,-0.176910400390625,0.032562255859375
1751015583936030000,6.680030029296875,-0.59185791015625,-0.1748199462890625,0.035980224609375
1751015583945973000,6.689972900390625,-0.6102294921875,-0.1747589111328125,0.041015625
1751015583955916000,6.699916015625,-0.6234283447265625,-0.1768951416015625,0.046661376953125
1751015583965858800,6.70985888671875,-0.646942138671875,-0.1799468994140625,0.0474395751953125
1751015583975803000,6.719802978515625,-0.6916351318359375,-0.18035888671875,0.051422119140625
1751015583985746000,6.729745849609375,-0.736846923828125,-0.1787872314453125,0.0576324462890625
1751015583995689000,6.73968896484375,-0.77911376953125,-0.1811370849609375,0.058990478515625
1751015584005632000,6.749632080078125,-0.8351593017578125,-0.1849212646484375,0.0564117431640625
1751015584015575000,6.759574951171875,-0.9065093994140625,-0.188507080078125,0.0612335205078125
1751015584025518800,6.769518798828125,-0.9796142578125,-0.18878173828125,0.0680999755859375
1751015584035462000,6.7794619140625,-1.0395660400390625,-0.1907806396484375,0.060089111328125
1751015584045405000,6.789405029296875,-1.0892333984375,-0.20135498046875,0.0513458251953125
1751015584055348000,6.799347900390625,-1.1404876708984375,-0.2095184326171875,0.0574798583984375
1751015584065291000,6.809291015625,-1.18487548828125,-0.219635009765625,0.06304931640625
1751015584075234000,6.819234130859375,-1.2254791259765625,-0.2306060791015625,0.0679779052734375
1751015584085177900,6.829177734375,-1.2633209228515625,-0.2355804443359375,0.0746612548828125
1751015584095121000,6.839120849609375,-1.30029296875,-0.231903076171875,0.0692291259765625
1751015584105064000,6.84906396484375,-1.3366241455078125,-0.2199859619140625,0.0524749755859375
1751015584115007000,6.859007080078125,-1.3785858154296875,-0.202362060546875,0.02734375
1751015584124950000,6.868949951171875,-1.4134063720703125,-0.1848297119140625,-0.004486083984375
1751015584134893800,6.878893798828125,-1.4244384765625,-0.18017578125,-0.0361175537109375
1751015584144836900,6.8888369140625,-1.4126434326171875,-0.1899871826171875,-0.063690185546875
1751015584154780000,6.89877978515625,-1.4003448486328125,-0.2025299072265625,-0.0760345458984375
1751015584164723000,6.908722900390625,-1.392822265625,-0.20416259765625,-0.074493408203125
1751015584174666000,6.918666015625,-1.382781982421875,-0.1938323974609375,-0.067291259765625
1751015584184609800,6.92860986328125,-1.374053955078125,-0.18328857421875,-0.0459442138671875
1751015584194552800,6.938552734375,-1.359375,-0.16400146484375,-0.0107574462890625
1751015584204496000,6.948495849609375,-1.3315582275390625,-0.1346588134765625,0.0169525146484375
1751015584214439000,6.95843896484375,-1.2814788818359375,-0.11883544921875,0.033172607421875
1751015584224382000,6.9683818359375,-1.2328643798828125,-0.1197509765625,0.0455322265625
1751015584234325800,6.97832568359375,-1.205230712890625,-0.11737060546875,0.0592803955078125
1751015584244268800,6.988268798828125,-1.1874847412109375,-0.10931396484375,0.0687408447265625
1751015584254211800,6.9982119140625,-1.1751861572265625,-0.096221923828125,0.0731353759765625
1751015584264155000,7.00815478515625,-1.1690673828125,-0.08746337890625,0.0744781494140625
1751015584274098000,7.018097900390625,-1.1633148193359375,-0.092376708984375,0.068878173828125
1751015584284041000,7.028041015625,-1.1586456298828125,-0.1005096435546875,0.0628814697265625
1751015584293984800,7.03798486328125,-1.1552886962890625,-0.1055450439453125,0.0547332763671875
1751015584303927800,7.047927734375,-1.1486358642578125,-0.116302490234375,0.039825439453125
1751015584313870800,7.057870849609375,-1.1378173828125,-0.1258544921875,0.0185699462890625
1751015584323814000,7.06781396484375,-1.1241455078125,-0.1277618408203125,-0.0030364990234375
1751015584333757000,7.0777568359375,-1.1008148193359375,-0.1231842041015625,-0.02215576171875
1751015584343701000,7.087700927734375,-1.0648651123046875,-0.115753173828125,-0.0326690673828125
1751015584353643800,7.097643798828125,-1.019256591796875,-0.110748291015625,-0.0371856689453125
1751015584363586800,7.1075869140625,-0.9666290283203125,-0.1039886474609375,-0.03955078125
1751015584373529900,7.11752978515625,-0.9151611328125,-0.0914764404296875,-0.035186767578125
1751015584383473000,7.127472900390625,-0.863128662109375,-0.0763397216796875,-0.03204345703125
1751015584393417000,7.1374169921875,-0.81475830078125,-0.05877685546875,-0.034576416015625
1751015584403360000,7.147360107421875,-0.80084228515625,-0.0787353515625,-0.06219482421875
1751015584413302800,7.157302734375,-0.755462646484375,-0.1029052734375,-0.080352783203125
1751015584423245800,7.167245849609375,-0.6745758056640625,-0.0789947509765625,-0.046661376953125
1751015584433188900,7.17718896484375,-0.67291259765625,-0.061309814453125,-0.0178070068359375
1751015584443132000,7.1871318359375,-0.7047882080078125,-0.077880859375,-0.023223876953125
1751015584453076000,7.197075927734375,-0.673980712890625,-0.092742919921875,-0.04534912109375
1751015584463019000,7.20701904296875,-0.6308746337890625,-0.0967864990234375,-0.0431671142578125
1751015584472959000,7.216958984375,-0.643280029296875,-0.089111328125,-0.020538330078125
1751015584482902000,7.226902099609375,-0.664398193359375,-0.075286865234375,-0.0097808837890625
1751015584492845000,7.236844970703125,-0.665802001953125,-0.0755157470703125,-0.0237579345703125
1751015584502789000,7.2467890625,-0.6689300537109375,-0.08056640625,-0.046356201171875
1751015584512732000,7.25673193359375,-0.675811767578125,-0.0858917236328125,-0.0675048828125
1751015584522675000,7.266675048828125,-0.6764373779296875,-0.09173583984375,-0.0818634033203125
1751015584532618000,7.276617919921875,-0.6735382080078125,-0.1007232666015625,-0.0881195068359375
1751015584542561000,7.28656103515625,-0.6757049560546875,-0.11376953125,-0.0861968994140625
1751015584552505000,7.296505126953125,-0.6817474365234375,-0.1274261474609375,-0.0769805908203125
1751015584562448100,7.3064482421875,-0.6867218017578125,-0.1389312744140625,-0.0697021484375
1751015584572391000,7.316390869140625,-0.6957550048828125,-0.1504058837890625,-0.0600738525390625
1751015584582334000,7.326333984375,-0.7157135009765625,-0.1563873291015625,-0.0360107421875
1751015584592277000,7.336277099609375,-0.7434234619140625,-0.1556396484375,-0.0038604736328125
1751015584602220000,7.346219970703125,-0.780853271484375,-0.148406982421875,0.0301055908203125
1751015584612164000,7.3561640625,-0.8179168701171875,-0.1374053955078125,0.0418548583984375
1751015584622107100,7.366107177734375,-0.856353759765625,-0.1369171142578125,0.029388427734375
1751015584632050000,7.3760498046875,-0.910858154296875,-0.1428985595703125,0.008056640625
1751015584641993000,7.385992919921875,-0.9764404296875,-0.1433258056640625,-0.007537841796875
1751015584651936000,7.39593603515625,-1.040771484375,-0.138824462890625,-0.0113067626953125
1751015584661880000,7.405880126953125,-1.11767578125,-0.1306915283203125,-0.0164031982421875
1751015584671823000,7.415822998046875,-1.191497802734375,-0.120849609375,-0.0410003662109375
1751015584681766100,7.42576611328125,-1.2525787353515625,-0.114776611328125,-0.0724029541015625
1751015584691709000,7.435708984375,-1.3069305419921875,-0.1159210205078125,-0.09722900390625
1751015584701652000,7.44565185546875,-1.342254638671875,-0.1226654052734375,-0.117523193359375
1751015584711596000,7.455595947265625,-1.3646240234375,-0.131256103515625,-0.1304931640625
1751015584721539000,7.4655390625,-1.391693115234375,-0.1366119384765625,-0.1399993896484375
1751015584731482000,7.475482177734375,-1.4145660400390625,-0.140228271484375,-0.1468353271484375
1751015584741425200,7.485425048828125,-1.4218597412109375,-0.134002685546875,-0.151763916015625
1751015584751368000,7.495367919921875,-1.4076385498046875,-0.1197967529296875,-0.163787841796875
1751015584761311000,7.50531103515625,-1.381195068359375,-0.1132354736328125,-0.1835784912109375
1751015584771255000,7.515255126953125,-1.3517303466796875,-0.1249847412109375,-0.2012176513671875
1751015584781198000,7.525197998046875,-1.3302764892578125,-0.13702392578125,-0.213470458984375
1751015584791141000,7.53514111328125,-1.3253936767578125,-0.1365203857421875,-0.2208099365234375
1751015584801084200,7.545084228515625,-1.324249267578125,-0.1292724609375,-0.21954345703125
1751015584811027000,7.55502685546875,-1.31842041015625,-0.1195526123046875,-0.213287353515625
1751015584820971000,7.564970947265625,-1.31219482421875,-0.109283447265625,-0.2105255126953125
1751015584830914000,7.5749140625,-1.30133056640625,-0.1009674072265625,-0.2100830078125
1751015584840857000,7.584857177734375,-1.276397705078125,-0.0962371826171875,-0.215118408203125
1751015584850800000,7.594800048828125,-1.2456207275390625,-0.09466552734375,-0.2274322509765625
1751015584860743200,7.6047431640625,-1.20770263671875,-0.0946044921875,-0.2371063232421875
1751015584870687000,7.61468701171875,-1.1636810302734375,-0.0984954833984375,-0.2370758056640625
1751015584880630000,7.624630126953125,-1.119873046875,-0.10498046875,-0.230865478515625
1751015584890573000,7.634572998046875,-1.079315185546875,-0.111968994140625,-0.216156005859375
1751015584900516000,7.64451611328125,-1.032806396484375,-0.1241912841796875,-0.1981201171875
1751015584910459100,7.654459228515625,-0.9817962646484375,-0.1353302001953125,-0.1865692138671875
1751015584920402200,7.664402099609375,-0.936126708984375,-0.1419219970703125,-0.1751556396484375
1751015584930346000,7.674345947265625,-0.88519287109375,-0.14495849609375,-0.1558837890625
1751015584940289000,7.6842890625,-0.8301239013671875,-0.1515655517578125,-0.13970947265625
1751015584950232000,7.694232177734375,-0.774444580078125,-0.157379150390625,-0.1304931640625
1751015584960175000,7.704175048828125,-0.7254638671875,-0.15679931640625,-0.118621826171875
1751015584970118100,7.7141181640625,-0.67822265625,-0.15673828125,-0.1083831787109375
1751015584980062000,7.72406201171875,-0.6349639892578125,-0.158660888671875,-0.0930938720703125
1751015584990005000,7.7340048828125,-0.5924224853515625,-0.163909912109375,-0.073028564453125
1751015584999948000,7.743947998046875,-0.561370849609375,-0.17156982421875,-0.0572357177734375
1751015585009891000,7.75389111328125,-0.5466766357421875,-0.1739044189453125,-0.0390167236328125
1751015585019834000,7.763834228515625,-0.5402984619140625,-0.1751556396484375,-0.0128173828125
1751015585029778000,7.77377783203125,-0.5399169921875,-0.1797027587890625,0.01531982421875
1751015585039721000,7.783720947265625,-0.5434112548828125,-0.185791015625,0.0330047607421875
1751015585049664000,7.7936640625,-0.5612640380859375,-0.1934814453125,0.0373687744140625
1751015585059607000,7.80360693359375,-0.58074951171875,-0.2003936767578125,0.0412445068359375
1751015585069550000,7.813550048828125,-0.6057281494140625,-0.207183837890625,0.0469207763671875
1751015585079493000,7.8234931640625,-0.63946533203125,-0.217926025390625,0.0472564697265625
1751015585089437000,7.83343701171875,-0.6776275634765625,-0.2301483154296875,0.0395355224609375
1751015585099380000,7.8433798828125,-0.7171783447265625,-0.2392120361328125,0.02288818359375
1751015585109323000,7.853322998046875,-0.767547607421875,-0.2407073974609375,0.002593994140625
1751015585119266000,7.86326611328125,-0.8182525634765625,-0.2410736083984375,-0.0132904052734375
1751015585129209000,7.873208984375,-0.8650054931640625,-0.24444580078125,-0.0240020751953125
1751015585139153000,7.88315283203125,-0.9237518310546875,-0.2499542236328125,-0.024383544921875
1751015585149096000,7.893095947265625,-0.9918212890625,-0.2523956298828125,-0.0181884765625
1751015585159039000,7.9030390625,-1.04730224609375,-0.2531585693359375,-0.011016845703125
1751015585168982000,7.91298193359375,-1.0895843505859375,-0.25677490234375,-0.0128021240234375
1751015585178925000,7.922925048828125,-1.131622314453125,-0.2603912353515625,-0.013214111328125
1751015585188869000,7.932869140625,-1.1652679443359375,-0.25457763671875,-0.0121307373046875
1751015585198812000,7.94281201171875,-1.1863861083984375,-0.2534332275390625,-0.0101470947265625
1751015585208755000,7.9527548828125,-1.20245361328125,-0.256988525390625,-0.0053863525390625
1751015585218698000,7.962697998046875,-1.23016357421875,-0.2479248046875,-0.004913330078125
1751015585228641000,7.97264111328125,-1.268951416015625,-0.221954345703125,-0.0037841796875
1751015585238584000,7.982583984375,-1.3115692138671875,-0.1988372802734375,-0.016448974609375
1751015585248528100,7.992528076171875,-1.3582763671875,-0.1894989013671875,-0.0363311767578125
1751015585258471000,8.002470947265625,-1.39697265625,-0.19305419921875,-0.046630859375
1751015585268414000,8.0124140625,-1.4183807373046875,-0.2012176513671875,-0.0420379638671875
1751015585278357000,8.02235693359375,-1.4227752685546875,-0.2089691162109375,-0.0412139892578125
1751015585288300000,8.032300048828125,-1.4174652099609375,-0.2086181640625,-0.0451507568359375
1751015585298244000,8.042244140625,-1.395233154296875,-0.203582763671875,-0.04949951171875
1751015585308187000,8.052186767578124,-1.3629150390625,-0.20074462890625,-0.044891357421875
1751015585318130000,8.0621298828125,-1.32928466796875,-0.1917724609375,-0.02386474609375
1751015585328073000,8.072072998046876,-1.2912750244140625,-0.1746063232421875,0.0086517333984375
1751015585338016000,8.08201611328125,-1.2463226318359375,-0.160125732421875,0.028656005859375
1751015585347960000,8.0919599609375,-1.199859619140625,-0.152099609375,0.0384674072265625
1751015585357903000,8.101903076171874,-1.161346435546875,-0.1464996337890625,0.0487060546875
1751015585367846000,8.111845947265625,-1.13702392578125,-0.1436767578125,0.0551300048828125
1751015585377789000,8.121788818359375,-1.1195831298828125,-0.136474609375,0.0552215576171875
1751015585387732000,8.13173193359375,-1.106109619140625,-0.1272735595703125,0.0520172119140625
1751015585397675000,8.141675048828125,-1.09344482421875,-0.1230926513671875,0.0460205078125
1751015585407619000,8.151619140625,-1.0843963623046875,-0.1259613037109375,0.03546142578125
1751015585417562000,8.16156201171875,-1.0769805908203125,-0.1319122314453125,0.024078369140625
1751015585427505000,8.1715048828125,-1.0745086669921875,-0.1427764892578125,0.01641845703125
1751015585437448000,8.181447998046876,-1.0762786865234375,-0.1541595458984375,0.004425048828125
1751015585447391000,8.191390869140625,-1.0802001953125,-0.160430908203125,-0.0096282958984375
1751015585457335000,8.2013349609375,-1.0698089599609375,-0.15777587890625,-0.02496337890625
1751015585467282000,8.211281982421875,-1.0440521240234375,-0.1499481201171875,-0.0415191650390625
1751015585477224700,8.221224609375,-1.0071868896484375,-0.1400604248046875,-0.053955078125
1751015585487167500,8.23116748046875,-0.9637451171875,-0.129730224609375,-0.0653228759765625
1751015585497110500,8.241110595703125,-0.9202423095703125,-0.119171142578125,-0.068115234375
1751015585507054800,8.251054931640626,-0.8767547607421875,-0.1067962646484375,-0.0633392333984375
1751015585516998000,8.260997802734375,-0.835357666015625,-0.093017578125,-0.0591888427734375
1751015585526941000,8.27094091796875,-0.7937469482421875,-0.0812225341796875,-0.0556182861328125
1751015585536883700,8.2808837890625,-0.7498626708984375,-0.0749664306640625,-0.0470733642578125
1751015585546826500,8.290826416015625,-0.711700439453125,-0.07220458984375,-0.0385284423828125
1751015585556770800,8.300770751953126,-0.6791229248046875,-0.070343017578125,-0.0327606201171875
1751015585566713900,8.3107138671875,-0.6595611572265625,-0.070281982421875,-0.0224609375
1751015585576657000,8.320656982421875,-0.65484619140625,-0.071624755859375,0.0016937255859375
1751015585586600000,8.330599853515626,-0.6427764892578125,-0.07171630859375,0.01971435546875
1751015585596542700,8.340542724609374,-0.629791259765625,-0.076446533203125,0.0159149169921875
1751015585606485500,8.350485595703125,-0.6316070556640625,-0.0852813720703125,-0.0010223388671875
1751015585616429800,8.360429931640626,-0.643035888671875,-0.0954437255859375,-0.0223388671875
1751015585626372900,8.370372802734375,-0.6556243896484375,-0.1022186279296875,-0.0436859130859375
1751015585636316000,8.38031591796875,-0.67352294921875,-0.1108245849609375,-0.0582733154296875
1751015585646258700,8.3902587890625,-0.693145751953125,-0.121307373046875,-0.0663299560546875
1751015585656201700,8.40020166015625,-0.714599609375,-0.1297760009765625,-0.070220947265625
1751015585666145800,8.410145751953126,-0.7382354736328125,-0.1396484375,-0.0560455322265625
1751015585676088800,8.4200888671875,-0.757659912109375,-0.149139404296875,-0.042816162109375
1751015585686032000,8.430031982421875,-0.7788848876953125,-0.1549530029296875,-0.033416748046875
1751015585695975000,8.439974853515626,-0.8069610595703125,-0.1648406982421875,-0.0097503662109375
1751015585705917700,8.449917724609374,-0.843170166015625,-0.1740875244140625,0.0197296142578125
1751015585715860500,8.459860595703125,-0.8823089599609375,-0.17578125,0.0463104248046875
1751015585725804800,8.4698046875,-0.9083404541015625,-0.177032470703125,0.053375244140625
1751015585735747800,8.479747802734375,-0.933837890625,-0.1754608154296875,0.04412841796875
1751015585745691000,8.48969091796875,-0.9820709228515625,-0.1671905517578125,0.03863525390625
1751015585755633700,8.499633544921876,-1.040863037109375,-0.1553955078125,0.0329437255859375
1751015585765576700,8.50957666015625,-1.083709716796875,-0.1475677490234375,0.0177764892578125
1751015585775520800,8.519520751953126,-1.1316070556640625,-0.1419219970703125,-0.0017547607421875
1751015585785463800,8.5294638671875,-1.1882171630859375,-0.136932373046875,-0.0172882080078125
1751015585795406800,8.53940673828125,-1.2360687255859375,-0.129241943359375,-0.0283660888671875
1751015585805350000,8.549349853515626,-1.2776641845703125,-0.1260833740234375,-0.0455780029296875
1751015585815292700,8.559292724609374,-1.3240203857421875,-0.1284637451171875,-0.0701141357421875
1751015585825236700,8.56923681640625,-1.3656005859375,-0.1334381103515625,-0.0960693359375
1751015585835179800,8.5791796875,-1.391326904296875,-0.1403656005859375,-0.1193084716796875
1751015585845122800,8.589122802734375,-1.4012298583984375,-0.1449127197265625,-0.1371917724609375
1751015585855065900,8.59906591796875,-1.3971405029296875,-0.1438751220703125,-0.1568603515625
1751015585865008600,8.609008544921876,-1.3868560791015625,-0.137054443359375,-0.173919677734375
1751015585874951700,8.61895166015625,-1.3701629638671875,-0.134735107421875,-0.186859130859375
1751015585884895700,8.628895751953126,-1.353515625,-0.13629150390625,-0.1935272216796875
1751015585894838800,8.6388388671875,-1.32855224609375,-0.14129638671875,-0.19439697265625
1751015585904781800,8.64878173828125,-1.293487548828125,-0.1461334228515625,-0.198272705078125
1751015585914724900,8.658724853515626,-1.259857177734375,-0.144256591796875,-0.205780029296875
1751015585924667600,8.668667724609374,-1.2248077392578125,-0.1444549560546875,-0.20465087890625
1751015585934611700,8.67861181640625,-1.19647216796875,-0.144439697265625,-0.2030792236328125
1751015585944554800,8.6885546875,-1.1710205078125,-0.149383544921875,-0.2016143798828125
1751015585954497800,8.698497802734375,-1.1496734619140625,-0.1598052978515625,-0.2014923095703125
1751015585964440800,8.70844091796875,-1.1290435791015625,-0.1671600341796875,-0.2046661376953125
1751015585974383600,8.718383544921876,-1.1085662841796875,-0.1681671142578125,-0.2032470703125
1751015585984327700,8.72832763671875,-1.085662841796875,-0.1687774658203125,-0.1919403076171875
1751015585994270700,8.738270751953126,-1.0558319091796875,-0.1677703857421875,-0.1811065673828125
1751015586004213800,8.7482138671875,-1.0236053466796875,-0.16558837890625,-0.1693115234375
1751015586014156800,8.75815673828125,-0.9831390380859375,-0.1627197265625,-0.1544952392578125
1751015586024099800,8.768099853515626,-0.93402099609375,-0.157928466796875,-0.1419677734375
1751015586034042600,8.778042724609374,-0.88262939453125,-0.1513519287109375,-0.1309051513671875
1751015586043986700,8.787986572265625,-0.8273773193359375,-0.1436614990234375,-0.1162872314453125
1751015586053929700,8.7979296875,-0.776947021484375,-0.1380462646484375,-0.099365234375
1751015586063872800,8.807872802734375,-0.7317657470703125,-0.134765625,-0.0790863037109375
1751015586073815800,8.81781591796875,-0.69232177734375,-0.137603759765625,-0.0585479736328125
1751015586083758600,8.827758544921876,-0.65924072265625,-0.14434814453125,-0.036376953125
1751015586093703000,8.837702880859375,-0.62677001953125,-0.1517181396484375,-0.01470947265625
1751015586103645700,8.847645751953126,-0.5975189208984375,-0.160308837890625,0.002532958984375
1751015586113588700,8.857588623046874,-0.577362060546875,-0.1686248779296875,0.0105133056640625
1751015586123531800,8.86753173828125,-0.568267822265625,-0.1797637939453125,0.014801025390625
1751015586133474800,8.877474853515626,-0.566009521484375,-0.193511962890625,0.0173187255859375
1751015586143419000,8.8874189453125,-0.5796661376953125,-0.209991455078125,0.020782470703125
1751015586153362000,8.89736181640625,-0.5999603271484375,-0.2220611572265625,0.0287933349609375
1751015586163304700,8.9073046875,-0.6212005615234375,-0.231719970703125,0.0354156494140625
1751015586173247700,8.917247802734375,-0.6452484130859375,-0.2372283935546875,0.0355072021484375
1751015586183190800,8.927190673828125,-0.6805572509765625,-0.2356719970703125,0.0294036865234375
1751015586193133600,8.937133544921876,-0.724761962890625,-0.230010986328125,0.0160369873046875
1751015586203078000,8.947077880859375,-0.7766876220703125,-0.2217254638671875,0.0152435302734375
1751015586213021000,8.95702099609375,-0.8317718505859375,-0.2097320556640625,0.0245361328125
1751015586222963700,8.966963623046874,-0.8716278076171875,-0.1992950439453125,0.0196990966796875
1751015586232906800,8.97690673828125,-0.9104156494140625,-0.1909942626953125,0.0062103271484375
1751015586242849800,8.986849853515626,-0.95831298828125,-0.1842498779296875,-0.0095062255859375
1751015586252793900,8.9967939453125,-1.0051116943359375,-0.18768310546875,-0.0134735107421875
1751015586262737000,9.00673681640625,-1.0484619140625,-0.2000732421875,-0.0131683349609375
1751015586272679700,9.0166796875,-1.0943145751953125,-0.2103729248046875,0.00128173828125
1751015586282622700,9.026622802734375,-1.130950927734375,-0.2207489013671875,0.0201416015625
1751015586292565800,9.036565673828125,-1.1705322265625,-0.2312164306640625,0.0292510986328125
1751015586302509800,9.046509765625,-1.21466064453125,-0.2362518310546875,0.024383544921875
1751015586312452900,9.056452880859375,-1.25946044921875,-0.2407684326171875,0.0145416259765625
1751015586322396000,9.06639599609375,-1.2972412109375,-0.2465057373046875,0.0045013427734375
1751015586332338700,9.076338623046874,-1.3317413330078125,-0.248046875,-0.00299072265625
1751015586342281700,9.08628173828125,-1.365203857421875,-0.245574951171875,-0.010406494140625
1751015586352225800,9.096225830078126,-1.3913116455078125,-0.239990234375,-0.02545166015625
1751015586362168800,9.1061689453125,-1.41119384765625,-0.2365875244140625,-0.0470123291015625
1751015586372112000,9.11611181640625,-1.4179840087890625,-0.241180419921875,-0.063873291015625
1751015586382055000,9.126054931640626,-1.4022674560546875,-0.2519683837890625,-0.0763397216796875
1751015586391997700,9.135997802734375,-1.3728485107421875,-0.263427734375,-0.08258056640625
1751015586401940700,9.145940673828125,-1.34234619140625,-0.2729949951171875,-0.0830841064453125
1751015586411884800,9.155884765625,-1.313385009765625,-0.28289794921875,-0.069549560546875
1751015586421827800,9.165827880859375,-1.2778472900390625,-0.2868499755859375,-0.050628662109375
1751015586431771000,9.17577099609375,-1.2547454833984375,-0.2718963623046875,-0.0320587158203125
1751015586441714000,9.1857138671875,-1.2300872802734375,-0.242034912109375,-0.001312255859375
1751015586451656700,9.19565673828125,-1.1807708740234375,-0.2175445556640625,0.026092529296875
1751015586461600800,9.205600830078126,-1.133331298828125,-0.19891357421875,0.03851318359375
1751015586471539700,9.215539794921876,-1.104705810546875,-0.1691741943359375,0.0407257080078125
1751015586481482800,9.225482666015624,-1.0660552978515625,-0.1390228271484375,0.0416717529296875
1751015586491425800,9.23542578125,-1.035919189453125,-0.1248779296875,0.045166015625
1751015586501368800,9.245368896484376,-1.0169525146484375,-0.1156768798828125,0.043701171875
1751015586511312600,9.255312744140625,-1.0058746337890625,-0.1123199462890625,0.0430908203125
1751015586521255700,9.265255615234375,-1.010345458984375,-0.1169891357421875,0.0551300048828125
1751015586531198700,9.27519873046875,-1.032989501953125,-0.1334686279296875,0.065673828125
1751015586541141800,9.285141845703125,-1.048553466796875,-0.14599609375,0.0632781982421875
1751015586551084800,9.295084716796875,-1.0709686279296875,-0.1483154296875,0.048004150390625
1751015586561028600,9.305028564453124,-1.1067962646484375,-0.14801025390625,0.0327606201171875
1751015586570971600,9.3149716796875,-1.143524169921875,-0.15216064453125,0.02197265625
1751015586580914700,9.324914794921876,-1.16693115234375,-0.148284912109375,0.020416259765625
1751015586590857700,9.334857666015624,-1.17431640625,-0.1338958740234375,0.008453369140625
1751015586600800800,9.34480078125,-1.1696319580078125,-0.111297607421875,-0.014617919921875
1751015586610743800,9.354743896484376,-1.1435089111328125,-0.0863494873046875,-0.0340576171875
1751015586620687600,9.3646875,-1.0891876220703125,-0.0681304931640625,-0.045074462890625
1751015586630630700,9.374630615234375,-1.027374267578125,-0.056610107421875,-0.051025390625
1751015586640573700,9.38457373046875,-0.965118408203125,-0.0524749755859375,-0.04302978515625
1751015586650516700,9.394516845703125,-0.9229278564453125,-0.05902099609375,-0.0258331298828125
1751015586660459800,9.404459716796875,-0.8731231689453125,-0.07000732421875,-0.0144805908203125
1751015586670403800,9.41440380859375,-0.8248443603515625,-0.0775604248046875,-0.0173797607421875
1751015586680346600,9.4243466796875,-0.7877197265625,-0.08087158203125,-0.01458740234375
1751015586690289700,9.43428955078125,-0.759979248046875,-0.0830841064453125,-0.012603759765625
1751015586700232700,9.444232666015624,-0.7371673583984375,-0.0886993408203125,-0.0079803466796875
1751015586710175700,9.45417578125,-0.7133026123046875,-0.093505859375,0.0019378662109375
1751015586720120000,9.4641201171875,-0.6938629150390625,-0.0956268310546875,0.007598876953125
1751015586730062800,9.474062744140625,-0.68359375,-0.0963897705078125,0.0023193359375
1751015586740005600,9.484005615234375,-0.6855010986328125,-0.0922088623046875,-0.0176849365234375
1751015586749948700,9.49394873046875,-0.690826416015625,-0.0831298828125,-0.03753662109375
1751015586759891700,9.5038916015625,-0.6890869140625,-0.0779571533203125,-0.0567779541015625
1751015586769836000,9.5138359375,-0.6928253173828125,-0.079010009765625,-0.071197509765625
1751015586779778800,9.52377880859375,-0.7086944580078125,-0.07916259765625,-0.072418212890625
1751015586789721600,9.5337216796875,-0.721405029296875,-0.0825042724609375,-0.0727996826171875
1751015586799664600,9.54366455078125,-0.7205047607421875,-0.0946044921875,-0.079864501953125
1751015586809607700,9.553607666015624,-0.728485107421875,-0.1088714599609375,-0.087799072265625
1751015586819550700,9.56355078125,-0.731903076171875,-0.119659423828125,-0.0943756103515625
1751015586829495000,9.5734951171875,-0.7442626953125,-0.131439208984375,-0.0840301513671875
1751015586839437800,9.583437744140625,-0.7523651123046875,-0.1427459716796875,-0.0676422119140625
1751015586849380600,9.593380615234375,-0.767242431640625,-0.1559600830078125,-0.047698974609375
1751015586859323600,9.60332373046875,-0.7991943359375,-0.1635284423828125,-0.003082275390625
1751015586869266700,9.6132666015625,-0.8404388427734375,-0.1569671630859375,0.03887939453125
1751015586879211000,9.6232109375,-0.8792877197265625,-0.1405029296875,0.05084228515625
1751015586889153800,9.63315380859375,-0.906280517578125,-0.124908447265625,0.0452728271484375
1751015586899096800,9.643096923828125,-0.93731689453125,-0.119232177734375,0.0230865478515625
1751015586909039600,9.65303955078125,-0.9860992431640625,-0.12518310546875,-0.00799560546875
1751015586918982700,9.662982666015624,-1.0417022705078125,-0.1363372802734375,-0.0230255126953125
1751015586928927000,9.672927001953125,-1.0980072021484375,-0.1444244384765625,-0.0302581787109375
1751015586938870000,9.6828701171875,-1.148223876953125,-0.144439697265625,-0.0351715087890625
1751015586948812800,9.692812744140625,-1.19390869140625,-0.1435394287109375,-0.04254150390625
1751015586958755800,9.702755859375,-1.2246246337890625,-0.152679443359375,-0.052337646484375
1751015586968698600,9.71269873046875,-1.2639617919921875,-0.167724609375,-0.05340576171875
1751015586978643000,9.722642822265625,-1.3143157958984375,-0.1715545654296875,-0.05303955078125
1751015586988586000,9.7325859375,-1.3592071533203125,-0.16021728515625,-0.052337646484375
1751015586998528800,9.74252880859375,-1.4063262939453125,-0.13629150390625,-0.040557861328125
1751015587008471800,9.752471923828125,-1.44464111328125,-0.11029052734375,-0.0316619873046875
1751015587018414800,9.762414794921876,-1.4630584716796875,-0.087066650390625,-0.031707763671875
1751015587028359000,9.77235888671875,-1.4670562744140625,-0.066375732421875,-0.052215576171875
1751015587038302000,9.782302001953125,-1.42071533203125,-0.0449066162109375,-0.0925750732421875
1751015587048245000,9.792244873046876,-1.348297119140625,-0.031341552734375,-0.14752197265625
1751015587058187800,9.802187744140625,-1.265350341796875,-0.0343017578125,-0.19317626953125
1751015587068130800,9.812130859375,-1.17742919921875,-0.054168701171875,-0.2163848876953125
1751015587078073900,9.822073974609374,-1.1045379638671875,-0.083465576171875,-0.2137298583984375
1751015587088018000,9.832017822265625,-1.07061767578125,-0.1226959228515625,-0.1724395751953125
1751015587097961000,9.8419609375,-1.05584716796875,-0.16094970703125,-0.132354736328125
1751015587107903700,9.85190380859375,-1.0581207275390625,-0.1949920654296875,-0.1243743896484375
1751015587117846800,9.8618466796875,-1.074005126953125,-0.2271575927734375,-0.108367919921875
1751015587127789800,9.871789794921876,-1.08978271484375,-0.2504425048828125,-0.085845947265625
1751015587137734000,9.88173388671875,-1.1131134033203125,-0.270599365234375,-0.0772857666015625
1751015587147677000,9.891677001953125,-1.1636505126953125,-0.29327392578125,-0.084228515625
1751015587157620000,9.901619873046876,-1.22100830078125,-0.314300537109375,-0.096343994140625
1751015587167562800,9.911562744140625,-1.2487640380859375,-0.3203887939453125,-0.1063995361328125
1751015587177505800,9.921505859375,-1.262115478515625,-0.2994384765625,-0.118499755859375
1751015587187449900,9.931449951171874,-1.2754058837890625,-0.264007568359375,-0.1218109130859375
1751015587197393000,9.941392822265625,-1.251190185546875,-0.2297515869140625,-0.1223602294921875
1751015587207336000,9.9513359375,-1.2135467529296875,-0.1884002685546875,-0.128692626953125
1751015587217278700,9.96127880859375,-1.160247802734375,-0.1394195556640625,-0.1399688720703125
1751015587227221800,9.9712216796875,-1.0800933837890625,-0.095062255859375,-0.143524169921875
1751015587237164800,9.981164794921876,-1.0023651123046875,-0.067138671875,-0.1312713623046875
1751015587247108900,9.99110888671875,-0.93243408203125,-0.053863525390625,-0.103240966796875
1751015587257052000,10.001052001953125,-0.859649658203125,-0.054443359375,-0.0709381103515625
1751015587266995000,10.010994873046876,-0.7957611083984375,-0.0615997314453125,-0.035888671875
1751015587276937700,10.020937744140625,-0.7544708251953125,-0.078033447265625,0.0020904541015625
1751015587286880800,10.030880859375,-0.70758056640625,-0.1077423095703125,0.03033447265625
1751015587296824800,10.040824951171874,-0.6624908447265625,-0.145233154296875,0.04010009765625
1751015587306768000,10.050767822265625,-0.647705078125,-0.1744842529296875,0.0445404052734375
1751015587316711000,10.0607109375,-0.6495208740234375,-0.196685791015625,0.04949951171875
1751015587326653700,10.07065380859375,-0.64813232421875,-0.2185516357421875,0.0543365478515625
1751015587336596700,10.0805966796875,-0.6692657470703125,-0.234130859375,0.06512451171875
1751015587346540800,10.090540771484376,-0.7204132080078125,-0.239166259765625,0.0718536376953125
1751015587356483800,10.10048388671875,-0.803253173828125,-0.2430419921875,0.06982421875
1751015587366427000,10.110427001953125,-0.89849853515625,-0.249298095703125,0.0982818603515625
1751015587376370000,10.120369873046876,-0.949554443359375,-0.237274169921875,0.1097412109375
1751015587386312700,10.130312744140625,-0.9895477294921875,-0.2103424072265625,0.066131591796875
1751015587396257000,10.140257080078126,-1.0183563232421875,-0.18505859375,0.01031494140625
1751015587406199800,10.15019970703125,-1.0301055908203125,-0.172271728515625,-0.039642333984375
1751015587416142800,10.160142822265625,-1.037017822265625,-0.1655731201171875,-0.0627288818359375
1751015587426086000,10.1700859375,-1.072601318359375,-0.156219482421875,-0.02777099609375
1751015587436028700,10.180028564453124,-1.0918426513671875,-0.144989013671875,0.02398681640625
1751015587445971700,10.1899716796875,-1.1082000732421875,-0.1435546875,0.0570526123046875
1751015587455916000,10.199916015625,-1.12396240234375,-0.1413421630859375,0.0708465576171875
1751015587465858800,10.20985888671875,-1.1359710693359375,-0.134979248046875,0.0644073486328125
1751015587475801600,10.219801513671875,-1.14801025390625,-0.1288909912109375,0.0575103759765625
1751015587485744600,10.22974462890625,-1.1842041015625,-0.1177520751953125,0.0574798583984375
1751015587495687700,10.239687744140625,-1.190765380859375,-0.1059112548828125,0.0454254150390625
1751015587505631700,10.2496318359375,-1.142669677734375,-0.1052093505859375,0.0162353515625
1751015587515574800,10.25957470703125,-1.0871734619140625,-0.1083221435546875,-0.00347900390625
1751015587525517800,10.269517822265625,-1.0382843017578125,-0.124755859375,-0.0076141357421875
1751015587535460600,10.279460693359376,-0.9918975830078125,-0.15216064453125,0.0055694580078125
1751015587545403600,10.289403564453124,-0.95037841796875,-0.1813507080078125,0.02923583984375
1751015587555347700,10.29934765625,-0.938018798828125,-0.206756591796875,0.0634765625
1751015587565290800,10.309290771484376,-0.9534759521484375,-0.229522705078125,0.094757080078125
1751015587575233800,10.31923388671875,-0.960235595703125,-0.23992919921875,0.10882568359375
1751015587585176800,10.3291767578125,-0.958038330078125,-0.238433837890625,0.099761962890625
1751015587595119600,10.33911962890625,-0.986968994140625,-0.2193450927734375,0.0865631103515625
1751015587605063700,10.349063720703125,-1.0452728271484375,-0.17767333984375,0.0581817626953125
1751015587615006700,10.3590068359375,-1.1336822509765625,-0.1287994384765625,0.0301361083984375
1751015587624949800,10.36894970703125,-1.1935882568359375,-0.0854644775390625,0.0300140380859375
1751015587634892800,10.378892822265625,-1.2101287841796875,-0.0629119873046875,0.0255126953125
1751015587644835600,10.388835693359376,-1.20318603515625,-0.062225341796875,-0.0297698974609375
1751015587654779600,10.398779541015625,-1.1735687255859375,-0.074005126953125,-0.07122802734375
1751015587664722700,10.40872265625,-1.181427001953125,-0.0666351318359375,-0.0537872314453125
1751015587674665700,10.418665771484376,-1.2414093017578125,-0.0497894287109375,-0.0248870849609375
1751015587684608800,10.42860888671875,-1.311309814453125,-0.03656005859375,0.008636474609375
1751015587694551800,10.4385517578125,-1.3485260009765625,-0.03692626953125,0.0418548583984375
1751015587704495600,10.44849560546875,-1.362274169921875,-0.064300537109375,0.05389404296875
1751015587714438700,10.458438720703125,-1.4024505615234375,-0.10821533203125,0.046417236328125
1751015587724381700,10.468381591796875,-1.4417266845703125,-0.145599365234375,0.0533599853515625
1751015587734324700,10.47832470703125,-1.4710540771484375,-0.1625823974609375,0.0897369384765625
1751015587744267800,10.488267822265625,-1.476043701171875,-0.169403076171875,0.1399383544921875
1751015587754210800,10.4982109375,-1.4746551513671875,-0.1525115966796875,0.1677093505859375
1751015587764154600,10.508154541015625,-1.4624481201171875,-0.0938873291015625,0.1907958984375
1751015587774097700,10.51809765625,-1.418426513671875,-0.027435302734375,0.19476318359375
1751015587784040700,10.528040771484376,-1.396484375,0.008941650390625,0.18072509765625
1751015587793983700,10.537983642578125,-1.39208984375,0.0238037109375,0.1911468505859375
1751015587803926800,10.5479267578125,-1.3559112548828125,0.064422607421875,0.21099853515625
1751015587813870600,10.55787060546875,-1.2937774658203125,0.1297149658203125,0.227203369140625
1751015587823813600,10.567813720703125,-1.206085205078125,0.1796875,0.216796875
1751015587833756700,10.577756591796875,-1.12249755859375,0.1667938232421875,0.1814422607421875
1751015587843699700,10.58769970703125,-1.033660888671875,0.1628875732421875,0.160369873046875
1751015587853642800,10.597642822265625,-0.9723968505859375,0.146270751953125,0.1113739013671875
1751015587863586600,10.607586669921876,-0.8966827392578125,0.0923004150390625,0.0052032470703125
1751015587873529600,10.617529541015625,-0.8044891357421875,0.02557373046875,-0.068450927734375
1751015587883472600,10.62747265625,-0.709228515625,-0.050384521484375,-0.0501556396484375
1751015587893415700,10.637415771484376,-0.65625,-0.05987548828125,0.031890869140625
1751015587903358700,10.647358642578125,-0.6541900634765625,-0.035400390625,0.0941925048828125
1751015587913302800,10.657302734375,-0.6475982666015625,0.007659912109375,0.1532745361328125
1751015587923245600,10.66724560546875,-0.5966644287109375,0.0134124755859375,0.16162109375
1751015587933188600,10.677188720703125,-0.5319061279296875,-0.0017852783203125,0.1131439208984375
1751015587943131600,10.687131591796875,-0.509002685546875,0.006744384765625,0.0840301513671875
1751015587953074700,10.69707470703125,-0.5254974365234375,0.001220703125,0.09710693359375
1751015587963018800,10.707018798828125,-0.5304718017578125,-0.0508270263671875,0.0964202880859375
1751015587972961800,10.7169619140625,-0.52569580078125,-0.0850830078125,0.1241455078125
1751015587982904600,10.726904541015625,-0.5401153564453125,-0.103973388671875,0.169921875
1751015587992847600,10.73684765625,-0.5642852783203125,-0.13037109375,0.2086944580078125
1751015588002790700,10.746790771484376,-0.58673095703125,-0.1615753173828125,0.2401275634765625
1751015588012733700,10.756733642578125,-0.6043243408203125,-0.1901397705078125,0.262054443359375
1751015588022677800,10.766677734375,-0.6137847900390625,-0.207000732421875,0.2758941650390625
1751015588032620500,10.77662060546875,-0.6050872802734375,-0.2167510986328125,0.2738189697265625
1751015588042563600,10.7865634765625,-0.580474853515625,-0.22125244140625,0.2697296142578125
1751015588052506600,10.796506591796875,-0.5516510009765625,-0.2468719482421875,0.278411865234375
1751015588062449700,10.80644970703125,-0.547393798828125,-0.265594482421875,0.28131103515625
1751015588072393700,10.816393798828125,-0.5465850830078125,-0.2611541748046875,0.3152618408203125
1751015588082336800,10.826336669921876,-0.556182861328125,-0.27154541015625,0.3225250244140625
1751015588092279600,10.836279541015625,-0.5643768310546875,-0.2831268310546875,0.309722900390625
1751015588102222600,10.84622265625,-0.5850982666015625,-0.2832794189453125,0.307403564453125
1751015588112165600,10.85616552734375,-0.6143798828125,-0.2731170654296875,0.303497314453125
1751015588122109700,10.866109619140625,-0.6412506103515625,-0.2550506591796875,0.2917633056640625
1751015588132052700,10.876052734375,-0.662933349609375,-0.241729736328125,0.2813873291015625
1751015588141995800,10.885995849609374,-0.704803466796875,-0.222137451171875,0.2796173095703125
1751015588151938600,10.8959384765625,-0.756134033203125,-0.2004547119140625,0.287139892578125
1751015588161881600,10.905881591796875,-0.7891845703125,-0.1887664794921875,0.297821044921875
1751015588171825700,10.91582568359375,-0.7946929931640625,-0.1967926025390625,0.3182220458984375
1751015588181768700,10.925768798828125,-0.80816650390625,-0.226409912109375,0.353363037109375
1751015588191711700,10.935711669921876,-0.8523101806640625,-0.2510833740234375,0.3780364990234375
1751015588201654800,10.94565478515625,-0.8900299072265625,-0.251251220703125,0.384185791015625
1751015588211597600,10.95559765625,-0.9055938720703125,-0.258453369140625,0.3691558837890625
1751015588221541600,10.965541748046874,-0.9388885498046875,-0.2728271484375,0.349517822265625
1751015588231484700,10.975484619140625,-0.962432861328125,-0.2822265625,0.3292388916015625
1751015588241427700,10.985427734375,-0.971771240234375,-0.279205322265625,0.2960357666015625
1751015588251370800,10.995370849609374,-1.001678466796875,-0.2574005126953125,0.2495574951171875
1751015588261313800,11.005313720703125,-1.0276031494140625,-0.219573974609375,0.1935272216796875
1751015588271256600,11.015256591796875,-1.0139312744140625,-0.16729736328125,0.12896728515625
1751015588281200600,11.02520068359375,-0.984832763671875,-0.110137939453125,0.0762481689453125
1751015588291143700,11.035143798828125,-0.9579010009765625,-0.066619873046875,0.0261077880859375
1751015588301086700,11.045086669921876,-0.9104766845703125,-0.039215087890625,-0.0104217529296875
1751015588311029800,11.05502978515625,-0.8665771484375,-0.0255279541015625,-0.02996826171875
1751015588320973600,11.0649736328125,-0.8233642578125,-0.023895263671875,-0.037017822265625
1751015588330916600,11.07491650390625,-0.7779693603515625,-0.024688720703125,-0.0482177734375
1751015588340859600,11.084859619140625,-0.742156982421875,-0.0323028564453125,-0.0477294921875
1751015588350802700,11.094802734375,-0.714599609375,-0.0673828125,-0.0329742431640625
1751015588360745700,11.104745849609374,-0.6905364990234375,-0.116455078125,-0.0589599609375
1751015588370688800,11.114688720703125,-0.714599609375,-0.1429595947265625,-0.1206207275390625
1751015588380632600,11.124632568359376,-0.760406494140625,-0.1403045654296875,-0.1647491455078125
1751015588390575600,11.13457568359375,-0.7868194580078125,-0.1168365478515625,-0.161834716796875
1751015588400518700,11.1445185546875,-0.7847442626953125,-0.085723876953125,-0.13641357421875
1751015588410461700,11.154461669921876,-0.7803192138671875,-0.041595458984375,-0.1151580810546875
1751015588420404700,11.16440478515625,-0.796539306640625,0.0148468017578125,-0.0875244140625
1751015588430348500,11.1743486328125,-0.8383636474609375,0.0717010498046875,-0.0490264892578125
1751015588440291600,11.18429150390625,-0.8978729248046875,0.1108856201171875,0.0095062255859375
1751015588450234600,11.194234619140625,-0.9829559326171875,0.1186981201171875,0.0093536376953125
1751015588460177700,11.204177734375,-1.05059814453125,0.13909912109375,-0.0244293212890625
1751015588470120400,11.214120361328124,-1.09332275390625,0.1721343994140625,-0.05364990234375
1751015588480064500,11.224064453125,-1.1309051513671875,0.191741943359375,-0.0746612548828125
1751015588490007300,11.23400732421875,-1.178741455078125,0.2148284912109375,-0.069976806640625
1751015588499950300,11.243950439453124,-1.2228240966796875,0.233154296875,-0.057708740234375
1751015588509893400,11.253893310546875,-1.2465362548828125,0.2377471923828125,-0.0398406982421875
1751015588519836400,11.26383642578125,-1.2624359130859375,0.22705078125,-0.019744873046875
1751015588529780500,11.273780517578125,-1.2609405517578125,0.2033233642578125,0.0021209716796875
1751015588539723500,11.2837236328125,-1.2506561279296875,0.1739501953125,0.022705078125
1751015588549666300,11.293666259765626,-1.2225189208984375,0.1463623046875,0.0468902587890625
1751015588559609300,11.303609375,-1.1827392578125,0.1119384765625,0.0833892822265625
1751015588569552400,11.313552490234375,-1.1450958251953125,0.0722808837890625,0.1138153076171875
1751015588579496400,11.323496337890624,-1.1198883056640625,0.0347442626953125,0.146270751953125
1751015588589439500,11.333439453125,-1.091033935546875,-0.0016021728515625,0.1650543212890625
1751015588599382500,11.343382568359376,-1.0458984375,-0.0397796630859375,0.1707611083984375
1751015588609325300,11.3533251953125,-1.0201416015625,-0.0556182861328125,0.1842803955078125
1751015588619268400,11.363268310546875,-1.0173187255859375,-0.04510498046875,0.2122802734375
1751015588629211400,11.37321142578125,-1.0234832763671875,-0.0346832275390625,0.2310638427734375
1751015588639155500,11.383155517578125,-1.012786865234375,-0.0424652099609375,0.2192840576171875
1751015588649098500,11.393098388671875,-1.0283660888671875,-0.053497314453125,0.175445556640625
1751015588659041300,11.403041259765626,-1.0587615966796875,-0.0547637939453125,0.1358642578125
1751015588668984300,11.412984375,-1.056182861328125,-0.0657958984375,0.073028564453125
1751015588678927400,11.42292724609375,-1.047119140625,-0.0923919677734375,0.03173828125
1751015588688871400,11.432871337890624,-1.065277099609375,-0.1067047119140625,0.024200439453125
1751015588698814500,11.442814453125,-1.058929443359375,-0.1067047119140625,0.01702880859375
1751015588708757500,11.452757568359376,-1.03118896484375,-0.0934295654296875,0.0115814208984375
1751015588718700300,11.4627001953125,-1.023468017578125,-0.0765380859375,0.0246429443359375
1751015588728643300,11.472643310546875,-1.023773193359375,-0.067657470703125,0.0427398681640625
1751015588738587400,11.48258740234375,-1.0199432373046875,-0.0623321533203125,0.0514068603515625
1751015588748530400,11.492530517578125,-1.02655029296875,-0.0721282958984375,0.055023193359375
1751015588758473500,11.502473388671875,-1.0597991943359375,-0.0978546142578125,0.0347747802734375
1751015588768416500,11.51241650390625,-1.0869598388671875,-0.1083984375,0.007598876953125
1751015588778359300,11.522359375,-1.0866851806640625,-0.1082305908203125,-0.0237579345703125
1751015588788303400,11.532303466796876,-1.08056640625,-0.107696533203125,-0.0404815673828125
1751015588798246400,11.542246337890624,-1.0796051025390625,-0.1016082763671875,-0.0384979248046875
1751015588808189400,11.552189453125,-1.0840606689453125,-0.08404541015625,-0.0252532958984375
1751015588818132500,11.562132568359376,-1.0698089599609375,-0.0714263916015625,-0.0175323486328125
1751015588828075500,11.572075439453124,-1.05322265625,-0.0640869140625,-0.0199737548828125
1751015588838019300,11.582019287109375,-1.0557403564453125,-0.059661865234375,-0.00408935546875
1751015588847962400,11.59196240234375,-1.054412841796875,-0.060699462890625,0.038421630859375
1751015588857905400,11.601905517578125,-1.0621490478515625,-0.0581207275390625,0.104217529296875
1751015588867848400,11.611848388671875,-1.09454345703125,-0.0641021728515625,0.1320037841796875
1751015588877791500,11.62179150390625,-1.110809326171875,-0.0727081298828125,0.1508026123046875
1751015588887735300,11.6317353515625,-1.0859222412109375,-0.09405517578125,0.1667938232421875
1751015588897678300,11.64167822265625,-1.0679473876953125,-0.1148529052734375,0.16387939453125
1751015588907621400,11.651621337890624,-1.06024169921875,-0.1249847412109375,0.1439971923828125
1751015588917564400,11.661564453125,-1.05078125,-0.13458251953125,0.1118927001953125
1751015588927507500,11.671507568359376,-1.068023681640625,-0.12353515625,0.0931243896484375
1751015588937451300,11.681451171875,-1.1136474609375,-0.10028076171875,0.083892822265625
1751015588947394300,11.691394287109375,-1.1693115234375,-0.10986328125,0.072479248046875
1751015588957337300,11.70133740234375,-1.2259674072265625,-0.1207275390625,0.0631561279296875
1751015588967280400,11.7112802734375,-1.259063720703125,-0.1044921875,0.0334014892578125
1751015588977223400,11.721223388671875,-1.29290771484375,-0.072021484375,-0.0150604248046875
1751015588987166500,11.73116650390625,-1.3397674560546875,-0.0400238037109375,-0.05621337890625
1751015588997110300,11.7411103515625,-1.3952789306640625,-0.018890380859375,-0.0769195556640625
1751015589007053300,11.75105322265625,-1.4534454345703125,0.000640869140625,-0.087646484375
1751015589016996400,11.760996337890624,-1.511566162109375,0.039337158203125,-0.099639892578125
1751015589026939400,11.770939453125,-1.5539703369140625,0.089874267578125,-0.1226348876953125
1751015589036882400,11.78088232421875,-1.570892333984375,0.1338958740234375,-0.1656951904296875
1751015589046826200,11.790826171875,-1.566375732421875,0.1667022705078125,-0.215850830078125
1751015589056769300,11.800769287109375,-1.5318145751953125,0.183135986328125,-0.2664031982421875
1751015589066712300,11.81071240234375,-1.483612060546875,0.190826416015625,-0.299072265625
1751015589076655400,11.8206552734375,-1.419525146484375,0.1872100830078125,-0.310638427734375
1751015589086598400,11.830598388671875,-1.345001220703125,0.169647216796875,-0.300506591796875
1751015589096542500,11.84054248046875,-1.26763916015625,0.14447021484375,-0.2664794921875
1751015589106485200,11.8504853515625,-1.188995361328125,0.11773681640625,-0.2286834716796875
1751015589116428300,11.86042822265625,-1.12432861328125,0.091949462890625,-0.2059173583984375
1751015589126371300,11.870371337890624,-1.065704345703125,0.0611724853515625,-0.17431640625
1751015589136314400,11.880314453125,-1.005828857421875,0.0241851806640625,-0.1338958740234375
1751015589146258400,11.890258544921876,-0.9606475830078125,-0.0101776123046875,-0.106903076171875
1751015589156201500,11.900201416015625,-0.9305572509765625,-0.040802001953125,-0.0883331298828125
1751015589166144300,11.910144287109375,-0.9128570556640625,-0.0585784912109375,-0.0662841796875
1751015589176087300,11.92008740234375,-0.89996337890625,-0.066314697265625,-0.05279541015625
1751015589186030300,11.9300302734375,-0.8842620849609375,-0.0689849853515625,-0.042144775390625
1751015589195974400,11.939974365234375,-0.85888671875,-0.0737762451171875,-0.0445556640625
1751015589205917400,11.94991748046875,-0.8288116455078125,-0.0816650390625,-0.053192138671875
1751015589215860500,11.959860595703125,-0.794036865234375,-0.0885162353515625,-0.0627593994140625
1751015589225803300,11.96980322265625,-0.7498626708984375,-0.0929107666015625,-0.0723876953125
1751015589235746300,11.979746337890624,-0.703338623046875,-0.0939483642578125,-0.0795135498046875
1751015589245690400,11.9896904296875,-0.665557861328125,-0.09515380859375,-0.07470703125
1751015589255633400,11.99963330078125,-0.6589202880859375,-0.1004791259765625,-0.0569610595703125
1751015589265576400,12.009576416015625,-0.68048095703125,-0.1050262451171875,-0.04974365234375
1751015589275519500,12.01951953125,-0.7070159912109375,-0.10333251953125,-0.0532073974609375
1751015589285462300,12.029462158203126,-0.7480621337890625,-0.1003875732421875,-0.0504302978515625
1751015589295406300,12.03940625,-0.819091796875,-0.0943450927734375,-0.020965576171875
1751015589305349400,12.049349365234375,-0.864013671875,-0.0874481201171875,-0.0016937255859375
1751015589315292400,12.05929248046875,-0.8288726806640625,-0.0861663818359375,-0.046051025390625
1751015589325235500,12.0692353515625,-0.792999267578125,-0.0889129638671875,-0.137451171875
1751015589335178500,12.079178466796876,-0.805511474609375,-0.092926025390625,-0.19537353515625
1751015589345122600,12.08912255859375,-0.8231201171875,-0.095428466796875,-0.204833984375
1751015589355065300,12.0990654296875,-0.8249359130859375,-0.093292236328125,-0.1975555419921875
1751015589365008400,12.10900830078125,-0.813018798828125,-0.0967559814453125,-0.1771697998046875
1751015589374951400,12.118951416015625,-0.7964935302734375,-0.1135406494140625,-0.1421051025390625
1751015589384894500,12.12889453125,-0.789886474609375,-0.134674072265625,-0.124237060546875
1751015589394838500,12.138838623046874,-0.7928009033203125,-0.1503143310546875,-0.10821533203125
1751015589404781300,12.14878125,-0.802032470703125,-0.1608123779296875,-0.092681884765625
1751015589414724400,12.158724365234375,-0.809295654296875,-0.1681976318359375,-0.0794525146484375
1751015589424667400,12.16866748046875,-0.8102874755859375,-0.16864013671875,-0.0699615478515625
1751015589434610400,12.1786103515625,-0.813201904296875,-0.1651153564453125,-0.061553955078125
1751015589444553500,12.188553466796876,-0.835784912109375,-0.168609619140625,-0.042205810546875
1751015589454497500,12.19849755859375,-0.8671112060546875,-0.1806182861328125,-0.021697998046875
1751015589464440300,12.2084404296875,-0.8742523193359375,-0.1900482177734375,-0.0376129150390625
1751015589474383000,12.218383056640626,-0.8885498046875,-0.1902618408203125,-0.0645751953125
1751015589484326100,12.228326171875,-0.9268035888671875,-0.1842193603515625,-0.08343505859375
1751015589494270200,12.238270263671875,-0.9828033447265625,-0.167083740234375,-0.1140289306640625
1751015589504213000,12.248212890625,-1.0634765625,-0.1549224853515625,-0.1374664306640625
1751015589514156000,12.258156005859375,-1.158477783203125,-0.1498870849609375,-0.1471710205078125
1751015589524099000,12.26809912109375,-1.2469635009765625,-0.1425628662109375,-0.1424102783203125
1751015589534042000,12.2780419921875,-1.31256103515625,-0.12982177734375,-0.1383514404296875
1751015589543985200,12.287985107421875,-1.36395263671875,-0.117401123046875,-0.142578125
1751015589553929200,12.29792919921875,-1.3982391357421875,-0.1021270751953125,-0.1447296142578125
1751015589563872000,12.3078720703125,-1.4204254150390625,-0.09161376953125,-0.158294677734375
1751015589573815000,12.31781494140625,-1.4297943115234375,-0.0882110595703125,-0.178192138671875
1751015589583758000,12.327758056640626,-1.438446044921875,-0.076385498046875,-0.1975860595703125
1751015589593701000,12.337701171875,-1.45166015625,-0.0482330322265625,-0.2186737060546875
1751015589603645400,12.3476455078125,-1.444732666015625,-0.0222015380859375,-0.23760986328125
1751015589613588000,12.357587890625,-1.4052734375,-0.0104217529296875,-0.254150390625
1751015589623531000,12.367531005859375,-1.3591461181640625,0.009002685546875,-0.26678466796875
1751015589633474000,12.37747412109375,-1.3188629150390625,0.0305023193359375,-0.267608642578125
1751015589643417000,12.3874169921875,-1.2789459228515625,0.0334625244140625,-0.2598419189453125
1751015589653361400,12.397361328125,-1.24945068359375,0.0300750732421875,-0.2443695068359375
1751015589663304200,12.40730419921875,-1.22772216796875,0.04083251953125,-0.2272186279296875
1751015589673247000,12.4172470703125,-1.2100677490234375,0.06256103515625,-0.2162933349609375
1751015589683190000,12.42718994140625,-1.19317626953125,0.0802459716796875,-0.2026519775390625
1751015589693133000,12.437133056640626,-1.173492431640625,0.0877685546875,-0.18408203125
1751015589703077400,12.447077392578125,-1.149444580078125,0.086639404296875,-0.1774749755859375
1751015589713020400,12.4570205078125,-1.1219482421875,0.0788726806640625,-0.181915283203125
1751015589722963200,12.466963134765624,-1.0926055908203125,0.0617828369140625,-0.1949005126953125
1751015589732906000,12.476906005859375,-1.064208984375,0.039947509765625,-0.2059783935546875
1751015589742849000,12.48684912109375,-1.0389404296875,0.0230255126953125,-0.2122955322265625
1751015589752793300,12.49679345703125,-1.01605224609375,0.006744384765625,-0.2086181640625
1751015589762736400,12.506736328125,-0.9863433837890625,-0.0133056640625,-0.195281982421875
1751015589772679200,12.51667919921875,-0.949432373046875,-0.0338287353515625,-0.17657470703125
1751015589782622200,12.526622314453125,-0.9126739501953125,-0.0492095947265625,-0.1531524658203125
1751015589792565000,12.53656494140625,-0.87353515625,-0.0600128173828125,-0.1290130615234375
1751015589802509300,12.54650927734375,-0.834930419921875,-0.067352294921875,-0.1015777587890625
1751015589812452400,12.556452392578125,-0.7962188720703125,-0.074859619140625,-0.07659912109375
1751015589822395400,12.5663955078125,-0.757080078125,-0.0852508544921875,-0.056304931640625
1751015589832338200,12.576338134765624,-0.7266693115234375,-0.0915679931640625,-0.031402587890625
1751015589842281200,12.58628125,-0.6966705322265625,-0.0969390869140625,-0.0100250244140625
1751015589852225300,12.596225341796876,-0.673828125,-0.106292724609375,0.000030517578125
1751015589862168300,12.606168212890625,-0.68255615234375,-0.1136474609375,0.0117645263671875
1751015589872111400,12.616111328125,-0.6985321044921875,-0.1138916015625,0.0362091064453125
1751015589882054100,12.62605419921875,-0.7031707763671875,-0.110931396484375,0.05181884765625
1751015589891997200,12.6359970703125,-0.712127685546875,-0.11724853515625,0.043548583984375
1751015589901941200,12.645941162109375,-0.71990966796875,-0.1424713134765625,0.0189208984375
1751015589911884300,12.65588427734375,-0.733795166015625,-0.1765899658203125,-0.0110321044921875
1751015589921827300,12.665827392578125,-0.7557220458984375,-0.2041778564453125,-0.02716064453125
1751015589931770400,12.675770263671875,-0.7743377685546875,-0.2242431640625,-0.0272216796875
1751015589941713200,12.685713134765624,-0.7808380126953125,-0.2447357177734375,-0.016357421875
1751015589951657200,12.6956572265625,-0.78546142578125,-0.2644500732421875,-0.005096435546875
1751015589961600300,12.705600341796876,-0.79925537109375,-0.2762603759765625,0.00372314453125
1751015589971543300,12.715543212890625,-0.8269805908203125,-0.2784881591796875,0.023712158203125
1751015589981486300,12.725486328125,-0.84405517578125,-0.2671661376953125,0.031585693359375
1751015589991429000,12.73542919921875,-0.8594970703125,-0.2533111572265625,0.0073394775390625
1751015590001373200,12.745373291015625,-0.8839569091796875,-0.2478485107421875,-0.0016021728515625
1751015590011316200,12.755316162109375,-0.910064697265625,-0.2462310791015625,0.0040130615234375
1751015590021259300,12.76525927734375,-0.91912841796875,-0.246612548828125,-0.0037994384765625
1751015590031202300,12.775202392578125,-0.93414306640625,-0.25091552734375,-0.009429931640625
1751015590041145300,12.785145263671875,-0.958251953125,-0.2611541748046875,-0.009063720703125
1751015590051089400,12.79508935546875,-0.9926605224609375,-0.277862548828125,0.0023956298828125
1751015590061032200,12.8050322265625,-1.0300750732421875,-0.2942352294921875,0.0335235595703125
1751015590070975200,12.814975341796876,-1.052032470703125,-0.3137054443359375,0.0651702880859375
