time,seconds_elapsed,z,y,x
1751013527685579800,0.120579833984375,-0.05931525677442551,0.032306008040905,-0.15496587753295898
1751013527695523800,0.13052392578125,-0.055933840572834015,0.05968756601214409,-0.13440601527690887
1751013527705466600,0.140466552734375,-0.06117520481348038,0.07482736557722092,-0.0991193950176239
1751013527715409700,0.15040966796875,-0.06630125641822815,0.06642615795135498,-0.07035991549491882
1751013527725353700,0.160353759765625,-0.07215967774391174,0.04496214911341667,-0.042268361896276474
1751013527735296800,0.170296875,-0.0750071331858635,0.032100412994623184,-0.009148224256932735
1751013527745240600,0.180240478515625,-0.07642633467912674,0.026640664786100388,0.01895851083099842
1751013527755183600,0.19018359375,-0.0798514261841774,0.017620539292693138,0.0430326871573925
1751013527765126700,0.200126708984375,-0.07790172100067139,0.01004917174577713,0.054844338446855545
1751013527775070700,0.21007080078125,-0.07424972951412201,0.0037015276029706,0.05590427666902542
1751013527785013800,0.220013671875,-0.06479471176862717,0.011621768586337566,0.04709587246179581
1751013527794956800,0.229956787109375,-0.05321129038929939,0.02418576367199421,0.02485634759068489
1751013527804900900,0.23990087890625,-0.03760969266295433,0.03529860079288483,-0.008343683555722237
1751013527814843600,0.24984375,-0.020604344084858894,0.04364068806171417,-0.05137663707137108
1751013527824788000,0.2597880859375,-0.009444634430110455,0.05621320381760597,-0.09564849734306335
1751013527834730800,0.269730712890625,-0.0014956312952563167,0.08130950480699539,-0.1268966943025589
1751013527844673800,0.279673828125,0.007375358138233423,0.10651499032974243,-0.14099174737930298
1751013527854617900,0.289617919921875,0.007032343186438084,0.12126437574625015,-0.14114060997962952
1751013527864561000,0.299560791015625,0.011953332461416721,0.117156982421875,-0.12377733737230301
1751013527874504000,0.30950390625,0.007219829596579075,0.10953447967767715,-0.10074152797460556
1751013527884447700,0.31944775390625,-0.0008910936885513365,0.08846355229616165,-0.06803098320960999
1751013527894390800,0.329390869140625,-0.0044165863655507565,0.056165266782045364,-0.04361778497695923
1751013527904333800,0.339333740234375,-0.0008964200387708843,0.025228923186659813,-0.017971543595194817
1751013527914278000,0.34927783203125,0.011786351911723614,0.011178618296980858,0.01426575519144535
1751013527924221000,0.359220947265625,0.024268588051199913,0.012596751563251019,0.04669293761253357
1751013527934164700,0.369164794921875,0.032824523746967316,0.035660792142152786,0.08067460358142853
1751013527944107800,0.379107666015625,0.03838200867176056,0.06174805387854576,0.09537632018327713
1751013527954050800,0.38905078125,0.041616152971982956,0.08505896478891373,0.08870057761669159
1751013527963994600,0.39899462890625,0.046546727418899536,0.11339793354272842,0.07100173830986023
1751013527973937700,0.408937744140625,0.04975583776831627,0.16151246428489685,0.036136433482170105
1751013527983880700,0.418880615234375,0.05624409765005112,0.2193446010351181,-0.005115399602800608
1751013527993824800,0.42882470703125,0.06760034710168839,0.2749551236629486,-0.060211408883333206
1751013528003767800,0.438767822265625,0.07763327658176422,0.3133818805217743,-0.11137872189283371
1751013528013711600,0.448711669921875,0.08539213240146637,0.328046590089798,-0.16024427115917206
1751013528023654700,0.458654541015625,0.0863061249256134,0.3207732141017914,-0.19386987388134003
1751013528033597700,0.46859765625,0.08141496777534485,0.2881985008716583,-0.20139090716838837
1751013528043541800,0.478541748046875,0.06572388857603073,0.23200899362564087,-0.18504628539085388
1751013528053484800,0.48848486328125,0.05030125379562378,0.16685396432876587,-0.13138970732688904
1751013528063427600,0.498427490234375,0.024098677560687065,0.09043136239051819,-0.05880392715334892
1751013528073371600,0.50837158203125,0.005789712071418762,0.019344935193657875,0.018029334023594856
1751013528083314700,0.518314697265625,-0.019763052463531494,-0.053343914449214935,0.08917728066444397
1751013528093258800,0.5282587890625,-0.025431057438254356,-0.11023303121328354,0.1361333429813385
1751013528103201800,0.538201904296875,-0.024167388677597046,-0.13516607880592346,0.15789829194545746
1751013528113144800,0.548144775390625,-0.01458906289190054,-0.1280391961336136,0.15786074101924896
1751013528123089000,0.5580888671875,-0.01019671093672514,-0.1209714263677597,0.12738405168056488
1751013528133032000,0.568031982421875,-0.008913866244256496,-0.11872372031211853,0.0743274912238121
1751013528142975000,0.57797509765625,-0.006374276243150234,-0.12196824699640274,0.014399978332221508
1751013528152918800,0.587918701171875,-0.0015821839915588498,-0.11334972828626633,-0.03278031572699547
1751013528162861800,0.59786181640625,0.014426343142986298,-0.08410236239433289,-0.06598594039678574
1751013528172804900,0.607804931640625,0.028786640614271164,-0.059540823101997375,-0.0798141360282898
1751013528182748700,0.617748779296875,0.03839532658457756,-0.04019642248749733,-0.0825129821896553
1751013528192691700,0.627691650390625,0.04240258410573006,-0.023330090567469597,-0.0742848813533783
1751013528202635800,0.6376357421875,0.041493114084005356,-0.02111034467816353,-0.06089317798614502
1751013528212578800,0.647578857421875,0.04008696600794792,-0.035106588155031204,-0.044268395751714706
1751013528222521900,0.65752197265625,0.050208307802677155,-0.05387095361948013,-0.02774321474134922
1751013528232465700,0.667465576171875,0.05769232288002968,-0.06054137274622917,0.0032415995374321938
1751013528242408700,0.67740869140625,0.06720833480358124,-0.05567764490842819,0.0298516396433115
1751013528252351700,0.687351806640625,0.06862566620111465,-0.044505950063467026,0.056475527584552765
1751013528262295800,0.6972958984375,0.07610967755317688,-0.028558939695358276,0.06285912543535233
1751013528272238800,0.70723876953125,0.08017206937074661,-0.028079837560653687,0.05392342060804367
1751013528282182700,0.7171826171875,0.0810951218008995,-0.029573338106274605,0.03768852353096008
1751013528292125700,0.727125732421875,0.07840026915073395,-0.027286216616630554,0.025541579350829124
1751013528302068700,0.73706884765625,0.07330803573131561,-0.0228579118847847,0.016401609405875206
1751013528312012800,0.7470126953125,0.072727732360363,-0.029153890907764435,0.019510317593812943
1751013528321955600,0.75695556640625,0.0669792965054512,-0.04692915827035904,0.0218949131667614
1751013528331898600,0.766898681640625,0.06560191512107849,-0.08030389249324799,0.014338458888232708
1751013528341842700,0.7768427734375,0.06845895200967789,-0.11849149316549301,0.00044341632747091353
1751013528351785700,0.78678564453125,0.07541539520025253,-0.15348489582538605,-0.027102191001176834
1751013528361728800,0.796728759765625,0.076809823513031,-0.19260993599891663,-0.05798553675413132
1751013528371672800,0.8066728515625,0.08141842484474182,-0.22031132876873016,-0.08560678362846375
1751013528381615900,0.816615966796875,0.08020082861185074,-0.24093671143054962,-0.10691073536872864
1751013528391560000,0.826559814453125,0.07405451685190201,-0.2492833286523819,-0.1287848800420761
1751013528401502700,0.836502685546875,0.06091661378741264,-0.21700900793075562,-0.14612658321857452
1751013528411445800,0.84644580078125,0.04946795105934143,-0.140916645526886,-0.15297569334506989
1751013528421389800,0.856389892578125,0.04063184931874275,-0.06321625411510468,-0.1571563333272934
1751013528431332900,0.866332763671875,0.03188682720065117,-0.0003680488734971732,-0.14880545437335968
1751013528441275600,0.876275634765625,0.02070181630551815,0.0732361301779747,-0.16197505593299866
1751013528451219500,0.886219482421875,0.032038360834121704,0.07251228392124176,-0.1602969914674759
1751013528461162500,0.89616259765625,0.041790325194597244,0.09449055045843124,-0.14768186211585999
1751013528471105500,0.90610546875,0.05257106572389603,0.12237145006656647,-0.11805260181427002
1751013528481049600,0.916049560546875,0.0606556236743927,0.12619975209236145,-0.07707161456346512
1751013528490992600,0.92599267578125,0.06522880494594574,0.11277235299348831,-0.030607443302869797
1751013528500936700,0.935936767578125,0.05680389329791069,0.0960082858800888,0.013497432693839073
1751013528510879700,0.945879638671875,0.045392248779535294,0.08033345639705658,0.05633224919438362
1751013528520822500,0.955822509765625,0.04021559655666351,0.0743594542145729,0.08523952960968018
1751013528530766800,0.965766845703125,0.040275249630212784,0.07532458007335663,0.10092155635356903
1751013528540709600,0.975709716796875,0.029585056006908417,0.06606050580739975,0.10247045010328293
1751013528550652700,0.985652587890625,0.01792227476835251,0.04449076950550079,0.09838196635246277
1751013528560596700,0.9955966796875,0.014524614438414574,0.03997298330068588,0.09954895824193954
1751013528570539800,1.005539794921875,0.010425476357340813,0.06015788018703461,0.10901303589344025
1751013528580483600,1.015483642578125,0.008261391893029213,0.08392206579446793,0.10636026412248611
1751013528590426600,1.025426513671875,0.0008106662426143885,0.09976094961166382,0.0873279795050621
1751013528600369700,1.03536962890625,-0.007476025726646185,0.10418019443750381,0.05664357170462608
1751013528610313700,1.045313720703125,-0.018816297873854637,0.08826647698879242,0.022178804501891136
1751013528620256800,1.0552568359375,-0.037995852530002594,0.06426793336868286,-0.006655239500105381
1751013528630199600,1.065199462890625,-0.05354871228337288,0.06320693343877792,-0.03201359137892723
1751013528640143600,1.0751435546875,-0.06739795207977295,0.060927268117666245,-0.05174175649881363
1751013528650086700,1.085086669921875,-0.07603085041046143,0.0618620365858078,-0.053592387586832047
1751013528660029700,1.09502978515625,-0.08546563237905502,0.06311265379190445,-0.04758509621024132
1751013528669973500,1.104973388671875,-0.09192140400409698,0.078976571559906,-0.029095834121108055
1751013528679916500,1.11491650390625,-0.09589563310146332,0.08615592122077942,-0.003946005832403898
1751013528689860600,1.124860595703125,-0.10202010720968246,0.07083236426115036,0.013323795050382614
1751013528699803600,1.1348037109375,-0.1040787324309349,0.05139315128326416,0.027543477714061737
1751013528709746700,1.14474658203125,-0.08723530173301697,0.04225238040089607,0.03813380375504494
1751013528719690500,1.1546904296875,-0.06617262959480286,0.05218543857336044,0.037573207169771194
1751013528729633500,1.164633544921875,-0.04249553009867668,0.07468036562204361,0.035600338131189346
1751013528739576600,1.17457666015625,-0.029920082539319992,0.09980116039514542,0.025622805580496788
1751013528749520600,1.184520751953125,-0.024234233424067497,0.11006604880094528,0.010340255685150623
1751013528759463400,1.19446337890625,-0.02287202700972557,0.09734120219945908,-0.0018405106384307146
1751013528769407700,1.20440771484375,-0.02274419367313385,0.06494970619678497,-0.007308512926101685
1751013528779350800,1.214350830078125,-0.027949875220656395,0.034626685082912445,-0.010512029752135277
1751013528789293600,1.22429345703125,-0.04168406501412392,0.011113104410469532,-0.010312026366591454
1751013528799237600,1.234237548828125,-0.051175836473703384,0.0031531827989965677,-0.00444055488333106
1751013528809180700,1.2441806640625,-0.06162022054195404,0.013776798732578754,0.006732471287250519
1751013528819123700,1.254123779296875,-0.06202368810772896,0.033421605825424194,0.018565429374575615
1751013528829067800,1.26406787109375,-0.05317693576216698,0.0563141405582428,0.026451313868165016
1751013528839010800,1.2740107421875,-0.033895913511514664,0.06716465950012207,0.028559472411870956
1751013528848953600,1.28395361328125,-0.00993039458990097,0.06278402358293533,0.02521374449133873
1751013528858897700,1.293897705078125,0.00689039658755064,0.04794302582740784,0.019779030233621597
1751013528868840700,1.3038408203125,0.01565645821392536,0.03615614026784897,0.011055846698582172
1751013528878784800,1.31378466796875,0.016282035037875175,0.028070516884326935,0.0029976540245115757
1751013528888727600,1.3237275390625,0.015381352975964546,0.011759454384446144,-0.006009955424815416
1751013528898670600,1.333670654296875,0.0024341291282325983,0.005123389419168234,-0.008315986953675747
1751013528908614700,1.34361474609375,-0.00017124126316048205,0.009630789048969746,-0.013731258921325207
1751013528918557700,1.3535576171875,-0.0063037024810910225,0.019962256774306297,-0.009852098301053047
1751013528928500700,1.363500732421875,-0.00902678444981575,0.029387716203927994,-0.006044310517609119
1751013528938444500,1.373444580078125,-0.010605772957205772,0.028232702985405922,0.008682438172399998
1751013528948387600,1.3833876953125,-0.009661415591835976,0.023975374177098274,0.02359906956553459
1751013528958331600,1.39333154296875,-0.005150021053850651,0.023154854774475098,0.03544720634818077
1751013528968274700,1.403274658203125,-0.0031819448340684175,0.014735803008079529,0.04446546733379364
1751013528978217700,1.4132177734375,-0.0006862966110929847,0.005637379363179207,0.043832700699567795
1751013528988161500,1.42316162109375,-0.002412024885416031,-0.0014564828015863895,0.04086753726005554
1751013528998104600,1.4331044921875,-0.008754609152674675,-0.0021611552219837904,0.02961035631597042
1751013529008047600,1.443047607421875,-0.015379222109913826,-0.006140184123069048,0.0175787266343832
1751013529017991400,1.452991455078125,-0.015057512558996677,-0.015486281365156174,0.002442651428282261
1751013529027934500,1.4629345703125,-0.01607404090464115,-0.02165469527244568,-0.004866394214332104
1751013529037877500,1.47287744140625,-0.01816462352871895,-0.020843230187892914,-0.008815595880150795
1751013529047821600,1.482821533203125,-0.0239572636783123,-0.01925358921289444,0.0002687129599507898
1751013529057764600,1.4927646484375,-0.02750006690621376,-0.021348964422941208,0.012911537662148476
1751013529067708700,1.502708740234375,-0.03161172196269035,-0.03363412618637085,0.027157051488757133
1751013529077651700,1.512651611328125,-0.03327220305800438,-0.045226600021123886,0.03388313204050064
1751013529087594800,1.5225947265625,-0.028785575181245804,-0.06090196594595909,0.027908597141504288
1751013529097538800,1.532538818359375,-0.02215217426419258,-0.08842307329177856,0.015459117479622364
1751013529107481600,1.542481689453125,-0.013794109225273132,-0.11694686114788055,-0.0026045716367661953
1751013529117424600,1.552424560546875,-0.011107778176665306,-0.1367541253566742,-0.01708337850868702
1751013529127368700,1.56236865234375,-0.009397762827575207,-0.13202275335788727,-0.02894030511379242
1751013529137311700,1.572311767578125,0.0011680624447762966,-0.11081360280513763,-0.05136625096201897
1751013529147254800,1.5822548828125,0.02425180934369564,-0.07387103140354156,-0.06903685629367828
1751013529157198600,1.592198486328125,0.05176412686705589,-0.046302251517772675,-0.09236375242471695
1751013529167141600,1.6021416015625,0.06915856152772903,-0.034391261637210846,-0.10710621625185013
1751013529177085700,1.612085693359375,0.07210429012775421,-0.015852998942136765,-0.1038246676325798
1751013529187028700,1.62202880859375,0.061830610036849976,0.002160090021789074,-0.08858366310596466
1751013529196971800,1.6319716796875,0.05097316950559616,0.012799418531358242,-0.06986403465270996
1751013529206915600,1.64191552734375,0.05632559210062027,0.015309447422623634,-0.0356256365776062
1751013529216858600,1.651858642578125,0.07073941826820374,0.020131899043917656,0.0030599720776081085
1751013529226801700,1.6618017578125,0.08867953717708588,0.026031866669654846,0.04199059307575226
1751013529236745500,1.671745361328125,0.12156771123409271,0.021642711013555527,0.0793725848197937
1751013529246688500,1.6816884765625,0.14958655834197998,0.006138852797448635,0.10652244836091995
1751013529256631600,1.691631591796875,0.17185963690280914,-0.022478943690657616,0.12068486958742142
1751013529266575600,1.70157568359375,0.18297168612480164,-0.05109461024403572,0.12166198343038559
1751013529276518700,1.7115185546875,0.19427040219306946,-0.08345600962638855,0.1106354370713234
1751013529286462500,1.72146240234375,0.19948966801166534,-0.10213568806648254,0.08679109066724777
1751013529296405500,1.731405517578125,0.19855783879756927,-0.09510627388954163,0.06635318696498871
1751013529306348500,1.7413486328125,0.19066396355628967,-0.0753546729683876,0.03081357292830944
1751013529316292600,1.751292724609375,0.185578390955925,-0.03169774264097214,-0.0004996090428903699
1751013529326235600,1.761235595703125,0.1894357055425644,0.027157584205269814,-0.03628077730536461
1751013529336178400,1.771178466796875,0.19894345104694366,0.08965931087732315,-0.06521735340356827
1751013529346122800,1.781122802734375,0.2122424840927124,0.14250175654888153,-0.0916212648153305
1751013529356065800,1.791065673828125,0.22165969014167786,0.1755097657442093,-0.10835523903369904
1751013529366008800,1.8010087890625,0.20743468403816223,0.18309365212917328,-0.11195077002048492
1751013529375952600,1.81095263671875,0.19057314097881317,0.15380100905895233,-0.10061822086572647
1751013529385895700,1.820895751953125,0.1659197211265564,0.10579513758420944,-0.0777997225522995
1751013529395839700,1.83083984375,0.15202867984771729,0.050033073872327805,-0.051360923796892166
1751013529405782800,1.84078271484375,0.15037672221660614,-0.019719908013939857,-0.01968448795378208
1751013529415725800,1.850725830078125,0.15012212097644806,-0.07598984241485596,0.0037318875547498465
1751013529425669600,1.860669677734375,0.13939890265464783,-0.1093192994594574,0.02587047964334488
1751013529435613000,1.870613037109375,0.11742915958166122,-0.11319499462842941,0.04038417339324951
1751013529445556000,1.880555908203125,0.09505248069763184,-0.07792729139328003,0.05999356135725975
1751013529455499800,1.890499755859375,0.09310384094715118,-0.012859073467552662,0.07520633935928345
1751013529465442800,1.90044287109375,0.10211997479200363,0.04788203909993172,0.08082374185323715
1751013529475385900,1.9103857421875,0.1137622520327568,0.08126582950353622,0.07792968302965164
1751013529485330000,1.920329833984375,0.12795290350914001,0.08801081776618958,0.05961645767092705
1751013529495273000,1.93027294921875,0.13398683071136475,0.0766708105802536,0.02930356003344059
1751013529505216800,1.940216796875,0.1422058790922165,0.06286871433258057,-0.007413974031805992
1751013529515159800,1.950159912109375,0.16278386116027832,0.04830441623926163,-0.03966831788420677
1751013529525102800,1.960102783203125,0.17208388447761536,0.02365046739578247,-0.07256714254617691
1751013529535047000,1.970046875,0.16817383468151093,-0.008932242169976234,-0.0984988734126091
1751013529544990000,1.979989990234375,0.15315599739551544,-0.04926634952425957,-0.11594258248806
1751013529554932700,1.9899326171875,0.13642148673534393,-0.08307651430368423,-0.11487305909395218
1751013529564876800,1.999876708984375,0.1168413981795311,-0.07667852938175201,-0.10493813455104828
1751013529574819800,2.00981982421875,0.09713906794786453,-0.05236360430717468,-0.09554942697286606
1751013529584763000,2.019762939453125,0.08488133549690247,-0.014791728928685188,-0.0808596983551979
1751013529594706700,2.029706787109375,0.08392898738384247,0.025860892608761787,-0.06139491870999336
1751013529604649700,2.039649658203125,0.09168598055839539,0.05699803680181503,-0.04113518446683884
1751013529614594000,2.049593994140625,0.10339056700468063,0.05817888304591179,-0.022665364667773247
1751013529624537000,2.059537109375,0.11451272666454315,0.02708061970770359,-0.011114702560007572
1751013529634479900,2.06947998046875,0.11747469753026962,-0.00023808660625945777,0.0005901564727537334
1751013529644424000,2.079423828125,0.12122789025306702,-0.02665824256837368,0.019528960809111595
1751013529654367000,2.089366943359375,0.12601572275161743,-0.03663284704089165,0.03712206706404686
1751013529664310000,2.09931005859375,0.1372968703508377,-0.052138302475214005,0.05270182713866234
1751013529674253800,2.10925390625,0.14458806812763214,-0.07595415413379669,0.050575293600559235
1751013529684196900,2.11919677734375,0.13708168268203735,-0.09199889749288559,0.04098551720380783
1751013529694140000,2.129139892578125,0.12146437913179398,-0.09423036128282547,0.0225609689950943
1751013529704084000,2.139083984375,0.10141263902187347,-0.0863812267780304,-0.000996821210719645
1751013529714027000,2.149027099609375,0.08390315622091293,-0.06819583475589752,-0.02262275479733944
1751013529723970800,2.158970703125,0.07671075314283371,-0.03971971571445465,-0.040943171828985214
1751013529733913900,2.168913818359375,0.0893746167421341,-0.009104815311729908,-0.04602501541376114
1751013529743857000,2.17885693359375,0.11565069854259491,0.01408465951681137,-0.036914609372615814
1751013529753801000,2.188801025390625,0.144840806722641,0.02069862000644207,-0.02093590795993805
1751013529763744000,2.198743896484375,0.16846570372581482,0.015777630731463432,0.004022971261292696
1751013529773686800,2.208686767578125,0.18010053038597107,0.01558242179453373,0.029077989980578423
1751013529783630800,2.218630859375,0.17197202146053314,0.026033997535705566,0.046356312930583954
1751013529793574000,2.228573974609375,0.16174975037574768,0.030296919867396355,0.05405604466795921
1751013529803517000,2.238516845703125,0.14414945244789124,0.03446396812796593,0.05901245400309563
1751013529813460700,2.248460693359375,0.13072259724140167,0.029217272996902466,0.05125280097126961
1751013529823403800,2.25840380859375,0.11542672663927078,0.004821919370442629,0.02761271968483925
1751013529833347800,2.268347900390625,0.10417673736810684,-0.03591219335794449,-0.018727349117398262
1751013529843291000,2.278290771484375,0.0918862447142601,-0.065714031457901,-0.07334824651479721
1751013529853234000,2.28823388671875,0.08151989430189133,-0.05745663493871689,-0.12680189311504364
1751013529863177700,2.298177734375,0.07275276631116867,-0.016088955104351044,-0.1659833788871765
1751013529873120800,2.308120849609375,0.0709034651517868,0.04291657358407974,-0.18267926573753357
1751013529883063800,2.318063720703125,0.06772631406784058,0.10715921223163605,-0.1889805793762207
1751013529893008000,2.3280078125,0.08214414119720459,0.164903461933136,-0.19722704589366913
1751013529902951000,2.337950927734375,0.10693124681711197,0.21913421154022217,-0.21659782528877258
1751013529912893700,2.347893798828125,0.1526755690574646,0.2590126395225525,-0.2565513551235199
1751013529922838000,2.357838134765625,0.1992340087890625,0.2625938057899475,-0.3190256655216217
1751013529932781000,2.367781005859375,0.21942290663719177,0.2204436957836151,-0.38776370882987976
1751013529942724000,2.37772412109375,0.21116603910923004,0.17441201210021973,-0.43400123715400696
1751013529952668000,2.38766796875,0.1734572798013687,0.18354825675487518,-0.4386870861053467
1751013529962611000,2.39761083984375,0.11323308199644089,0.22610050439834595,-0.3978525698184967
1751013529972555000,2.407554931640625,0.05489520728588104,0.28334808349609375,-0.3219876289367676
1751013529982498000,2.417498046875,0.010790329426527023,0.3387812376022339,-0.2291245311498642
1751013529992440800,2.42744091796875,-0.016943296417593956,0.3811657130718231,-0.12662585079669952
1751013530002385000,2.437385009765625,-0.03489486500620842,0.41604089736938477,-0.03825204819440842
1751013530012328000,2.447327880859375,-0.03741687908768654,0.4203543961048126,0.011509383097290993
1751013530022271000,2.45727099609375,-0.04079669713973999,0.4081190526485443,0.023273097351193428
1751013530032214800,2.46721484375,-0.029828734695911407,0.37790602445602417,-0.0019438412273302674
1751013530042157800,2.47715771484375,-0.015281484462320805,0.3265016973018646,-0.04850361868739128
1751013530052100900,2.487100830078125,-0.0063092950731515884,0.2562195360660553,-0.09818622469902039
1751013530062045000,2.497044921875,-0.011840946972370148,0.1676907241344452,-0.13940662145614624
1751013530071988000,2.506988037109375,-0.02455833926796913,0.053166016936302185,-0.15483218431472778
1751013530081930800,2.5169306640625,-0.030040722340345383,-0.05306854471564293,-0.13670378923416138
1751013530091874800,2.526874755859375,-0.03248683735728264,-0.11660917103290558,-0.08934345841407776
1751013530101817900,2.53681787109375,-0.036440033465623856,-0.1330866813659668,-0.030658310279250145
1751013530111762000,2.546761962890625,-0.03934288024902344,-0.12085291743278503,0.01600479893386364
1751013530121704700,2.55670458984375,-0.03182424232363701,-0.09897052496671677,0.042451851069927216
1751013530131647700,2.566647705078125,-0.02112392708659172,-0.09167879074811935,0.050211772322654724
1751013530141591800,2.576591796875,-0.001784850494004786,-0.09080633521080017,0.05258411541581154
1751013530151534800,2.586534912109375,0.011870508082211018,-0.08541476726531982,0.057436127215623856
1751013530161478000,2.596477783203125,0.03328631818294525,-0.09339599311351776,0.06533746421337128
1751013530171422000,2.606421875,0.056663546711206436,-0.11032650619745255,0.07892890274524689
1751013530181364700,2.61636474609375,0.07456691563129425,-0.13431626558303833,0.09012802690267563
1751013530191307800,2.626307861328125,0.08418358862400055,-0.14773699641227722,0.10458073765039444
1751013530201252000,2.636252197265625,0.08757805079221725,-0.14426210522651672,0.10292638093233109
1751013530211195000,2.64619482421875,0.09808555245399475,-0.13402757048606873,0.09428761899471283
1751013530221139000,2.656138916015625,0.11520329117774963,-0.1171247586607933,0.08451301604509354
1751013530231082000,2.66608203125,0.12047608196735382,-0.07781437039375305,0.06995724886655807
1751013530241025000,2.67602490234375,0.11880122125148773,-0.025958629325032234,0.06647622585296631
1751013530250968800,2.68596875,0.10826335847377777,0.022397983819246292,0.07593923807144165
1751013530260911900,2.695911865234375,0.09684425592422485,0.040402017533779144,0.09451771527528763
1751013530270855000,2.70585498046875,0.08756473660469055,0.028929119929671288,0.1144338995218277
1751013530280799000,2.715799072265625,0.08148180693387985,-0.002404035534709692,0.12154533714056015
1751013530290742000,2.725741943359375,0.07247819751501083,-0.03647065907716751,0.11567173898220062
1751013530300685000,2.73568505859375,0.0658479854464531,-0.0676988884806633,0.09354832768440247
1751013530310628900,2.74562890625,0.05908489227294922,-0.08621637523174286,0.06977854669094086
1751013530320572000,2.755572021484375,0.05567364767193794,-0.08486056327819824,0.04971775412559509
1751013530330515000,2.765514892578125,0.04665032774209976,-0.06991250813007355,0.04194105789065361
1751013530340458800,2.775458740234375,0.043712593615055084,-0.03333505243062973,0.047992561012506485
1751013530350401800,2.78540185546875,0.052748166024684906,0.019184347242116928,0.06663255393505096
1751013530360345900,2.795345947265625,0.06967015564441681,0.08214759826660156,0.09032430499792099
1751013530370289000,2.805288818359375,0.0878819152712822,0.13675332069396973,0.10088906437158585
1751013530380232000,2.81523193359375,0.10211305320262909,0.16945959627628326,0.09470626711845398
1751013530390175700,2.82517578125,0.10734190046787262,0.18077297508716583,0.07874434441328049
1751013530400118800,2.835118896484375,0.10648436844348907,0.16907024383544922,0.05291328206658363
1751013530410061800,2.845061767578125,0.10120011866092682,0.15143638849258423,0.025342907756567
1751013530420006000,2.855005859375,0.09089315682649612,0.12295228987932205,-0.000993625377304852
1751013530429949000,2.864948974609375,0.07621381431818008,0.0716632679104805,-0.025722939521074295
1751013530439892500,2.874892578125,0.05729471519589424,0.02937493287026882,-0.04288594797253609
1751013530449836500,2.88483642578125,0.04832199215888977,0.020723387598991394,-0.04737364128232002
1751013530459779600,2.894779541015625,0.05409865453839302,0.04676910489797592,-0.03880039229989052
1751013530469722600,2.90472265625,0.06677290797233582,0.08702198415994644,-0.02461320161819458
1751013530479666400,2.91466650390625,0.08248528838157654,0.11359047889709473,-0.008639561012387276
1751013530489609500,2.924609375,0.09389480203390121,0.11617107689380646,-0.003861317178234458
1751013530499553500,2.934553466796875,0.09893909841775894,0.08961323648691177,-0.0015219965716823936
1751013530509496600,2.94449658203125,0.09192033857107162,0.04531102254986763,-0.002716158051043749
1751013530519439400,2.954439453125,0.08538467437028885,-0.0008543420699425042,-0.005775064695626497
1751013530529383400,2.964383544921875,0.07418714463710785,-0.04933878779411316,-0.007315170951187611
1751013530539326500,2.974326416015625,0.0625174418091774,-0.08975465595722198,-0.014189855195581913
1751013530549269500,2.98426953125,0.055453404784202576,-0.10794990509748459,-0.020000873133540154
1751013530559213300,2.99421337890625,0.05482223629951477,-0.10620073974132538,-0.0236456748098135
1751013530569156400,3.00415625,0.06257230043411255,-0.10241798311471939,-0.02303953841328621
1751013530579099400,3.014099365234375,0.07728014141321182,-0.09506633132696152,-0.01854119449853897
1751013530589043700,3.024043701171875,0.08727604895830154,-0.09144949167966843,-0.007309844717383385
1751013530598986800,3.03398681640625,0.09345298260450363,-0.07516133040189743,0.007684018462896347
1751013530608929500,3.043929443359375,0.09905441105365753,-0.04385906830430031,0.028127508237957954
1751013530618873600,3.05387353515625,0.09714332967996597,-0.012556271627545357,0.049424540251493454
1751013530628816600,3.063816650390625,0.08992403000593185,-0.006056294776499271,0.05667712911963463
1751013530638760400,3.073760498046875,0.08973361551761627,0.0019867182709276676,0.06320426613092422
1751013530648703500,3.083703369140625,0.0960056260228157,0.015499331057071686,0.05835039168596268
1751013530658646500,3.093646484375,0.1108572781085968,0.0265346709638834,0.04086620733141899
1751013530668590600,3.103590576171875,0.12089366465806961,0.02863244339823723,0.018087657168507576
1751013530678533600,3.11353369140625,0.12571744620800018,0.028243621811270714,-0.007714645005762577
1751013530688476700,3.1234765625,0.12165133655071259,0.036496758460998535,-0.021587850525975227
1751013530698420500,3.13342041015625,0.11049775034189224,0.04451313987374306,-0.03268790617585182
1751013530708363500,3.143363525390625,0.09586820751428604,0.04922453686594963,-0.0441027469933033
1751013530718306600,3.153306640625,0.07670223712921143,0.038239262998104095,-0.046007171273231506
1751013530728250600,3.163250732421875,0.05852828919887543,0.027721907943487167,-0.04035674408078194
1751013530738193400,3.173193359375,0.04039269685745239,0.010261958464980125,-0.02058490365743637
1751013530748136400,3.183136474609375,0.04116794094443321,-0.00261788722127676,0.0026407905388623476
1751013530758080500,3.19308056640625,0.05357188358902931,0.001868207473307848,0.03184794262051582
1751013530768023600,3.2030234375,0.07173703610897064,0.006770021747797728,0.048888444900512695
1751013530777967400,3.21296728515625,0.08809923380613327,-0.0016559535870328546,0.04105076193809509
1751013530787910400,3.222910400390625,0.09971167892217636,-0.01841709017753601,0.020012058317661285
1751013530797853400,3.232853515625,0.10080970078706741,-0.03460298478603363,-0.011718175373971462
1751013530807797500,3.242797607421875,0.10135751217603683,-0.04917154088616371,-0.04037139192223549
1751013530817740500,3.252740478515625,0.10515331476926804,-0.04627988114953041,-0.06668901443481445
1751013530827683300,3.262683349609375,0.11068550497293472,-0.03484293445944786,-0.08021414279937744
1751013530837627400,3.27262744140625,0.10916483402252197,-0.021748704835772514,-0.07006537169218063
1751013530847570400,3.2825703125,0.0966852605342865,-0.004580104257911444,-0.054191067814826965
1751013530857513500,3.292513427734375,0.08333350718021393,0.011070494540035725,-0.0365886390209198
1751013530867457500,3.30245751953125,0.08053398877382278,0.0149800144135952,-0.01543621439486742
1751013530877400300,3.312400390625,0.076146699488163,0.0025417208671569824,-0.012345083057880402
1751013530887343400,3.32234326171875,0.07227446138858795,-0.02353488653898239,-0.009621468372642994
1751013530897287700,3.33228759765625,0.0755605399608612,-0.046000782400369644,-0.0129336416721344
1751013530907230700,3.342230712890625,0.08893679827451706,-0.047871652990579605,-0.008678176440298557
1751013530917174500,3.352174560546875,0.10274315625429153,-0.030715301632881165,-0.005868275184184313
1751013530927117600,3.36211767578125,0.10652004927396774,-0.006473079323768616,0.002228533150628209
1751013530937060600,3.372060546875,0.0968405231833458,0.014854313805699348,0.0004261057765688747
1751013530947004700,3.382004638671875,0.07996700704097748,0.05294790491461754,-0.003911917097866535
1751013530956947500,3.391947509765625,0.06417738646268845,0.09073469787836075,-0.016981912776827812
1751013530966890500,3.401890380859375,0.043235886842012405,0.11952373385429382,-0.039026759564876556
1751013530976834600,3.41183447265625,0.030132070183753967,0.1309303194284439,-0.05805984139442444
1751013530986777600,3.421777587890625,0.024694427847862244,0.12205134332180023,-0.08089085668325424
1751013530996720600,3.431720703125,0.020549217239022255,0.10338550806045532,-0.09102445095777512
1751013531006664400,3.44166455078125,0.03031769208610058,0.0817667692899704,-0.08600731939077377
1751013531016607500,3.451607421875,0.04952334612607956,0.06820408999919891,-0.07108350098133087
1751013531026550500,3.461550537109375,0.0804133489727974,0.04927993193268776,-0.05059952661395073
1751013531036494600,3.47149462890625,0.10508274286985397,0.03490551933646202,-0.028847627341747284
1751013531046437400,3.481437255859375,0.11005033552646637,0.033679667860269547,-0.013743242248892784
1751013531056380400,3.49138037109375,0.09275071322917938,0.0294289942830801,-0.011956794187426567
1751013531066324500,3.501324462890625,0.0621403343975544,0.017408018931746483,-0.017284713685512543
1751013531076267500,3.511267578125,0.041188184171915054,0.0027172232512384653,-0.03231346607208252
1751013531086211300,3.52121142578125,0.030050577595829964,0.0005576659459620714,-0.045040976256132126
1751013531096154400,3.531154296875,0.026441726833581924,-0.0017395768081769347,-0.0632769763469696
1751013531106097400,3.541097412109375,0.029678266495466232,-0.01624288596212864,-0.08230419456958771
1751013531116041500,3.55104150390625,0.03570260480046272,-0.02532186731696129,-0.08698203414678574
1751013531125984500,3.560984619140625,0.04495202749967575,-0.00839561503380537,-0.07314638048410416
1751013531135927600,3.570927490234375,0.05295030027627945,0.016201073303818703,-0.0428587831556797
1751013531145871400,3.580871337890625,0.057323478162288666,0.021622737869620323,-0.02232048474252224
1751013531155814400,3.590814453125,0.05335802957415581,0.0068358019925653934,-0.0020532971248030663
1751013531165757400,3.60075732421875,0.0413876548409462,-0.0016157397767528892,0.013725931756198406
1751013531175701500,3.610701416015625,0.028719263151288033,-0.0000929443194763735,0.019654927775263786
1751013531185644500,3.62064453125,0.013007411733269691,0.003644536016508937,0.022722089663147926
1751013531195587600,3.630587646484375,-0.004037618637084961,0.005913016386330128,0.014219149947166443
1751013531205531600,3.64053173828125,-0.013319001533091068,0.013839116320014,-0.0043295007199049
1751013531215474700,3.650474609375,-0.016949156299233437,0.031258318573236465,-0.025720277801156044
1751013531225417700,3.660417724609375,-0.013434582389891148,0.06054456904530525,-0.04498691484332085
1751013531235361500,3.670361572265625,-0.0024549018125981092,0.07198364287614822,-0.058754391968250275
1751013531245304600,3.6803046875,0.015206916257739067,0.06679847091436386,-0.06769835203886032
1751013531255248600,3.69024853515625,0.025912024080753326,0.05008020997047424,-0.07000784575939178
1751013531265191700,3.700191650390625,0.028481442481279373,0.0353848896920681,-0.06227083131670952
1751013531275134500,3.710134521484375,0.02123125270009041,0.023615580052137375,-0.04929164797067642
1751013531285078500,3.72007861328125,0.00452737370505929,0.01504339836537838,-0.03080078959465027
1751013531295021600,3.730021484375,-0.009698966518044472,0.017406420782208443,-0.011637480929493904
1751013531304964600,3.739964599609375,-0.019047992303967476,0.02995843067765236,0.009314405731856823
1751013531314908400,3.749908447265625,-0.024274446070194244,0.04569345340132713,0.039386287331581116
1751013531324851500,3.7598515625,-0.021259216591715813,0.052331648766994476,0.06154032424092293
1751013531334794500,3.76979443359375,-0.008570585399866104,0.050999801605939865,0.0691753402352333
1751013531344738600,3.779738525390625,0.005650162696838379,0.04465668275952339,0.06753483414649963
1751013531354681600,3.789681640625,0.01347799226641655,0.03493880853056908,0.050926562398672104
1751013531364624400,3.799624267578125,0.01818219944834709,0.028842566534876823,0.03177550807595253
1751013531374568400,3.809568359375,0.0249618086963892,0.020389162003993988,0.003742806613445282
1751013531384511500,3.819511474609375,0.03683657944202423,0.011533351615071297,-0.01888873614370823
1751013531394455600,3.82945556640625,0.05166665464639664,0.0059630838222801685,-0.04261989891529083
1751013531404398300,3.8393984375,0.0645771250128746,0.0012956279097124934,-0.059468917548656464
1751013531414341400,3.84934130859375,0.07390511780977249,0.017115604132413864,-0.06608767062425613
1751013531424285400,3.859285400390625,0.07760477811098099,0.04314187914133072,-0.06458698213100433
1751013531434228500,3.869228515625,0.07750464230775833,0.02015160769224167,-0.05080698803067207
1751013531444171300,3.879171142578125,0.08220379054546356,0.00797057431191206,-0.017658622935414314
1751013531454115000,3.889114990234375,0.10250773280858994,0.024630244821310043,0.016955280676484108
1751013531464058000,3.89905810546875,0.1278466433286667,0.04480555281043053,0.0436854287981987
1751013531474001200,3.909001220703125,0.15236903727054596,0.03573615849018097,0.05596766248345375
1751013531483945200,3.9189453125,0.16332873702049255,0.0061535001732409,0.05601692944765091
1751013531493888300,3.92888818359375,0.15507186949253082,-0.015542474575340748,0.04259779304265976
1751013531503831000,3.9388310546875,0.13012950122356415,-0.0284659955650568,0.028712870553135872
1751013531513775000,3.948775146484375,0.09716569632291794,-0.01859445683658123,0.0037792918737977743
1751013531523718100,3.95871826171875,0.06976816058158875,0.003959055058658123,-0.0166170597076416
1751013531533661200,3.9686611328125,0.04554937407374382,0.024119984358549118,-0.035883963108062744
1751013531543605000,3.97860498046875,0.030012493953108788,0.038476817309856415,-0.05001283437013626
1751013531553548000,3.988548095703125,0.031749140471220016,0.04800694063305855,-0.05666274577379227
1751013531563491000,3.998490966796875,0.03912290185689926,0.050808053463697433,-0.054085873067379
1751013531573435100,4.00843505859375,0.04484523460268974,0.05059926211833954,-0.048104945570230484
1751013531583378200,4.018378173828125,0.05181792378425598,0.05686993896961212,-0.03864779323339462
1751013531593322000,4.028322021484375,0.04378902539610863,0.06455875188112259,-0.029695577919483185
1751013531603265000,4.03826513671875,0.022815566509962082,0.055999886244535446,-0.0316103920340538
1751013531613208000,4.0482080078125,0.005337241105735302,0.0396755076944828,-0.03529966622591019
1751013531623152400,4.05815234375,-0.0184642281383276,0.028504611924290657,-0.04165130481123924
1751013531633095000,4.068094970703125,-0.03093261644244194,0.019396334886550903,-0.045108355581760406
1751013531643038000,4.078037841796875,-0.035722311586141586,0.01715421862900257,-0.04520156607031822
1751013531652982300,4.087982177734375,-0.031240742653608322,0.024096282199025154,-0.028210332617163658
1751013531662925300,4.09792529296875,-0.023453926667571068,0.037090644240379333,-0.01185186579823494
1751013531672868400,4.107868408203125,-0.0205707885324955,0.04761518910527229,0.01110511552542448
1751013531682812200,4.117812255859375,-0.010403638705611229,0.054723698645830154,0.03136324882507324
1751013531692755200,4.127755126953125,-0.0021528995130211115,0.05580361187458038,0.043295010924339294
1751013531702698200,4.1376982421875,-0.005313272587954998,0.04969565197825432,0.048708949238061905
1751013531712642300,4.147642333984375,-0.010663829743862152,0.03924913704395294,0.04400527477264404
1751013531722585000,4.157585205078125,-0.021132182329893112,0.03982677310705185,0.03786828741431236
1751013531732528000,4.167528076171875,-0.029921414330601692,0.0367678664624691,0.024601483717560768
1751013531742472200,4.17747216796875,-0.030880151316523552,0.04074743017554283,0.01805330254137516
1751013531752415200,4.187415283203125,-0.02895388752222061,0.03433986380696297,0.017300160601735115
1751013531762359000,4.197359130859375,-0.023562051355838776,0.025350630283355713,0.020592626184225082
1751013531772302000,4.207302001953125,-0.018078869208693504,0.02051646076142788,0.028365595266222954
1751013531782245000,4.2172451171875,-0.02221289463341236,0.01943335309624672,0.043714191764593124
1751013531792189200,4.227189208984375,-0.03136644512414932,0.028255872428417206,0.05529841035604477
1751013531802132200,4.23713232421875,-0.027041204273700714,0.043348271399736404,0.06347324699163437
1751013531812075300,4.2470751953125,-0.016020778566598892,0.05656181275844574,0.06629779934883118
1751013531822019000,4.25701904296875,0.0007872303831391037,0.06072673201560974,0.06331852078437805
1751013531831962000,4.266962158203125,0.015978166833519936,0.06210145354270935,0.0542943961918354
1751013531841905200,4.2769052734375,0.01931377686560154,0.05018221214413643,0.04380873218178749
1751013531851849000,4.286848876953125,0.01570226438343525,0.024897094815969467,0.030880950391292572
1751013531861792000,4.2967919921875,-0.000913197931367904,-0.008551144041121006,0.014109427109360695
1751013531871735000,4.306735107421875,-0.01866050250828266,-0.044378116726875305,-0.004147074185311794
1751013531881679000,4.31667919921875,-0.029753901064395905,-0.06445834785699844,-0.016475113108754158
1751013531891622100,4.3266220703125,-0.04020600765943527,-0.06431587040424347,-0.022710638120770454
1751013531901565200,4.336565185546875,-0.035538554191589355,-0.0456729456782341,-0.03471057489514351
1751013531911509000,4.346509033203125,-0.020793428644537926,-0.02111939899623394,-0.03219974786043167
1751013531921452000,4.3564521484375,-0.00014940333494450897,0.008485097438097,-0.012804478406906128
1751013531931395000,4.36639501953125,0.017169399186968803,0.03507409617304802,0.0026229473296552896
1751013531941339100,4.376339111328125,0.019391806796193123,0.045272406190633774,0.014898521825671196
1751013531951282000,4.386281982421875,0.019773438572883606,0.02972407266497612,0.019963854923844337
1751013531961226200,4.396226318359375,0.007595601491630077,-0.006953513715416193,0.01690201833844185
1751013531971169300,4.406169189453125,-0.0011374361347407103,-0.040639039129018784,0.014315555803477764
1751013531981112300,4.4161123046875,-0.009810286574065685,-0.04340739548206329,0.010861702263355255
1751013531991056100,4.42605615234375,-0.019647737964987755,-0.036611009389162064,0.006216616835445166
1751013532000999200,4.435999267578125,-0.017495635896921158,-0.029354427009820938,-0.006047506351023912
1751013532010942200,4.445942138671875,-0.015094797126948833,-0.02166348323225975,-0.021217670291662216
1751013532020886300,4.45588623046875,-0.012557070702314377,-0.012556804344058037,-0.03489779680967331
1751013532030829300,4.465829345703125,-0.012569321319460869,-0.005117264110594988,-0.03633963316679001
1751013532040772000,4.475772216796875,-0.006077599711716175,0.0003712446487043053,-0.035843219608068466
1751013532050716200,4.485716064453125,0.004132426809519529,0.006838198751211166,-0.0270135086029768
1751013532060659200,4.4956591796875,0.022185463458299637,0.007244597189128399,-0.016452210023999214
1751013532070602200,4.505602294921875,0.032215725630521774,0.007096525281667709,-0.004086620640009642
1751013532080546000,4.515546142578125,0.03495505452156067,0.011433216743171215,0.004539890680462122
1751013532090489000,4.525489013671875,0.032600287348032,0.020235231146216393,0.009148490615189075
1751013532100432100,4.53543212890625,0.01715448498725891,0.028970398008823395,0.009587380103766918
1751013532110376200,4.545376220703125,0.0033784860279411077,0.026459570974111557,0.0038506644777953625
1751013532120319200,4.5553193359375,-0.009954895824193954,0.02202460914850235,-0.0070459251292049885
1751013532130262000,4.565261962890625,-0.014371216297149658,0.019225891679525375,-0.013139504007995129
1751013532140206000,4.5752060546875,-0.0159443449229002,0.022360965609550476,-0.021584387868642807
1751013532150149000,4.585149169921875,-0.015312643721699715,0.023675501346588135,-0.028796760365366936
1751013532160093200,4.59509326171875,-0.014079333283007145,0.010881409980356693,-0.028194352984428406
1751013532170036000,4.605035888671875,-0.01130698248744011,0.005067196674644947,-0.021035777404904366
1751013532179979000,4.61497900390625,-0.005885852500796318,0.014649515971541405,-0.009642506949603558
1751013532189923000,4.624923095703125,0.0032586439047008753,0.019277025014162064,0.01071229949593544
1751013532199866000,4.6348662109375,0.014091850258409977,0.03368419408798218,0.026262762024998665
1751013532209809200,4.64480908203125,0.019785689190030098,0.049672216176986694,0.03357819840312004
1751013532219753000,4.6547529296875,0.02455061674118042,0.05914827436208725,0.03874979168176651
1751013532229696000,4.664696044921875,0.029291842132806778,0.06145350635051727,0.04108352214097977
1751013532239639000,4.67463916015625,0.020842963829636574,0.04722317308187485,0.036798495799303055
1751013532249583400,4.684583251953125,0.013018330559134483,0.017361413687467575,0.027811657637357712
1751013532259526100,4.694526123046875,0.0018671422731131315,-0.01537709217518568,0.018786737695336342
1751013532269469000,4.704468994140625,-0.006344448775053024,-0.03725709021091461,0.01047447882592678
1751013532279413200,4.714413330078125,-0.011410313658416271,-0.045271873474121094,0.0022330605424940586
1751013532289356300,4.724356201171875,-0.013260677456855774,-0.038310371339321136,-0.006314621306955814
1751013532299299300,4.73429931640625,-0.002055960241705179,-0.013973872177302837,-0.013437245041131973
1751013532309243100,4.7442431640625,0.007799599785357714,0.004765992984175682,-0.0291735976934433
1751013532319186200,4.754186279296875,0.016098009422421455,0.023964721709489822,-0.04928499087691307
1751013532329130200,4.764130126953125,0.019215771928429604,0.039799612015485764,-0.05979808419942856
1751013532339073300,4.7740732421875,0.01426522247493267,0.044065993279218674,-0.0626031905412674
1751013532349016000,4.78401611328125,0.015598666854202747,0.0336514376103878,-0.04767271503806114
1751013532358960000,4.793960205078125,0.02088797092437744,0.018032796680927277,-0.01943947747349739
1751013532368903200,4.803903076171875,0.02406725287437439,0.0019286612514406443,0.006392118986696005
1751013532378846200,4.81384619140625,0.028682511299848557,-0.027091804891824722,0.025188444182276726
1751013532388790000,4.8237900390625,0.02255670726299286,-0.05288451910018921,0.027166640385985374
1751013532398733000,4.833733154296875,0.019824039191007614,-0.06402771919965744,0.015079616568982601
1751013532408676000,4.843676025390625,0.01607670448720455,-0.05691494792699814,-0.003721767570823431
1751013532418620200,4.8536201171875,0.01619814522564411,-0.046722233295440674,-0.03544241189956665
1751013532428563200,4.863563232421875,0.017345700412988663,-0.039556462317705154,-0.06441893428564072
1751013532438506500,4.873506591796875,0.02323395013809204,-0.035053592175245285,-0.0832996815443039
1751013532448450600,4.883450439453125,0.027834294363856316,-0.03736521676182747,-0.09342741966247559
1751013532458393600,4.8933935546875,0.034679949283599854,-0.03874446451663971,-0.10064751654863358
1751013532468336600,4.903336669921875,0.04139644280076027,-0.05012575164437294,-0.09968052059412003
1751013532478280400,4.913280517578125,0.03870824724435806,-0.056490708142519,-0.10353677719831467
1751013532488223500,4.923223388671875,0.03055844083428383,-0.0605994313955307,-0.10166510939598083
1751013532498167800,4.933167724609375,0.01690627820789814,-0.052257612347602844,-0.09684185683727264
1751013532508110600,4.943110595703125,0.002016279147937894,-0.04158978909254074,-0.10039424896240234
1751013532518053600,4.9530537109375,-0.008310394361615181,-0.04290911927819252,-0.12111097574234009
1751013532527997700,4.962997802734375,-0.0158306285738945,-0.058332014828920364,-0.14203757047653198
1751013532537940700,4.972940673828125,-0.020832311362028122,-0.0831095352768898,-0.15621569752693176
1751013532547883800,4.9828837890625,-0.021226458251476288,-0.07698000222444534,-0.14457236230373383
1751013532557827600,4.99282763671875,-0.015916382893919945,-0.04584605246782303,-0.11037657409906387
1751013532567770600,5.0027705078125,-0.00022849922243040055,-0.013252688571810722,-0.06673216074705124
1751013532577713700,5.012713623046875,0.02261875942349434,0.010939733125269413,-0.029098497703671455
1751013532587657700,5.02265771484375,0.03599608317017555,0.02514583244919777,0.006196376867592335
1751013532597600800,5.032600830078125,0.04543166235089302,0.02761192061007023,0.021075990051031113
1751013532607543800,5.042543701171875,0.04186728969216347,0.020861072465777397,0.01661412976682186
1751013532617487600,5.052487548828125,0.03200000897049904,0.013319799676537514,0.008680573664605618
1751013532627430700,5.0624306640625,0.028740568086504936,0.014087589457631111,-0.0019028285751119256
1751013532637373700,5.072373779296875,0.03301946818828583,0.019530557096004486,-0.014461496844887733
1751013532647317800,5.08231787109375,0.04548173025250435,0.03465651348233223,-0.01974307745695114
1751013532657260500,5.092260498046875,0.058404188603162766,0.043544016778469086,-0.02815840020775795
1751013532667203600,5.10220361328125,0.0714438259601593,0.050701260566711426,-0.02959730662405491
1751013532677147600,5.112147705078125,0.07799466699361801,0.047755006700754166,-0.03695588558912277
1751013532687090700,5.122090576171875,0.07713180035352707,0.029525401070713997,-0.047921985387802124
1751013532697033700,5.13203369140625,0.07137511670589447,0.0020575581584125757,-0.058584749698638916
1751013532706977500,5.1419775390625,0.05843827500939369,-0.021930865943431854,-0.07067416608333588
1751013532716920600,5.151920654296875,0.04625324904918671,-0.032831717282533646,-0.07874434441328049
1751013532726864600,5.16186474609375,0.04097379744052887,-0.045512355864048004,-0.08016620576381683
1751013532736807700,5.1718076171875,0.039319176226854324,-0.0456220805644989,-0.07798747718334198
1751013532746750700,5.181750732421875,0.038838475942611694,-0.046129144728183746,-0.06848239153623581
1751013532756694500,5.191694580078125,0.03524933382868767,-0.05233883857727051,-0.05958743020892143
1751013532766637600,5.201637451171875,0.03786402568221092,-0.060683585703372955,-0.04725592955946922
1751013532776580600,5.21158056640625,0.042093656957149506,-0.05988730117678642,-0.0347989946603775
1751013532786524400,5.2215244140625,0.043236155062913895,-0.04513818398118019,-0.02166774496436119
1751013532796467500,5.231467529296875,0.03876417502760887,-0.025363147258758545,-0.0030533140525221825
1751013532806410500,5.241410400390625,0.03572923690080643,0.0008921589469537139,0.01733637973666191
1751013532816354800,5.251354736328125,0.03578942269086838,0.03255927562713623,0.028245219960808754
1751013532826297900,5.2612978515625,0.028547488152980804,0.060509148985147476,0.0365377701818943
1751013532836240600,5.27124072265625,0.01685168407857418,0.08634873479604721,0.04139457643032074
1751013532846184700,5.281184814453125,0.004314587451517582,0.10022753477096558,0.04297623038291931
1751013532856127700,5.291127685546875,-0.015229819342494011,0.10309150069952011,0.0453600250184536
1751013532866070800,5.30107080078125,-0.028987975791096687,0.10343398153781891,0.047920387238264084
1751013532876014600,5.3110146484375,-0.0380118303000927,0.095658078789711,0.04808976501226425
1751013532885957600,5.32095751953125,-0.04559837654232979,0.09006970375776291,0.04814329370856285
1751013532895901700,5.330901611328125,-0.04892626404762268,0.07862663269042969,0.04127446934580803
1751013532905844700,5.3408447265625,-0.04680478945374489,0.059171710163354874,0.022874955087900162
1751013532915787800,5.350787841796875,-0.04274293780326843,0.041425470262765884,0.0010980212828144431
1751013532925731600,5.360731689453125,-0.032037559896707535,0.03788772597908974,-0.023455791175365448
1751013532935674600,5.370674560546875,-0.018368354067206383,0.04728975147008896,-0.041070472449064255
1751013532945617700,5.38061767578125,-0.007182279136031866,0.06526875495910645,-0.054193198680877686
1751013532955561700,5.390561767578125,-0.0034256239887326956,0.07799679785966873,-0.056415338069200516
1751013532965504800,5.4005048828125,0.0002950782363768667,0.06972528249025345,-0.05705449730157852
1751013532975447600,5.410447509765625,0.00666456064209342,0.04555656760931015,-0.05275455862283707
1751013532985391600,5.4203916015625,0.01715049147605896,0.015364575199782848,-0.043845485895872116
1751013532995334700,5.430334716796875,0.02948332391679287,0.008109059184789658,-0.027819113805890083
1751013533005277700,5.440277587890625,0.03960520029067993,0.01480318047106266,-0.01130778156220913
1751013533015221500,5.450221435546875,0.04368196800351143,0.016655676066875458,-0.0002561961009632796
1751013533025164500,5.46016455078125,0.042321622371673584,0.002829342382028699,0.0033425334841012955
1751013533035108600,5.470108642578125,0.027106719091534615,-0.015145130455493927,0.0008945558220148087
1751013533045051600,5.4800517578125,0.008678442798554897,-0.03754178434610367,0.006187055725604296
1751013533054994700,5.48999462890625,-0.008916529826819897,-0.055814795196056366,0.012790363281965256
1751013533064938500,5.4999384765625,-0.014719557948410511,-0.06100369989871979,0.026920298114418983
1751013533074881500,5.509881591796875,-0.01179114542901516,-0.05597538501024246,0.039140213280916214
1751013533084824600,5.519824462890625,-0.009378587827086449,-0.03629089519381523,0.05029965564608574
1751013533094768600,5.5297685546875,-0.00857085082679987,-0.0035486621782183647,0.06745094805955887
1751013533104711400,5.53971142578125,-0.009492305107414722,0.019098060205578804,0.08550132066011429
1751013533114654500,5.549654541015625,-0.001606152392923832,0.007537011988461018,0.09581254422664642
1751013533124598800,5.559598876953125,0.006988667417317629,-0.023238476365804672,0.09501039981842041
1751013533134541800,5.569541748046875,0.011027617380023003,-0.04676217958331108,0.083580382168293
1751013533144484900,5.57948486328125,0.00806085579097271,-0.061705440282821655,0.05999782308936119
1751013533154428700,5.5894287109375,0.009866745211184025,-0.07724232226610184,0.045464154332876205
1751013533164371700,5.599371826171875,0.010790862143039703,-0.0968511775135994,0.037399303168058395
1751013533174314800,5.609314697265625,0.008068845607340336,-0.10987164080142975,0.03473401069641113
1751013533184258800,5.6192587890625,0.0032567796297371387,-0.13103444874286652,0.011139203794300556
1751013533194201600,5.62920166015625,0.003605387406423688,-0.15349794924259186,-0.02858557179570198
1751013533204145700,5.639145751953125,0.005252552684396505,-0.18061025440692902,-0.07958990335464478
1751013533214088700,5.649088623046875,-0.0016966998809948564,-0.19643396139144897,-0.12383086234331131
1751013533224031700,5.65903173828125,-0.014286261051893234,-0.1870652288198471,-0.14590047299861908
1751013533233975600,5.6689755859375,-0.026547720655798912,-0.15574805438518524,-0.13388323783874512
1751013533243918600,5.678918701171875,-0.03333958238363266,-0.11131960153579712,-0.09576167911291122
1751013533253861600,5.688861572265625,-0.028188761323690414,-0.061955247074365616,-0.037930604070425034
1751013533263805700,5.6988056640625,-0.015673235058784485,-0.023803865537047386,0.026070749387145042
1751013533273748700,5.708748779296875,-0.014209295623004436,-0.00015100123709999025,0.08973228186368942
1751013533283691500,5.71869140625,-0.019231218844652176,0.017704429104924202,0.14031609892845154
1751013533293635600,5.728635498046875,-0.01883920095860958,0.03093820810317993,0.1693331003189087
1751013533303578600,5.73857861328125,-0.013016199693083763,0.03488421440124512,0.17919717729091644
1751013533313521700,5.748521728515625,-0.011690744198858738,0.045040443539619446,0.17867547273635864
1751013533323465500,5.758465576171875,-0.01540825143456459,0.06540404260158539,0.17163912951946259
1751013533333408500,5.768408447265625,-0.021381188184022903,0.08167808502912521,0.16564328968524933
1751013533343352600,5.7783525390625,-0.03530446067452431,0.08145517855882645,0.1525956690311432
1751013533353295600,5.788295654296875,-0.037943918257951736,0.07086271792650223,0.13813044130802155
1751013533363238700,5.79823876953125,-0.033427197486162186,0.05362008512020111,0.12115705013275146
1751013533373182500,5.808182373046875,-0.02671310305595398,0.033673807978630066,0.09927838295698166
1751013533383125500,5.81812548828125,-0.02574637532234192,0.008958607912063599,0.06788744032382965
1751013533393068500,5.828068603515625,-0.025951972231268883,-0.028975192457437515,0.030587736517190933
1751013533403012900,5.838012939453125,-0.028316859155893326,-0.08147408813238144,-0.008587096817791462
1751013533412955600,5.84795556640625,-0.042874496430158615,-0.12820537388324738,-0.03790637105703354
1751013533422898400,5.8578984375,-0.048960618674755096,-0.14536304771900177,-0.060740843415260315
1751013533432842800,5.8678427734375,-0.06053711473941803,-0.1336379498243332,-0.07696428894996643
1751013533442785500,5.87778564453125,-0.06585491448640823,-0.11197154223918915,-0.08668269962072372
1751013533452728600,5.887728515625,-0.06305539608001709,-0.08549732714891434,-0.100523941218853
1751013533462672400,5.89767236328125,-0.05878235772252083,-0.061157628893852234,-0.12285029143095016
1751013533472615400,5.907615478515625,-0.06330360472202301,-0.04735792800784111,-0.1342875063419342
1751013533482559500,5.9175595703125,-0.0728347897529602,-0.03959987312555313,-0.13723082840442657
1751013533492502500,5.92750244140625,-0.08325201272964478,-0.04042119160294533,-0.13076387345790863
1751013533502445600,5.937445556640625,-0.0899176374077797,-0.0482516847550869,-0.10885005444288254
1751013533512389400,5.947389404296875,-0.08641505241394043,-0.055029429495334625,-0.08939139544963837
1751013533522332400,5.95733251953125,-0.08851734548807144,-0.06235445290803909,-0.07393015176057816
1751013533532275500,5.967275390625,-0.09655796736478806,-0.07161399722099304,-0.06198960170149803
1751013533542219500,5.977219482421875,-0.10667797923088074,-0.07217486202716827,-0.05086344853043556
1751013533552162300,5.987162353515625,-0.1203027069568634,-0.07476291805505753,-0.04701597988605499
1751013533562105300,5.997105224609375,-0.12714330852031708,-0.07937312126159668,-0.03241919353604317
1751013533572049700,6.007049560546875,-0.1290527880191803,-0.07145314663648605,-0.014088921248912811
1751013533581992700,6.01699267578125,-0.12187077850103378,-0.05615301802754402,0.007163636852055788
1751013533591936500,6.0269365234375,-0.1189868375658989,-0.03965047374367714,0.01750229485332966
1751013533601879600,6.036879638671875,-0.11793462932109833,-0.0186474546790123,0.010634002275764942
1751013533611822600,6.046822509765625,-0.12159726768732071,-0.001219461439177394,-0.009199091233313084
1751013533621766700,6.0567666015625,-0.12910445034503937,0.011806592345237732,-0.03922197222709656
1751013533631709700,6.066709716796875,-0.13457272946834564,0.024762071669101715,-0.07051651179790497
1751013533641652500,6.076652587890625,-0.13975630700588226,0.033422671258449554,-0.08723849803209305
1751013533651596500,6.086596435546875,-0.1519961953163147,0.03533695265650749,-0.09545568376779556
1751013533661539600,6.09653955078125,-0.16827422380447388,0.03212997317314148,-0.08435562998056412
1751013533671482600,6.106482666015625,-0.18467023968696594,0.026919232681393623,-0.06300293654203415
1751013533681426400,6.116426513671875,-0.19650612771511078,0.02588273026049137,-0.042330145835876465
1751013533691369500,6.126369384765625,-0.20280984044075012,0.020241355523467064,-0.0304548442363739
1751013533701313500,6.1363134765625,-0.18808521330356598,0.022473616525530815,-0.01660134643316269
1751013533711256600,6.146256591796875,-0.1737470179796219,0.03447275608778,-0.012114453129470348
1751013533721199600,6.15619970703125,-0.16525819897651672,0.05252312868833542,-0.009349026717245579
1751013533731143400,6.166143310546875,-0.1629452407360077,0.06504078209400177,-0.01501250546425581
1751013533741086500,6.17608642578125,-0.16651174426078796,0.055275507271289825,-0.02623799629509449
1751013533751029500,6.186029541015625,-0.16929395496845245,0.029771210625767708,-0.03948269411921501
1751013533760973600,6.1959736328125,-0.1726870834827423,-0.0032557144295424223,-0.04959125444293022
1751013533770916400,6.205916259765625,-0.169514462351799,-0.019841348752379417,-0.05025970935821533
1751013533780859400,6.215859375,-0.16064028441905975,-0.01823679357767105,-0.042152248322963715
1751013533790803500,6.225803466796875,-0.15244413912296295,0.002019208623096347,-0.03056323528289795
1751013533800746500,6.23574658203125,-0.14238297939300537,0.02899996004998684,-0.013021792285144329
1751013533810690300,6.245690185546875,-0.14295396208763123,0.04289074242115021,-0.005240035708993673
1751013533820633300,6.25563330078125,-0.14156325161457062,0.04466946795582771,0.0012863067677244544
1751013533830576400,6.265576416015625,-0.13883884251117706,0.04935876280069351,0.0015041533624753356
1751013533840520700,6.275520751953125,-0.12279462814331055,0.06399869173765182,0.007119961082935333
1751013533850463700,6.285463623046875,-0.11159097403287888,0.07632406800985336,0.006247243378311396
1751013533860406300,6.29540625,-0.10381641238927841,0.08191803842782974,0.010223875753581524
1751013533870350600,6.3053505859375,-0.09959237277507782,0.08035209774971008,0.011598599143326283
1751013533880293600,6.315293701171875,-0.09686210006475449,0.07674617320299149,0.014857509173452854
1751013533890237700,6.32523779296875,-0.09060446918010712,0.06309480965137482,0.018937472254037857
1751013533900180500,6.335180419921875,-0.09161380678415298,0.049186721444129944,0.0141373910009861
1751013533910123500,6.34512353515625,-0.10086536407470703,0.04162334278225899,0.000913197931367904
1751013533920067600,6.355067626953125,-0.11428076773881912,0.04057299345731735,-0.00740119069814682
1751013533930010600,6.3650107421875,-0.12990286946296692,0.059374112635850906,-0.01299303025007248
1751013533939953700,6.37495361328125,-0.13374102115631104,0.08421874046325684,-0.02142912521958351
1751013533949897500,6.3848974609375,-0.11145754903554916,0.12042760848999023,-0.028547488152980804
1751013533959840500,6.394840576171875,-0.08583234995603561,0.121891550719738,-0.02810007706284523
1751013533969783600,6.404783447265625,-0.07551899552345276,0.11238646507263184,-0.015077752992510796
1751013533979727600,6.4147275390625,-0.07035619020462036,0.0892672911286354,-0.002540922025218606
1751013533989670400,6.42467041015625,-0.06827173382043839,0.07853156328201294,0.01321087684482336
1751013533999614500,6.434614501953125,-0.06175630912184715,0.06522134691476822,0.022071480751037598
1751013534009557500,6.4445576171875,-0.0618138313293457,0.054784152656793594,0.01960885524749756
1751013534019500500,6.45450048828125,-0.07169762253761292,0.05566885322332382,0.009822004474699497
1751013534029444400,6.4644443359375,-0.0872345045208931,0.05294737219810486,-0.011699533089995384
1751013534039387400,6.474387451171875,-0.09975961595773697,0.045288652181625366,-0.032093487679958344
1751013534049330400,6.484330322265625,-0.10209441184997559,0.03891996666789055,-0.048470862209796906
1751013534059274500,6.4942744140625,-0.09340771287679672,0.032754749059677124,-0.0600135363638401
1751013534069217500,6.504217529296875,-0.07774832099676132,0.03346981108188629,-0.05736662074923515
1751013534079161300,6.514161376953125,-0.06546582281589508,0.03522083908319473,-0.04638933762907982
1751013534089104400,6.5241044921875,-0.05036250501871109,0.044311005622148514,-0.03130599111318588
1751013534099047400,6.53404736328125,-0.04140336439013481,0.04764901101589203,-0.0116737000644207
1751013534108991700,6.54399169921875,-0.0392770990729332,0.05113881826400757,0.008804677054286003
1751013534118934500,6.5539345703125,-0.03177444264292717,0.051218181848526,0.021263476461172104
1751013534128877300,6.563877197265625,-0.02245364338159561,0.04513818398118019,0.03688078746199608
1751013534138821600,6.573821533203125,-0.01167343370616436,0.043041475117206573,0.03455877676606178
1751013534148764700,6.5837646484375,-0.006894924212247133,0.047871917486190796,0.03610207885503769
1751013534158708500,6.59370849609375,-0.01071123406291008,0.04948313161730766,0.02977946773171425
1751013534168651500,6.603651611328125,-0.013438843190670013,0.045276667922735214,0.01816835068166256
1751013534178594600,6.613594482421875,-0.022541262209415436,0.03386875241994858,0.001386707997880876
1751013534188538600,6.62353857421875,-0.03073980286717415,0.02046825736761093,-0.015391206368803978
1751013534198481700,6.633481689453125,-0.03407647833228111,0.008448345586657524,-0.023263243958353996
1751013534208424400,6.643424560546875,-0.034095119684934616,0.010981544852256775,-0.01979580894112587
1751013534218368500,6.653368408203125,-0.0337558314204216,0.030313163995742798,-0.0020865867845714092
1751013534228311600,6.6633115234375,-0.02821965329349041,0.06243940815329552,0.018163558095693588
1751013534238255600,6.673255615234375,-0.020324712619185448,0.08553674072027206,0.03586079552769661
1751013534248198400,6.683198486328125,-0.012606605887413025,0.09580002725124359,0.0484791174530983
1751013534258141400,6.693141357421875,-0.005663211923092604,0.08933387696743011,0.05603610351681709
1751013534268085500,6.70308544921875,-0.0036099147982895374,0.07445079833269119,0.054542604833841324
1751013534278028500,6.713028564453125,-0.005674929823726416,0.06402132660150528,0.04517599940299988
1751013534287971600,6.7229716796875,-0.0036464000586420298,0.04200311005115509,0.033357955515384674
1751013534297915400,6.732915283203125,-0.008007326163351536,0.01206838060170412,0.021619541570544243
1751013534307858400,6.7428583984375,-0.008011853322386742,-0.007150054909288883,0.010289921425282955
1751013534317802500,6.752802490234375,-0.0064834654331207275,-0.01025689858943224,0.006984938867390156
1751013534327745500,6.76274560546875,0.00037976677413098514,0.002454102970659733,0.006099704187363386
1751013534337688300,6.772688232421875,0.007574296556413174,0.020228838548064232,0.013746172189712524
1751013534347632400,6.78263232421875,0.020807810127735138,0.04436640068888664,0.021888786926865578
1751013534357575400,6.792575439453125,0.027661189436912537,0.06338882446289062,0.024567129090428352
1751013534367518500,6.8025185546875,0.03472336009144783,0.06784483045339584,0.02323688007891178
1751013534377462500,6.812462646484375,0.03009292110800743,0.04958699271082878,0.009410546161234379
1751013534387405600,6.822405517578125,0.023667246103286743,0.020064787939190865,-0.005562012083828449
1751013534397349600,6.832349609375,0.010817227885127068,-0.004283428192138672,-0.02275484800338745
1751013534407292700,6.842292724609375,-0.0041366880759596825,-0.006734868045896292,-0.03254196420311928
1751013534417235700,6.852235595703125,-0.008146077394485474,0.004956941585987806,-0.042754121124744415
1751013534427179500,6.862179443359375,-0.0054882424883544445,0.029515281319618225,-0.041898179799318314
1751013534437122600,6.87212255859375,0.00720411678776145,0.055208127945661545,-0.03561365231871605
1751013534447064800,6.88206494140625,0.03026149980723858,0.07821677625179291,-0.02058650180697441
1751013534457009000,6.8920087890625,0.04164890944957733,0.09310091286897659,-0.004536694847047329
1751013534466952000,6.901951904296875,0.04849669709801674,0.09019514173269272,0.011033209972083569
1751013534476895700,6.911895751953125,0.04222868010401726,0.07463429123163223,0.01447188388556242
1751013534486838800,6.9218388671875,0.03112090192735195,0.0524594783782959,0.021150026470422745
1751013534496781800,6.93178173828125,0.015730226412415504,0.03163622319698334,0.031618114560842514
1751013534506726000,6.941725830078125,0.004481301177293062,0.011357849463820457,0.037460289895534515
1751013534516668700,6.951668701171875,-0.014273211359977722,-0.011356517672538757,0.034093789756298065
1751013534526611700,6.96161181640625,-0.018369419500231743,-0.02556474879384041,0.018037855625152588
1751013534536556000,6.97155615234375,-0.012834039516746998,-0.026645725592970848,0.00152332813013345
1751013534546498800,6.981498779296875,-0.0037678403314203024,-0.00908750481903553,-0.014753379859030247
1751013534556443000,6.99144287109375,0.003849865635856986,0.02359081245958805,-0.023544473573565483
1751013534566386000,7.001385986328125,0.0046512107364833355,0.052322592586278915,-0.024466726928949356
1751013534576329000,7.011328857421875,0.006376140285283327,0.06681498140096664,-0.022241655737161636
1751013534586273000,7.02127294921875,0.011406851932406425,0.07252133637666702,-0.012345083057880402
1751013534596216000,7.031216064453125,0.01858353801071644,0.06762698292732239,-0.0026117621455341578
1751013534606158800,7.041158935546875,0.022840334102511406,0.06301358342170715,0.00042983421008102596
1751013534616103000,7.05110302734375,0.022403575479984283,0.0468687042593956,0.001984321279451251
1751013534626046000,7.0610458984375,0.019515644758939743,0.024466460570693016,-0.003400856629014015
1751013534635990000,7.070989990234375,0.020502345636487007,0.009241967462003231,-0.0030088394414633512
1751013534645932800,7.080932861328125,0.014662565663456917,0.0022058964241296053,0.000963797967415303
1751013534655875800,7.090875732421875,0.0164205189794302,0.004972388036549091,0.009882458485662937
1751013534665820000,7.10081982421875,0.01828845962882042,0.01654515415430069,0.01787753403186798
1751013534675763000,7.110762939453125,0.029939522966742516,0.028690766543149948,0.02899809554219246
1751013534685706000,7.1207060546875,0.03869759291410446,0.03945952653884888,0.032710008323192596
1751013534695649800,7.13064990234375,0.044206343591213226,0.04680372402071953,0.03500165790319443
1751013534705592800,7.1405927734375,0.0460796095430851,0.054550591856241226,0.03485065698623657
1751013534715537000,7.150536865234375,0.038474686443805695,0.06353370100259781,0.0362088717520237
1751013534725480000,7.16047998046875,0.02522013522684574,0.05515699461102486,0.03236912563443184
1751013534735423000,7.170423095703125,0.00570023013278842,0.03322559595108032,0.019244002178311348
1751013534745366800,7.18036669921875,-0.0073316823691129684,-0.0010298443958163261,0.0034179009962826967
1751013534755309800,7.190309814453125,-0.009677927009761333,-0.024110661819577217,-0.009522132575511932
1751013534765252900,7.2002529296875,-0.00555242458358407,-0.02046399563550949,-0.02027704194188118
1751013534775196700,7.21019677734375,0.002115881536155939,-0.00013741910515818745,-0.031617581844329834
1751013534785139700,7.2201396484375,0.009269664995372295,0.02412078157067299,-0.03795244172215462
1751013534795084000,7.230083984375,0.0073378076776862144,0.037584658712148666,-0.04381405934691429
1751013534805027000,7.240027099609375,0.008812133222818375,0.04387957230210304,-0.04005713760852814
1751013534814969900,7.249969970703125,0.014082263223826885,0.032759811729192734,-0.038237135857343674
1751013534824914000,7.259913818359375,0.02383662387728691,0.012116583995521069,-0.027038542553782463
1751013534834857000,7.26985693359375,0.025846777483820915,-0.0002508697798475623,-0.017960092052817345
1751013534844801000,7.279801025390625,0.025771142914891243,-0.010419084690511227,-0.007041664328426123
1751013534854744000,7.289744140625,0.014702247455716133,-0.012687832117080688,-0.009040100499987602
1751013534864686800,7.299686767578125,0.0013195963110774755,0.001936384360305965,-0.011085407808423042
1751013534874631000,7.309630859375,-0.01338611263781786,0.02112419344484806,-0.018734006211161613
1751013534884574000,7.319573974609375,-0.024884045124053955,0.04328249394893646,-0.020369986072182655
1751013534894517000,7.32951708984375,-0.03455158695578575,0.04868258535861969,-0.02737729623913765
1751013534904460800,7.339460693359375,-0.03659050166606903,0.04915183410048485,-0.034094322472810745
1751013534914403800,7.34940380859375,-0.032944634556770325,0.0424736924469471,-0.0382070392370224
1751013534924348000,7.359347900390625,-0.02586435340344906,0.02658873423933983,-0.03353052958846092
1751013534934291000,7.369291015625,-0.022522086277604103,0.012402873486280441,-0.0305123683065176
1751013534944234000,7.37923388671875,-0.01848020777106285,0.006029130425304174,-0.021462414413690567
1751013534954177800,7.389177734375,-0.01866316609084606,0.008534632623195648,-0.013762150891125202
1751013534964120800,7.399120849609375,-0.01865517720580101,0.02327895723283291,-0.005201419815421104
1751013534974063900,7.40906396484375,-0.01655340939760208,0.04146089032292366,0.001785383210517466
1751013534984008000,7.419008056640625,-0.02056732587516308,0.046538472175598145,0.0035087147261947393
1751013534993950700,7.42895068359375,-0.027942152693867683,0.035597410053014755,0.011989285238087177
1751013535003894800,7.438894775390625,-0.041376736015081406,0.0283522792160511,0.011634818278253078
1751013535013837800,7.448837890625,-0.05429386347532272,0.014429805800318718,0.008832640014588833
1751013535023780900,7.45878076171875,-0.06418617814779282,-0.0009507485083304346,0.005371063016355038
1751013535033724700,7.468724609375,-0.06535237282514572,-0.003739078063517809,0.003139334265142679
1751013535043667700,7.478667724609375,-0.06027905270457268,0.016593357548117638,-0.013907560147345066
1751013535053610800,7.48861083984375,-0.053534865379333496,0.02821832150220871,-0.023931698873639107
1751013535063555000,7.49855517578125,-0.05246054381132126,0.060023654252290726,-0.03328258916735649
1751013535073497900,7.508497802734375,-0.05393300577998161,0.12563754618167877,-0.04056713357567787
1751013535083442000,7.51844189453125,-0.053829941898584366,0.19337745010852814,-0.037573475390672684
1751013535093385000,7.528385009765625,-0.0659923329949379,0.23346708714962006,-0.030596790835261345
1751013535103328000,7.538327880859375,-0.08094678074121475,0.24000486731529236,-0.025724271312355995
1751013535113272000,7.54827197265625,-0.08320806920528412,0.21140599250793457,-0.010909106582403183
1751013535123214800,7.55821484375,-0.06980997323989868,0.1436128318309784,0.00649784691631794
1751013535133159000,7.568158935546875,-0.06509937345981598,0.0816972628235817,0.02238520048558712
1751013535143102000,7.57810205078125,-0.08999353647232056,0.04355093836784363,0.038358572870492935
1751013535153045000,7.588044921875,-0.12158768624067307,0.039504267275333405,0.05537217855453491
1751013535162988800,7.59798876953125,-0.15845142304897308,0.046615440398454666,0.05958956107497215
1751013535172931800,7.607931884765625,-0.17667223513126373,0.028622856363654137,0.04885169491171837
1751013535182875000,7.617875,-0.16758659482002258,-0.004804608877748251,0.031798411160707474
1751013535192819000,7.62781884765625,-0.13624891638755798,-0.04964371770620346,0.00996048841625452
1751013535202762000,7.637761962890625,-0.09934469312429428,-0.06166549399495125,-0.004659466445446014
1751013535212705800,7.647705810546875,-0.060858290642499924,-0.05139448121190071,-0.02075667679309845
1751013535222648800,7.65764892578125,-0.04302549734711647,-0.039200134575366974,-0.03491004556417465
1751013535232592000,7.667591796875,-0.0362434908747673,-0.0151017215102911,-0.04821839556097984
1751013535242536000,7.677535888671875,-0.029390113428235054,0.00395612558349967,-0.051474910229444504
1751013535252478700,7.687478759765625,-0.012207397259771824,0.010294449515640736,-0.05037955194711685
1751013535262422800,7.6974228515625,0.009278719313442707,0.014483601786196232,-0.032159533351659775
1751013535272365800,7.70736572265625,0.025678731501102448,0.015500929206609726,-0.005490372888743877
1751013535282308900,7.717308837890625,0.03111078217625618,0.0073596457950770855,0.02095082215964794
1751013535292252700,7.727252685546875,0.028729116544127464,-0.00027750138542614877,0.037283722311258316
1751013535302195700,7.73719580078125,0.019521502777934074,-0.015199991874396801,0.042271558195352554
1751013535312138800,7.747138671875,0.008384962566196918,-0.014768293127417564,0.0379742793738842
1751013535322083000,7.7570830078125,-0.0020993698853999376,-0.006828611250966787,0.025107217952609062
1751013535332026000,7.767026123046875,-0.007607319392263889,0.0036389431916177273,0.015602661296725273
1751013535341970000,7.776969970703125,-0.005507417023181915,0.021516211330890656,0.015311045572161674
1751013535351913000,7.786912841796875,0.009535448625683784,0.03833513706922531,0.01889459602534771
1751013535361856000,7.79685595703125,0.028799690306186676,0.039387352764606476,0.03039146214723587
1751013535371800000,7.806800048828125,0.051779307425022125,0.04009655490517616,0.03640327975153923
1751013535381742800,7.816742919921875,0.05453648045659065,0.02449868433177471,0.043295543640851974
1751013535391686000,7.826685791015625,0.04601249843835831,0.006938599981367588,0.039749275892972946
1751013535401630000,7.8366298828125,0.03470498323440552,-0.01101510040462017,0.02515542134642601
1751013535411573000,7.846572998046875,0.022756177932024002,-0.026700053364038467,0.00830826349556446
1751013535421516800,7.856516845703125,0.014258830808103085,-0.01721706986427307,-0.015052985399961472
1751013535431459800,7.8664599609375,0.009971407242119312,0.02094576135277748,-0.03774205222725868
1751013535441403100,7.876403076171875,0.00523710623383522,0.05511198937892914,-0.05464726686477661
1751013535451347200,7.88634716796875,0.0049196574836969376,0.06780887395143509,-0.056349825114011765
1751013535461290200,7.896290283203125,-0.006318349856883287,0.07639490813016891,-0.0396408848464489
1751013535471234000,7.906234130859375,-0.022652314975857735,0.07283026725053787,-0.013990383595228195
1751013535481177000,7.916177001953125,-0.027463315054774284,0.051657602190971375,0.014688931405544281
1751013535491120000,7.9261201171875,-0.0226733535528183,0.022763902321457863,0.03665974363684654
1751013535501064000,7.93606396484375,-0.010171943344175816,-0.014117416925728321,0.04644632712006569
1751013535511007000,7.946007080078125,-0.0004881574132014066,-0.03879772871732712,0.04699121043086052
1751013535520950000,7.955949951171875,0.00953784491866827,-0.04484257102012634,0.034084465354681015
1751013535530894000,7.96589404296875,0.012925651855766773,-0.02803589589893818,0.009007343091070652
1751013535540837000,7.975837158203125,0.019626963883638382,-0.005482915788888931,-0.02430747076869011
1751013535550781000,7.985781005859375,0.015409049578011036,0.02400466799736023,-0.05660682171583176
1751013535560724000,7.995723876953125,0.01182283740490675,0.04608919844031334,-0.08269647508859634
1751013535570667000,8.0056669921875,0.005368666257709265,0.05510692670941353,-0.0864344909787178
1751013535580611000,8.015611083984375,0.004013916477560997,0.05164188891649246,-0.08116862177848816
1751013535590554000,8.02555419921875,0.006627276539802551,0.04759228602051735,-0.05828620865941048
1751013535600498000,8.035497802734374,0.01733158528804779,0.036128975450992584,-0.029386917129158974
1751013535610441000,8.04544091796875,0.02166454866528511,0.016936106607317924,-0.0014306501252576709
1751013535620384000,8.055384033203126,0.016931045800447464,-0.0032226911280304193,0.019748138263821602
1751013535630328000,8.065328125,0.010321613401174545,-0.01570652425289154,0.03014432080090046
1751013535640270800,8.075270751953125,-0.0034077810123562813,-0.022642727941274643,0.03417421504855156
1751013535650214000,8.0852138671875,-0.009217200800776482,-0.02208559401333332,0.031615182757377625
1751013535660158200,8.095158203125,-0.010320015251636505,-0.0161235760897398,0.016516659408807755
1751013535670101200,8.105101318359376,-0.0046120621263980865,0.002712429501116276,-0.004490089602768421
1751013535680045000,8.115045166015625,0.0057156761176884174,0.025291241705417633,-0.030401581898331642
1751013535689988000,8.124988037109375,0.014103035442531109,0.04029575735330582,-0.05443234741687775
1751013535699931100,8.13493115234375,0.015334747731685638,0.0527644120156765,-0.0722358450293541
1751013535709875200,8.144875244140625,0.01721946708858013,0.05503502115607262,-0.08173427730798721
1751013535719818200,8.154818359375,0.017972609028220177,0.0538318045437336,-0.07040359079837799
1751013535729761000,8.164760986328124,0.02160090021789074,0.04302123561501503,-0.056103482842445374
1751013535739705000,8.174705078125,0.02468191087245941,0.029989324510097504,-0.034451182931661606
1751013535749648100,8.184648193359376,0.01998009905219078,0.015277756378054619,-0.011125088669359684
1751013535759592000,8.194592041015625,0.015484684146940708,0.0015049523208290339,0.0030834078788757324
1751013535769535000,8.204534912109375,0.000978978001512587,-0.0007294398383237422,0.020445886999368668
1751013535779478000,8.21447802734375,-0.0007685882737860084,0.0016740630380809307,0.03807707875967026
1751013535789422000,8.224422119140625,0.0014937670202925801,0.0021017666440457106,0.044742971658706665
1751013535799365000,8.234365234375,0.007366303354501724,0.014007162302732468,0.049488723278045654
1751013535809309000,8.244308837890625,0.019834691658616066,0.03412015363574028,0.04993639886379242
1751013535819252000,8.254251953125,0.026764769107103348,0.04741917923092842,0.040097083896398544
1751013535829195000,8.264195068359374,0.02919250726699829,0.04511980712413788,0.025783393532037735
1751013535839139000,8.27413916015625,0.026342658326029778,0.03298990800976753,0.011873170733451843
1751013535849082000,8.28408203125,0.01558082364499569,0.02376844547688961,-0.009053150191903114
1751013535859025000,8.29402490234375,0.007231547497212887,0.018602712079882622,-0.028060663491487503
1751013535868969000,8.303968994140625,0.0028309402987360954,0.01858673430979252,-0.043236155062913895
1751013535878912000,8.313912109375,0.009151953272521496,0.038175348192453384,-0.050512440502643585
1751013535888856000,8.32385595703125,0.020130569115281105,0.05897250771522522,-0.053109556436538696
1751013535898798800,8.333798828125,0.037512753158807755,0.07698266208171844,-0.05661667510867119
1751013535908742000,8.343741943359374,0.047437023371458054,0.08987049758434296,-0.05365763604640961
1751013535918686200,8.353686279296875,0.050748396664857864,0.08402486145496368,-0.05805771052837372
1751013535928629200,8.363629150390626,0.05097716301679611,0.06155230849981308,-0.0543479286134243
1751013535938573000,8.373572998046875,0.04544045031070709,0.023840351030230522,-0.0432252362370491
1751013535948516000,8.38351611328125,0.028492627665400505,-0.0052381716668605804,-0.032648757100105286
1751013535958459100,8.393459228515624,0.012437494471669197,-0.025535453110933304,-0.020183831453323364
1751013535968403200,8.4034033203125,0.004837099462747574,-0.03467275947332382,-0.0003757720405701548
1751013535978346000,8.413345947265626,-0.002877545543015003,-0.03251027315855026,0.011297661811113358
1751013535988289000,8.4232890625,-0.0133275231346488,-0.0255208071321249,0.022109296172857285
1751013535998233000,8.433233154296875,-0.010789263993501663,-0.02082245796918869,0.02178812026977539
1751013536008176000,8.443176025390626,0.003421362955123186,-0.01613715849816799,0.01672092266380787
1751013536018120000,8.453119873046875,0.02394847571849823,-0.013700366020202637,0.0033750240691006184
1751013536028063000,8.46306298828125,0.03708238899707794,-0.0011326423846185207,-0.00680197961628437
1751013536038006000,8.473006103515624,0.040523990988731384,0.018066085875034332,-0.0189055148512125
1751013536047950000,8.4829501953125,0.03392760828137398,0.034991271793842316,-0.02516048029065132
1751013536057893000,8.49289306640625,0.025358352810144424,0.03892582654953003,-0.028834044933319092
1751013536067836200,8.502836181640625,0.018250375986099243,0.04085901752114296,-0.025135446339845657
1751013536077780000,8.512780029296875,0.011981029063463211,0.04701331630349159,-0.018798721954226494
1751013536087723000,8.522722900390624,0.005059739574790001,0.043170638382434845,-0.020213657990098
1751013536097667000,8.5326669921875,-0.008052866905927658,0.02353808283805847,-0.012479039840400219
1751013536107610000,8.542610107421876,-0.021792380139231682,0.009874735027551651,-0.007062437012791634
1751013536117553000,8.552552978515624,-0.03484399989247322,0.00598518829792738,0.0019262643763795495
1751013536127497000,8.5624970703125,-0.040524523705244064,0.004632302559912205,0.014240721240639687
1751013536137440000,8.57243994140625,-0.032107867300510406,0.014313957653939724,0.02280731126666069
1751013536147383000,8.582383056640625,-0.020671457052230835,0.026034263893961906,0.034566499292850494
1751013536157327000,8.5923271484375,-0.0038421424105763435,0.030169885605573654,0.04452698677778244
1751013536167270000,8.602269775390624,0.005303685087710619,0.03452069312334061,0.05017049238085747
1751013536177214200,8.612214111328125,0.008207063190639019,0.03291533887386322,0.05613011494278908
1751013536187157200,8.6221572265625,0.009793508797883987,0.03357500582933426,0.04933053255081177
1751013536197100300,8.632100341796875,0.01221751794219017,0.03110172599554062,0.035535357892513275
1751013536207044000,8.642044189453125,0.011839348822832108,0.032705217599868774,0.01720188930630684
1751013536216987100,8.651987060546874,0.008776979520916939,0.0397559329867363,-0.0010271812789142132
1751013536226930200,8.66193017578125,0.0037033918779343367,0.044985584914684296,-0.021438712254166603
1751013536236874000,8.6718740234375,-0.008931176736950874,0.051649078726768494,-0.029833795502781868
1751013536246817000,8.681817138671875,-0.013792244717478752,0.05269383639097214,-0.040835846215486526
1751013536256761000,8.691760986328125,-0.016081498935818672,0.057188186794519424,-0.03465917706489563
1751013536266704100,8.7017041015625,-0.004022971261292696,0.05597937852144241,-0.02359054796397686
1751013536276647200,8.711647216796875,0.006263222079724073,0.05124374479055405,-0.006352704484015703
1751013536286591000,8.721591064453126,0.015489211305975914,0.04145263507962227,0.003960386849939823
1751013536296534000,8.731533935546874,0.011061972007155418,0.038671497255563736,0.021107416599988937
1751013536306478000,8.74147802734375,0.0010050770360976458,0.040056340396404266,0.026142122223973274
1751013536316421000,8.751421142578126,-0.005918076727539301,0.041784465312957764,0.028739502653479576
1751013536326364200,8.7613642578125,-0.005291168577969074,0.04206835851073265,0.03682645782828331
1751013536336308000,8.771307861328125,-0.0040826257318258286,0.046711843460798264,0.03635294735431671
1751013536346251000,8.7812509765625,0.00583631731569767,0.049185123294591904,0.031980570405721664
1751013536356194000,8.791194091796875,0.012938168831169605,0.04766286164522171,0.03212171792984009
1751013536366137900,8.801137939453126,0.012885970994830132,0.05416230484843254,0.025949308648705482
1751013536376081000,8.811080810546875,0.005922337528318167,0.04435734450817108,0.017646372318267822
1751013536386025000,8.82102490234375,-0.006527940277010202,0.027095533907413483,0.010687798261642456
1751013536395968000,8.830968017578124,-0.013994645327329636,0.010597516782581806,0.006981210317462683
1751013536405911000,8.8409111328125,-0.020020846277475357,-0.0002985403698403388,-0.0035398737527430058
1751013536415855000,8.850855224609376,-0.023735955357551575,0.005738579668104649,-0.008529040031135082
1751013536425798000,8.8607978515625,-0.025301095098257065,0.018083661794662476,-0.016982978209853172
1751013536435741000,8.870740966796875,-0.021470138803124428,0.03466823324561119,-0.023261645808815956
1751013536445686000,8.88068603515625,-0.013854296877980232,0.05088608339428902,-0.02774454653263092
1751013536455629000,8.890629150390625,-0.0038370825350284576,0.062306515872478485,-0.023805463686585426
1751013536465573000,8.900572998046876,0.008749282918870449,0.0506003275513649,-0.018321216106414795
1751013536475516200,8.91051611328125,0.01685834303498268,0.026628414168953896,0.0005123922019265592
1751013536485459200,8.920459228515625,0.008829178288578987,0.007218498270958662,0.018253305926918983
1751013536495403000,8.930403076171874,0.003644536016508937,-0.005367867648601532,0.028207402676343918
1751013536505346000,8.940345947265625,-0.007090133614838123,-0.020010460168123245,0.0356096588075161
1751013536515289000,8.9502890625,-0.010911503806710243,-0.0266537144780159,0.029816219583153725
1751013536525233200,8.960233154296875,-0.013317137025296688,-0.01600692979991436,0.015448997728526592
1751013536535176000,8.970176025390625,-0.008644354529678822,-0.00010333064710721374,-0.006720753386616707
1751013536545120300,8.980120361328124,-0.0009563411585986614,0.019885823130607605,-0.03460191935300827
1751013536555063300,8.990063232421875,0.008106395602226257,0.040162067860364914,-0.06356272846460342
1751013536565006300,9.00000634765625,0.015986157581210136,0.047627706080675125,-0.07209736108779907
1751013536574950100,9.0099501953125,0.014681474305689335,0.03640541061758995,-0.06395155191421509
1751013536584893200,9.01989306640625,0.015455389395356178,0.028731247410178185,-0.03151318430900574
1751013536594837200,9.029837158203126,0.018910573795437813,0.01871722936630249,0.007919441908597946
1751013536604780300,9.0397802734375,0.02593625895678997,0.012742958962917328,0.0415935143828392
1751013536614723300,9.049723388671875,0.02569258026778698,0.007138869725167751,0.0632985457777977
1751013536624667100,9.059667236328124,0.03021462820470333,0.0017630126094445586,0.06783231347799301
1751013536634610200,9.069610107421875,0.022302109748125076,-0.010802846401929855,0.0538717545568943
1751013536644553200,9.07955322265625,0.007812649011611938,-0.023745542392134666,0.030054837465286255
1751013536654497000,9.0894970703125,-0.005931925028562546,-0.025839585810899734,0.001112935016863048
1751013536664440000,9.099440185546875,-0.012231365777552128,-0.00929203536361456,-0.03478807583451271
1751013536674384100,9.109384033203124,-0.015722503885626793,0.004858404863625765,-0.06021673604846001
1751013536684327200,9.1193271484375,-0.020110860466957092,0.025956764817237854,-0.06621789932250977
1751013536694270200,9.129270263671875,-0.026198580861091614,0.04285718500614166,-0.06022978574037552
1751013536704214000,9.139214111328124,-0.033306024968624115,0.04697443172335625,-0.0367492251098156
1751013536714157000,9.149156982421875,-0.03262079507112503,0.039196405559778214,-0.009042230434715748
1751013536724100000,9.15910009765625,-0.028192488476634026,0.02467205747961998,0.021385183557868004
1751013536734044200,9.169044189453125,-0.02340572327375412,0.01787460409104824,0.0413341224193573
1751013536743987200,9.1789873046875,-0.02111753635108471,0.010998322628438473,0.05377241596579552
1751013536753931000,9.188930908203124,-0.0184708870947361,0.01254987996071577,0.05197478458285332
1751013536763874000,9.1988740234375,-0.0252773929387331,0.005888249259442091,0.038178011775016785
1751013536773817000,9.208817138671876,-0.030522489920258522,0.006410761270672083,0.02267548441886902
1751013536783761200,9.21876123046875,-0.03361788019537926,0.0073468624614179134,0.007925567217171192
1751013536793704000,9.228703857421875,-0.03623203933238983,0.009351956658065319,0.00138031633105129
1751013536803647000,9.23864697265625,-0.02966069057583809,0.020745757967233658,-0.004505536053329706
1751013536813591300,9.24859130859375,-0.021833127364516258,0.028977589681744576,0.0022740731947124004
1751013536823534300,9.258534423828126,-0.012473979964852333,0.03413853049278259,0.006973753683269024
1751013536833478100,9.26847802734375,-0.005110606085509062,0.04288781061768532,0.012950952164828777
1751013536843421200,9.278421142578125,-0.00487251952290535,0.047326236963272095,0.012677179649472237
1751013536853364200,9.2883642578125,-0.011143464595079422,0.03999987989664078,-0.0003049319493584335
1751013536863308300,9.298308349609375,-0.023119701072573662,0.025549035519361496,-0.021984927356243134
1751013536873251000,9.3082509765625,-0.02364088036119938,0.05152630805969238,-0.041906703263521194
1751013536883194000,9.318194091796874,-0.0043896883726119995,0.08804197609424591,-0.0704435408115387
1751013536893138200,9.32813818359375,0.024382837116718292,0.09447856992483139,-0.10013272613286972
1751013536903081200,9.338081298828126,0.05217265710234642,0.08869817852973938,-0.109760582447052
1751013536913025000,9.34802490234375,0.05018194392323494,0.07787429541349411,-0.11163944751024246
1751013536922968000,9.357968017578125,0.03627198562026024,0.052674662321805954,-0.09695158153772354
1751013536932911000,9.3679111328125,0.020251741632819176,0.02322462946176529,-0.07275117188692093
1751013536942855200,9.377855224609375,0.011439874768257141,-0.006688529159873724,-0.038788143545389175
1751013536952798200,9.387798095703126,0.0059835901483893394,-0.025775404646992683,-0.0037502634804695845
1751013536962742000,9.397741943359375,0.003634948516264558,-0.02648407220840454,0.03404345363378525
1751013536972685000,9.40768505859375,0.004511395003646612,-0.02123151905834675,0.062313973903656006
1751013536982628000,9.417628173828126,0.006960703991353512,-0.008734103292226791,0.06993114948272705
1751013536992572200,9.427572265625,0.015673235058784485,0.006188920233398676,0.06689514219760895
1751013537002515200,9.43751513671875,0.02377457171678543,0.016956346109509468,0.049613893032073975
1751013537012458000,9.4474580078125,0.020850686356425285,0.025531193241477013,0.022884011268615723
1751013537022402000,9.457402099609375,0.008770854212343693,0.021879998967051506,-0.01501223910599947
1751013537032345000,9.467344970703126,0.0025329324416816235,0.016704412177205086,-0.04344707727432251
1751013537042288000,9.4772880859375,0.0025515747256577015,0.01465590763837099,-0.06646238267421722
1751013537052232000,9.48723193359375,0.006746319588273764,0.011422830633819103,-0.0784122496843338
1751013537062175000,9.497175048828124,0.008872587233781815,0.004397411365061998,-0.07890493422746658
1751013537072119300,9.507119384765625,0.018732940778136253,0.0031944618094712496,-0.06353317201137543
1751013537082062300,9.517062255859376,0.02556714601814747,0.006607302464544773,-0.05344538018107414
1751013537092005400,9.52700537109375,0.02894802764058113,0.010683802887797356,-0.031198132783174515
1751013537101949200,9.53694921875,0.029048696160316467,0.010039318352937698,-0.0057646785862743855
1751013537111892200,9.546892333984376,0.02267921343445778,0.009255017153918743,0.02749633975327015
1751013537121836300,9.556836181640625,0.013481986708939075,0.01139966119080782,0.044800493866205215
1751013537131779000,9.566779052734375,0.011058243922889233,0.008812932297587395,0.05294976755976677
1751013537141722000,9.57672216796875,0.01775715872645378,0.0009536779834888875,0.04493578150868416
1751013537151666200,9.586666259765625,0.025188177824020386,-0.005899434443563223,0.02171807922422886
1751013537161609200,9.596609130859376,0.02491626888513565,-0.005366003140807152,-0.012284096330404282
1751013537171552300,9.60655224609375,0.021090637892484665,0.0010096043115481734,-0.04259220138192177
1751013537181496000,9.61649609375,0.01079725380986929,0.008855276741087437,-0.0629107877612114
1751013537191439000,9.626439208984374,-0.0025305356830358505,0.02148611657321453,-0.07743193954229355
1751013537201383200,9.636383056640625,-0.011420966126024723,0.03972797095775604,-0.07325610518455505
1751013537211326200,9.646326171875,-0.009928797371685505,0.051776912063360214,-0.061222609132528305
1751013537221269200,9.656269287109374,-0.0055063520558178425,0.05620121955871582,-0.04086753726005554
1751013537231213000,9.666213134765625,-0.010780209675431252,0.04441646486520767,-0.014613830484449863
1751013537241156000,9.676156005859376,-0.020841632038354874,0.03596119582653046,0.0030951257795095444
1751013537251099100,9.68609912109375,-0.02840101532638073,0.02617807500064373,0.006167614832520485
1751013537261043000,9.69604296875,-0.02845853939652443,-0.004577441141009331,-0.007029946427792311
1751013537270986000,9.705986083984374,-0.030312631279230118,-0.03574095293879509,-0.013746438547968864
1751013537280930000,9.715929931640625,-0.03419072553515434,-0.06931622326374054,-0.02604678086936474
1751013537290873000,9.725873046875,-0.04117193818092346,-0.07041344791650772,-0.029756298288702965
1751013537300816100,9.735816162109375,-0.03833860158920288,-0.05012974515557289,-0.02562573552131653
1751013537310760200,9.74576025390625,-0.031096933409571648,-0.01937076821923256,-0.021338844671845436
1751013537320703000,9.755702880859374,-0.018743859604001045,0.0156540609896183,-0.009863816201686859
1751013537330646000,9.76564599609375,-0.005715143866837025,0.03146897628903389,-0.005575594026595354
1751013537340590300,9.77559033203125,0.0014090784825384617,0.029928604140877724,-0.004470914602279663
1751013537350533000,9.785533203125,-0.0008474178612232208,0.020557472482323647,-0.0026346652302891016
1751013537360477200,9.795477294921875,-0.005269064102321863,-0.0022892532870173454,0.010202303528785706
1751013537370420200,9.805420166015624,-0.012010057456791401,-0.009866212494671345,0.012830577790737152
1751013537380363300,9.81536328125,-0.012804478406906128,-0.00758042186498642,0.007168164476752281
1751013537390307000,9.82530712890625,-0.005359877832233906,0.003495132550597191,-0.00920281931757927
1751013537400250000,9.83525,-0.0049343048594892025,0.023243803530931473,-0.02257002331316471
1751013537410193200,9.845193115234375,-0.011095793917775154,0.04156661778688431,-0.03141890838742256
1751013537420137200,9.85513720703125,-0.023021163418889046,0.044551488012075424,-0.03245354816317558
1751013537430080300,9.865080322265625,-0.030472422018647194,0.037038177251815796,-0.025494175031781197
1751013537440024000,9.875024169921875,-0.023565780371427536,0.026259833946824074,-0.014162157662212849
1751013537449966300,9.88496630859375,-0.013488911092281342,0.0172042865306139,-0.007678425870835781
1751013537459909400,9.894909423828125,0.0021052288357168436,0.02009434998035431,-0.0020005665719509125
1751013537469853400,9.904853515625,0.0038149782922118902,0.024690965190529823,0.00503923324868083
1751013537479796500,9.91479638671875,0.004957474302500486,0.03669010475277901,0.01962403580546379
1751013537489739500,9.924739501953125,-0.00046312372433021665,0.03909040987491608,0.02442890964448452
1751013537499683600,9.93468359375,-0.0046424223110079765,0.03477023169398308,0.027702467516064644
1751013537509626600,9.944626708984375,-0.0073476615361869335,0.01281806081533432,0.020310597494244576
1751013537519570700,9.95457080078125,-0.005636580288410187,-0.0007819040911272168,0.009811085648834705
1751013537529513500,9.964513427734374,-0.001294029993005097,-0.0041191112250089645,-0.0010250506456941366
1751013537539456500,9.97445654296875,-0.001910285442136228,0.0065535069443285465,-0.008323709480464458
1751013537549400600,9.984400634765626,-0.0029001825023442507,0.030475351959466934,-0.018550781533122063
1751013537559343600,9.994343505859375,-0.0033659692853689194,0.04990604147315025,-0.028320055454969406
1751013537569287400,10.004287353515625,-0.0038221688009798527,0.06255046278238297,-0.03485145792365074
1751013537579230500,10.01423046875,0.003695668652653694,0.06398617476224899,-0.04235491529107094
1751013537589173500,10.024173583984375,0.012353871949017048,0.03820863738656044,-0.03380536660552025
1751013537599117600,10.03411767578125,0.020295949652791023,0.008885104209184647,-0.011712582781910896
1751013537609060600,10.044060546875,0.017850102856755257,-0.01398692186921835,0.01961737684905529
1751013537619003600,10.054003662109375,0.018457571044564247,-0.02197294309735298,0.04902826249599457
1751013537628947500,10.063947509765624,0.020473316311836243,-0.016103602945804596,0.0618460550904274
1751013537638890500,10.073890380859375,0.02377164177596569,-0.0008431567694060504,0.06180744245648384
1751013537648833500,10.08383349609375,0.022167619317770004,0.006338323466479778,0.056296028196811676
1751013537658777600,10.093777587890624,0.017614945769309998,0.01606312207877636,0.043114714324474335
1751013537668720400,10.103720458984375,0.016561400145292282,0.03922703117132187,0.02238386869430542
1751013537678664400,10.11366455078125,0.025365810841321945,0.0606047585606575,0.0004037352045997977
1751013537688607500,10.123607421875,0.0340501107275486,0.06819289922714233,-0.020318588241934776
1751013537698550500,10.133550537109375,0.030360301956534386,0.057060357183218,-0.02497405931353569
1751013537708494300,10.143494384765624,0.02610643580555916,0.04115729033946991,-0.006518086884170771
1751013537718437400,10.153437255859375,0.021196365356445312,0.030732613056898117,0.009771936573088169
1751013537728380400,10.16338037109375,0.022222748026251793,0.021565746515989304,0.023367905989289284
1751013537738324500,10.173324462890625,0.026448119431734085,0.011713647283613682,0.029202360659837723
1751013537748267500,10.183267578125,0.017704695463180542,0.0054128747433424,0.025182584300637245
1751013537758211600,10.193211669921874,0.008529306389391422,0.006128466222435236,0.011235610581934452
1751013537768154600,10.203154541015625,-0.0024311996530741453,0.013233513571321964,-0.0008740494376979768
1751013537778097700,10.21309765625,-0.003245594445616007,0.022525016218423843,-0.0157142486423254
1751013537788041500,10.22304150390625,0.0019089538836851716,0.021891450509428978,-0.018519621342420578
1751013537797984500,10.232984619140625,0.013365074060857296,0.025131186470389366,-0.010916563682258129
1751013537807928600,10.242928466796876,0.020305538550019264,0.029947778210043907,-0.0015736619243398309
1751013537817871600,10.25287158203125,0.021377727389335632,0.0280353631824255,0.006726878695189953
1751013537827814700,10.262814697265625,0.012648683041334152,0.027276627719402313,0.01569773629307747
1751013537837758500,10.272758544921874,-0.00043595946044661105,0.030701452866196632,0.021283451467752457
1751013537847701500,10.282701416015625,-0.014253504574298859,0.027423901483416557,0.015372831374406815
1751013537857644500,10.29264453125,-0.0161262396723032,0.016825051978230476,0.0037444045301526785
1751013537867588600,10.302588623046875,-0.015859656035900116,0.011392736807465553,-0.0085466168820858
1751013537877531600,10.31253173828125,-0.006484264507889748,0.013113139197230339,-0.02437218464910984
1751013537887475500,10.322475341796874,0.003978762775659561,0.016447948291897774,-0.02905561961233616
1751013537897418500,10.33241845703125,0.015972841531038284,0.02022271417081356,-0.02762257307767868
1751013537907361500,10.342361572265625,0.021081317216157913,0.024478711187839508,-0.020922059193253517
1751013537917305300,10.352305419921874,0.03472336009144783,0.01792760193347931,-0.007798268459737301
1751013537927248400,10.362248291015625,0.04615950584411621,0.0037555897142738104,0.008016914129257202
1751013537937191400,10.37219140625,0.05669257417321205,-0.009700298309326172,0.0194900780916214
1751013537947135500,10.382135498046875,0.06756466627120972,-0.022706910967826843,0.02003522776067257
1751013537957078500,10.39207861328125,0.07634057849645615,-0.03527196869254112,0.017062073573470116
1751013537967022300,10.402022216796874,0.08570558577775955,-0.03671753406524658,0.017059676349163055
1751013537976965400,10.41196533203125,0.08157235383987427,-0.021574268117547035,0.014639396220445633
1751013537986908400,10.421908447265626,0.07046671211719513,-0.006824616342782974,0.011188206262886524
1751013537996852500,10.4318525390625,0.05692613497376442,-0.006649646908044815,0.0007917577750049531
1751013538006795500,10.44179541015625,0.04567427933216095,-0.029272668063640594,-0.0034059167373925447
1751013538016738300,10.45173828125,0.03081570379436016,-0.03675961121916771,-0.014373612590134144
1751013538026682600,10.4616826171875,0.016105998307466507,-0.028740568086504936,-0.01564713567495346
1751013538036625700,10.471625732421876,0.008078166283667088,-0.02624225616455078,-0.012537362985312939
1751013538046569500,10.481569580078125,0.001067661214619875,-0.012134160846471786,-0.006746585946530104
1751013538056512500,10.491512451171875,-0.0076126460917294025,0.011440407484769821,-0.001116130850277841
1751013538066455600,10.50145556640625,-0.008974852971732616,0.02004081942141056,-0.0017470336752012372
1751013538076399600,10.511399658203125,-0.008606537245213985,0.028318990021944046,-0.010396714322268963
1751013538086342700,10.5213427734375,-0.013128052465617657,0.03850211948156357,-0.02093324437737465
1751013538096285700,10.53128564453125,-0.01926557347178459,0.05329810827970505,-0.03130439296364784
1751013538106229500,10.5412294921875,-0.02383262850344181,0.07258312404155731,-0.03609701618552208
1751013538116172500,10.551172607421876,-0.024748489260673523,0.08609067648649216,-0.03263410925865173
1751013538126116600,10.56111669921875,-0.02738022617995739,0.09757688641548157,-0.018183264881372452
1751013538136059600,10.5710595703125,-0.032100144773721695,0.17183195054531097,0.16655781865119934
1751013538146002400,10.58100244140625,-0.0462668314576149,0.021990785375237465,0.326519250869751
1751013538155946500,10.590946533203125,-0.028001807630062103,-0.10445529967546463,0.46488112211227417
1751013538165889500,10.6008896484375,0.018269818276166916,-0.1918884813785553,0.5724259614944458
1751013538175832600,10.61083251953125,0.0471736378967762,-0.24475914239883423,0.632045328617096
1751013538185776400,10.6207763671875,0.05260249227285385,-0.22545576095581055,0.6236007213592529
1751013538195719400,10.630719482421876,0.06870662420988083,-0.15759842097759247,0.5274038910865784
1751013538205663500,10.64066357421875,0.079051673412323,-0.1003284677863121,0.380232036113739
1751013538215606500,10.6506064453125,0.0812423899769783,-0.023518908768892288,0.1863086223602295
1751013538225549600,10.660549560546874,0.09201514720916748,0.07681888341903687,-0.030594127252697945
1751013538235493400,10.670493408203125,0.12160898745059967,0.19101016223430634,-0.2507792115211487
1751013538245436400,10.6804365234375,0.14822834730148315,0.27608218789100647,-0.439679890871048
1751013538255379500,10.69037939453125,0.14719077944755554,0.3244853913784027,-0.5445501208305359
