time,seconds_elapsed,z,y,x
1751013486739119000,0.120119140625,-390.0445861816406,-195.79306030273438,-17.44598388671875
1751013486749159200,0.1301591796875,-389.7063903808594,-195.61231994628906,-17.54132080078125
1751013486759199200,0.14019921875,-389.7125244140625,-195.70384216308594,-17.576950073242188
1751013486769240000,0.150239990234375,-390.1460876464844,-195.6653289794922,-17.565933227539062
1751013486779282200,0.1602822265625,-390.28936767578125,-195.71099853515625,-17.398818969726562
1751013486789324000,0.170323974609375,-390.5210876464844,-195.61195373535156,-17.471603393554688
1751013486799366000,0.180365966796875,-390.63800048828125,-195.62513732910156,-17.456390380859375
1751013486809408300,0.190408203125,-391.1634521484375,-195.6275177001953,-17.53948974609375
1751013486819449000,0.200448974609375,-390.5530700683594,-195.60284423828125,-17.43731689453125
1751013486829490200,0.210490234375,-390.58599853515625,-195.67080688476562,-17.597366333007812
1751013486839531300,0.22053125,-390.8159484863281,-195.5454559326172,-17.336074829101562
1751013486849573000,0.230572998046875,-390.3231201171875,-195.80789184570312,-17.88153076171875
1751013486859616000,0.240615966796875,-390.4271240234375,-195.98756408691406,-17.709075927734375
1751013486869657000,0.250656982421875,-390.5510559082031,-195.7034912109375,-17.9114990234375
1751013486879700200,0.2607001953125,-390.95965576171875,-195.6025390625,-17.575698852539062
1751013486889742000,0.2707421875,-390.94427490234375,-195.85157775878906,-17.707290649414062
1751013486899784200,0.2807841796875,-390.60601806640625,-195.69960021972656,-17.545501708984375
1751013486909826000,0.290825927734375,-390.0499267578125,-195.57943725585938,-17.491180419921875
1751013486919868000,0.300867919921875,-390.3424377441406,-195.77413940429688,-17.179794311523438
1751013486929909000,0.310908935546875,-390.37225341796875,-195.9498748779297,-17.524322509765625
1751013486939950000,0.3209501953125,-390.285888671875,-196.19845581054688,-17.005569458007812
1751013486949992200,0.3309921875,-389.958740234375,-195.97299194335938,-16.936126708984375
1751013486960033300,0.341033203125,-389.65142822265625,-196.07557678222656,-17.044219970703125
1751013486970074000,0.35107421875,-390.1917724609375,-196.64927673339844,-17.120025634765625
1751013486980113200,0.361113037109375,-389.96148681640625,-195.987548828125,-17.186187744140625
1751013486990153000,0.371153076171875,-390.54974365234375,-195.9358367919922,-17.321456909179688
1751013487000193000,0.381193115234375,-390.5870361328125,-195.9796905517578,-17.248931884765625
1751013487010233000,0.391233154296875,-390.3061218261719,-196.00009155273438,-17.15185546875
1751013487020273000,0.40127294921875,-390.42291259765625,-196.11160278320312,-17.494766235351562
1751013487030314000,0.41131396484375,-390.23394775390625,-196.17312622070312,-17.401153564453125
1751013487040355000,0.42135498046875,-390.19189453125,-195.6083526611328,-17.4979248046875
1751013487050397200,0.431397216796875,-389.935791015625,-196.03807067871094,-17.335784912109375
1751013487060439000,0.44143896484375,-389.87725830078125,-196.24034118652344,-17.276153564453125
1751013487070480100,0.451480224609375,-389.95880126953125,-196.1289825439453,-17.32611083984375
1751013487080521200,0.461521240234375,-390.14111328125,-196.4688720703125,-17.1292724609375
1751013487090562000,0.47156201171875,-389.2548828125,-196.12969970703125,-17.45452880859375
1751013487100603100,0.48160302734375,-389.6083068847656,-196.41006469726562,-17.102554321289062
1751013487110644200,0.491644287109375,-389.9790344238281,-196.28326416015625,-17.476669311523438
1751013487120686000,0.50168603515625,-389.661376953125,-196.15115356445312,-17.705551147460938
1751013487130727200,0.51172705078125,-389.5185241699219,-196.49240112304688,-17.598495483398438
1751013487140768000,0.52176806640625,-390.1288757324219,-196.4697723388672,-17.648086547851562
1751013487150809000,0.53180908203125,-390.03582763671875,-196.4961700439453,-17.355819702148438
1751013487160849200,0.54184912109375,-389.7794189453125,-196.134521484375,-17.519500732421875
1751013487170890000,0.551889892578125,-390.173095703125,-196.6541290283203,-17.683731079101562
1751013487180931000,0.56193115234375,-389.6385192871094,-196.2589111328125,-17.312881469726562
1751013487190972200,0.57197216796875,-389.7251281738281,-196.4036102294922,-17.486587524414062
1751013487201013000,0.582012939453125,-390.13690185546875,-196.6081085205078,-17.328994750976562
1751013487211053000,0.592052978515625,-390.2401428222656,-196.4800262451172,-17.832183837890625
1751013487221094100,0.60209423828125,-390.07391357421875,-196.76797485351562,-17.58966064453125
1751013487231136000,0.612135986328125,-390.2206115722656,-196.4432830810547,-17.401473999023438
1751013487241177000,0.622177001953125,-390.50408935546875,-196.28933715820312,-17.236434936523438
1751013487251218200,0.63221826171875,-389.98675537109375,-196.19837951660156,-17.40478515625
1751013487261259000,0.642259033203125,-390.0712890625,-196.2452850341797,-17.534896850585938
1751013487271301000,0.652301025390625,-390.41619873046875,-196.1758575439453,-17.531265258789062
1751013487281342000,0.662342041015625,-390.099609375,-196.86082458496094,-17.589385986328125
1751013487291384000,0.672384033203125,-390.41131591796875,-196.3468780517578,-17.321060180664062
1751013487301426200,0.68242626953125,-390.4776306152344,-196.20895385742188,-17.16229248046875
1751013487311468000,0.692468017578125,-390.5096130371094,-196.0795135498047,-17.290390014648438
1751013487321509000,0.702509033203125,-390.12127685546875,-196.001708984375,-17.395523071289062
1751013487331551000,0.712551025390625,-390.5571594238281,-196.16781616210938,-17.815765380859375
1751013487341592000,0.722592041015625,-390.22430419921875,-196.40965270996094,-17.412979125976562
1751013487351634000,0.732634033203125,-390.57891845703125,-196.43453979492188,-17.283905029296875
1751013487361675000,0.742675048828125,-390.5430603027344,-196.57327270507812,-17.363235473632812
1751013487371716900,0.752716796875,-390.588134765625,-196.60440063476562,-17.381591796875
1751013487381758000,0.762758056640625,-390.0760192871094,-196.9268035888672,-17.407485961914062
1751013487391800000,0.772800048828125,-390.1974792480469,-196.6168670654297,-17.683547973632812
1751013487401841000,0.7828408203125,-390.3038330078125,-196.43569946289062,-17.838241577148438
1751013487411882000,0.792882080078125,-390.37359619140625,-196.4453582763672,-17.533935546875
1751013487421923800,0.802923828125,-390.2809143066406,-196.46627807617188,-17.418746948242188
1751013487431965000,0.81296484375,-390.0093994140625,-196.4396514892578,-17.41082763671875
1751013487442005800,0.823005859375,-390.5583190917969,-196.6094970703125,-17.5216064453125
1751013487452046800,0.833046875,-390.41815185546875,-196.2396697998047,-17.545547485351562
1751013487462088700,0.843088623046875,-390.39581298828125,-196.24636840820312,-17.659652709960938
1751013487472129800,0.8531298828125,-390.80743408203125,-196.66705322265625,-17.713623046875
1751013487482171000,0.8631708984375,-390.43621826171875,-196.4449462890625,-17.797134399414062
1751013487492211700,0.873211669921875,-390.77911376953125,-196.63597106933594,-18.016891479492188
1751013487502254000,0.883254150390625,-390.4095764160156,-196.41250610351562,-17.874786376953125
1751013487512295000,0.893294921875,-390.48980712890625,-196.3682098388672,-17.577072143554688
1751013487522337000,0.9033369140625,-390.73565673828125,-196.1707000732422,-17.984512329101562
1751013487532377900,0.9133779296875,-390.76165771484375,-196.7973175048828,-17.716751098632812
1751013487542414800,0.923414794921875,-390.85821533203125,-196.36428833007812,-17.619583129882812
1751013487552461800,0.9334619140625,-390.89111328125,-196.53562927246094,-17.768218994140625
1751013487562503000,0.9435029296875,-390.5321350097656,-196.2863006591797,-17.54949951171875
1751013487572543700,0.953543701171875,-390.9509582519531,-196.44728088378906,-17.602874755859375
1751013487582585900,0.9635859375,-390.27813720703125,-196.4639434814453,-17.589187622070312
1751013487592626700,0.973626708984375,-390.64288330078125,-196.29754638671875,-17.442657470703125
1751013487602667800,0.983667724609375,-390.37091064453125,-196.29396057128906,-17.302932739257812
1751013487612708900,0.993708984375,-390.57244873046875,-196.2643280029297,-17.478012084960938
1751013487622749700,1.003749755859375,-390.4512939453125,-196.45541381835938,-17.731704711914062
1751013487632790800,1.013790771484375,-390.28253173828125,-196.64756774902344,-17.434860229492188
1751013487642833000,1.0238330078125,-390.5021057128906,-196.3480682373047,-17.757247924804688
1751013487652875000,1.033875,-390.243896484375,-196.60910034179688,-17.941177368164062
1751013487662916900,1.043916748046875,-390.3055419921875,-196.8135223388672,-17.81524658203125
1751013487672959700,1.053959716796875,-390.5161437988281,-196.62229919433594,-17.615676879882812
1751013487683000800,1.064000732421875,-390.72064208984375,-196.44342041015625,-17.72003173828125
1751013487693043000,1.07404296875,-390.64080810546875,-196.32098388671875,-17.612518310546875
1751013487703085000,1.0840849609375,-390.18182373046875,-196.65243530273438,-17.83905029296875
1751013487713121000,1.09412109375,-390.8035888671875,-196.65065002441406,-17.916946411132812
1751013487723168000,1.10416796875,-390.3671875,-196.7488250732422,-17.869033813476562
1751013487733208800,1.114208740234375,-390.5743408203125,-196.64723205566406,-17.708877563476562
1751013487743250000,1.12425,-390.8316345214844,-196.6822509765625,-17.786605834960938
1751013487753291000,1.134291015625,-390.64813232421875,-196.82740783691406,-18.040771484375
1751013487763330800,1.144330810546875,-391.45635986328125,-196.78114318847656,-18.010360717773438
1751013487773372000,1.154371826171875,-390.8445129394531,-196.70025634765625,-17.87689208984375
1751013487783413000,1.1644130859375,-390.78387451171875,-196.33290100097656,-17.732452392578125
1751013487793453800,1.174453857421875,-390.69110107421875,-196.64004516601562,-18.136993408203125
1751013487803496000,1.184495849609375,-390.7503967285156,-196.85992431640625,-17.694534301757812
1751013487813536800,1.194536865234375,-390.81536865234375,-196.61984252929688,-17.979049682617188
1751013487823577900,1.204577880859375,-390.4291687011719,-196.4541015625,-17.928787231445312
1751013487833619000,1.214618896484375,-390.2378845214844,-196.49720764160156,-17.62896728515625
1751013487843659800,1.22465966796875,-390.61199951171875,-196.1475372314453,-17.898651123046875
1751013487853702000,1.234701904296875,-390.71746826171875,-196.58746337890625,-17.970260620117188
1751013487863742000,1.244741943359375,-390.48248291015625,-196.1495819091797,-17.831451416015625
1751013487873782800,1.25478271484375,-390.5425720214844,-196.23692321777344,-17.749496459960938
1751013487883825000,1.264824951171875,-390.58087158203125,-196.1461944580078,-17.941497802734375
1751013487893867000,1.274866943359375,-390.5501708984375,-196.13284301757812,-18.109970092773438
1751013487903908900,1.284908935546875,-390.5575256347656,-196.5624237060547,-18.111557006835938
1751013487913949000,1.294948974609375,-390.87933349609375,-196.35743713378906,-18.08880615234375
1751013487923990000,1.304989990234375,-390.46746826171875,-196.18414306640625,-18.037841796875
1751013487934031000,1.315031005859375,-391.0767822265625,-196.62899780273438,-18.163589477539062
1751013487944073000,1.325072998046875,-390.880615234375,-196.22256469726562,-18.209793090820312
1751013487954114800,1.33511474609375,-391.0264587402344,-196.55418395996094,-17.895492553710938
1751013487964157000,1.345156982421875,-390.5626220703125,-196.17453002929688,-18.150680541992188
1751013487974200000,1.355199951171875,-390.8856201171875,-196.00808715820312,-18.119293212890625
1751013487984242000,1.365241943359375,-390.22918701171875,-196.3601837158203,-18.015625
1751013487994283000,1.375282958984375,-391.03582763671875,-196.18617248535156,-17.93896484375
1751013488004324900,1.385324951171875,-391.0448913574219,-196.37083435058594,-17.704757690429688
1751013488014367000,1.395366943359375,-391.01422119140625,-196.54617309570312,-17.642196655273438
1751013488024410000,1.40541015625,-390.8885803222656,-196.3291778564453,-17.485733032226562
1751013488034451000,1.415450927734375,-391.1889953613281,-196.09877014160156,-17.728439331054688
1751013488044492000,1.425491943359375,-391.2630920410156,-196.04739379882812,-17.76397705078125
1751013488054534000,1.435533935546875,-391.3988342285156,-195.8512420654297,-17.715530395507812
1751013488064576000,1.445575927734375,-390.932861328125,-196.0689697265625,-17.72894287109375
1751013488074617900,1.455617919921875,-391.1848449707031,-196.1026153564453,-17.35333251953125
1751013488084661000,1.465660888671875,-390.7241516113281,-195.89154052734375,-17.670074462890625
1751013488094702800,1.475702880859375,-390.74835205078125,-195.7871856689453,-17.518157958984375
1751013488104745000,1.485744873046875,-390.4677734375,-195.87091064453125,-17.57843017578125
1751013488114786800,1.495786865234375,-390.2154541015625,-196.02279663085938,-17.729263305664062
1751013488124828000,1.505827880859375,-390.83453369140625,-196.33226013183594,-17.904876708984375
1751013488134868700,1.51586865234375,-390.7720947265625,-196.25721740722656,-17.80267333984375
1751013488144910800,1.525910888671875,-390.8929443359375,-196.06886291503906,-17.557281494140625
1751013488154952000,1.535951904296875,-391.08447265625,-196.3216094970703,-17.621078491210938
1751013488164994000,1.545994140625,-390.70794677734375,-196.18482971191406,-17.922149658203125
1751013488175035000,1.556034912109375,-391.1532897949219,-196.18275451660156,-17.975082397460938
1751013488185077000,1.566076904296875,-391.18890380859375,-196.05740356445312,-17.905899047851562
1751013488195118800,1.576118896484375,-390.5431823730469,-196.3724822998047,-17.395187377929688
1751013488205160000,1.586159912109375,-390.8624267578125,-196.2284393310547,-17.3863525390625
1751013488215201000,1.596200927734375,-390.8513488769531,-196.14389038085938,-18.093414306640625
1751013488225243000,1.606242919921875,-390.65362548828125,-196.28530883789062,-17.586669921875
1751013488235284000,1.616283935546875,-390.6602783203125,-195.90274047851562,-17.564041137695312
1751013488245325800,1.626325927734375,-390.63482666015625,-195.86907958984375,-17.398513793945312
1751013488255368000,1.636367919921875,-390.64727783203125,-195.84521484375,-17.580413818359375
1751013488265409000,1.646408935546875,-391.20147705078125,-195.82240295410156,-17.838272094726562
1751013488275446000,1.656446044921875,-390.6800537109375,-195.8909149169922,-17.916595458984375
1751013488285493000,1.666492919921875,-391.28179931640625,-195.61077880859375,-17.61688232421875
1751013488295533800,1.676533935546875,-390.7288818359375,-195.7930450439453,-17.780593872070312
1751013488305574000,1.686573974609375,-391.21142578125,-195.76405334472656,-17.8817138671875
1751013488315614000,1.696614013671875,-390.9931640625,-195.71563720703125,-17.90777587890625
1751013488325656000,1.706656005859375,-390.6396484375,-196.151611328125,-17.5517578125
1751013488335698000,1.716697998046875,-390.6971435546875,-195.9231414794922,-17.774551391601562
1751013488345739800,1.72673974609375,-390.7879333496094,-196.21868896484375,-18.141357421875
1751013488355780900,1.73678076171875,-390.96832275390625,-196.06529235839844,-18.124191284179688
1751013488365821000,1.746821044921875,-391.3360595703125,-195.95465087890625,-17.857803344726562
1751013488375861800,1.75686181640625,-391.1314697265625,-195.87503051757812,-17.6298828125
1751013488385902800,1.76690283203125,-391.01287841796875,-196.16744995117188,-17.735687255859375
1751013488395944400,1.7769443359375,-390.524169921875,-196.04283142089844,-17.702072143554688
1751013488405985300,1.7869853515625,-391.10382080078125,-196.1099395751953,-17.491592407226562
1751013488416026400,1.7970263671875,-391.00823974609375,-195.9227294921875,-17.61370849609375
1751013488426067500,1.8070673828125,-390.9407653808594,-195.6757354736328,-17.749114990234375
1751013488436108300,1.8171083984375,-390.7469482421875,-195.97555541992188,-17.980880737304688
1751013488446149400,1.8271494140625,-390.92779541015625,-196.57928466796875,-17.702285766601562
1751013488456191500,1.83719140625,-391.219482421875,-196.2758026123047,-17.946853637695312
1751013488466233600,1.847233642578125,-390.3948974609375,-195.90066528320312,-17.568145751953125
1751013488476276500,1.8572763671875,-391.10809326171875,-196.0470428466797,-17.96490478515625
1751013488486318300,1.867318359375,-391.38165283203125,-195.9947967529297,-17.957000732421875
1751013488496361500,1.877361572265625,-390.88177490234375,-195.8300323486328,-18.127471923828125
1751013488506403300,1.8874033203125,-390.5935363769531,-196.05886840820312,-17.58599853515625
1751013488516446500,1.897446533203125,-391.01824951171875,-196.08197021484375,-17.8670654296875
1751013488526490400,1.907490478515625,-390.77142333984375,-196.1097412109375,-17.85137939453125
1751013488536533200,1.917533203125,-390.92474365234375,-195.71749877929688,-17.9293212890625
1751013488546574300,1.92757421875,-390.9015808105469,-195.73165893554688,-18.090957641601562
1751013488556617500,1.937617431640625,-391.0171203613281,-195.7711639404297,-17.972808837890625
1751013488566659300,1.947659423828125,-390.9473571777344,-195.8697509765625,-17.894149780273438
1751013488576701400,1.957701416015625,-390.6538391113281,-195.75216674804688,-17.892501831054688
1751013488586742500,1.967742431640625,-391.1156005859375,-195.8074188232422,-17.945053100585938
1751013488596783400,1.977783447265625,-391.09136962890625,-195.85711669921875,-18.165542602539062
1751013488606824400,1.987824462890625,-391.3424072265625,-195.71762084960938,-17.796859741210938
1751013488616866300,1.9978662109375,-391.326904296875,-195.63482666015625,-17.8787841796875
1751013488626907400,2.007907470703125,-390.66351318359375,-195.96658325195312,-17.985427856445312
1751013488636949500,2.017949462890625,-391.0936279296875,-195.2967071533203,-18.2586669921875
1751013488646991600,2.02799169921875,-390.55780029296875,-195.44789123535156,-17.888412475585938
1751013488657033500,2.038033447265625,-391.13128662109375,-195.81640625,-17.880020141601562
1751013488667075300,2.048075439453125,-390.8328552246094,-195.8427734375,-17.9150390625
1751013488677117400,2.058117431640625,-391.0229797363281,-195.6503448486328,-17.961502075195312
1751013488687159600,2.06815966796875,-391.1204833984375,-195.49822998046875,-18.06329345703125
1751013488697200600,2.07820068359375,-391.2554626464844,-195.54678344726562,-18.162002563476562
1751013488707241500,2.088241455078125,-390.5040283203125,-195.47512817382812,-17.9227294921875
1751013488717282600,2.098282470703125,-390.6753845214844,-195.85220336914062,-17.993209838867188
1751013488727324400,2.108324462890625,-391.0592041015625,-195.5823211669922,-17.997756958007812
1751013488737365500,2.118365478515625,-390.71490478515625,-195.59701538085938,-17.838455200195312
1751013488747407400,2.128407470703125,-390.96881103515625,-195.7231903076172,-17.909194946289062
1751013488757448400,2.138448486328125,-391.2193298339844,-195.66607666015625,-18.13665771484375
1751013488767489500,2.148489501953125,-390.69158935546875,-195.5131072998047,-18.06207275390625
1751013488777531400,2.158531494140625,-390.73468017578125,-195.42007446289062,-18.109222412109375
1751013488787573200,2.1685732421875,-390.72637939453125,-195.40855407714844,-17.762008666992188
1751013488797614300,2.1786142578125,-390.98956298828125,-195.38461303710938,-18.022445678710938
1751013488807656400,2.188656494140625,-390.78289794921875,-195.7327880859375,-18.110305786132812
1751013488817698600,2.198698486328125,-391.15374755859375,-195.64923095703125,-18.021392822265625
1751013488827740400,2.208740478515625,-391.55584716796875,-195.3361358642578,-17.772506713867188
1751013488837781500,2.218781494140625,-391.4735107421875,-195.69627380371094,-17.901779174804688
1751013488847822300,2.228822265625,-391.4629821777344,-195.84776306152344,-17.994094848632812
1751013488857863400,2.238863525390625,-391.2825622558594,-195.35147094726562,-17.884994506835938
1751013488867904500,2.248904541015625,-391.1741943359375,-195.48646545410156,-17.8843994140625
1751013488877945300,2.2589453125,-390.79974365234375,-195.66038513183594,-17.589111328125
1751013488887987500,2.268987548828125,-390.87847900390625,-195.6931915283203,-17.653427124023438
1751013488898025500,2.279025390625,-390.6227722167969,-195.2857208251953,-17.984237670898438
1751013488908072400,2.289072509765625,-391.1048583984375,-195.4698028564453,-17.760574340820312
1751013488918114300,2.2991142578125,-390.6347961425781,-195.58848571777344,-18.067153930664062
1751013488928156400,2.309156494140625,-391.4569091796875,-195.6779327392578,-17.624755859375
1751013488938198500,2.319198486328125,-391.1002197265625,-195.38560485839844,-17.633255004882812
1751013488948240600,2.32924072265625,-391.0269470214844,-195.52529907226562,-17.494766235351562
1751013488958281500,2.339281494140625,-391.10107421875,-195.6852569580078,-17.852859497070312
1751013488968323600,2.349323486328125,-390.5298156738281,-195.4134063720703,-17.764801025390625
1751013488978359600,2.359359619140625,-390.94775390625,-195.3504638671875,-17.686737060546875
1751013488988406500,2.369406494140625,-391.4606018066406,-195.43150329589844,-17.77447509765625
1751013488998447400,2.379447265625,-391.45758056640625,-195.574951171875,-17.966079711914062
1751013489008489500,2.389489501953125,-391.0252685546875,-195.64761352539062,-17.320816040039062
1751013489018532600,2.39953271484375,-391.17572021484375,-195.8292694091797,-17.677658081054688
1751013489028573400,2.409573486328125,-391.18377685546875,-195.79647827148438,-17.729965209960938
1751013489038613500,2.419613525390625,-391.2810363769531,-195.20388793945312,-17.80047607421875
1751013489048654600,2.429654541015625,-391.0667724609375,-195.49842834472656,-17.727325439453125
1751013489058695700,2.43969580078125,-391.16229248046875,-195.60675048828125,-17.621673583984375
1751013489068737500,2.449737548828125,-391.177001953125,-195.6258544921875,-17.52545166015625
1751013489078778600,2.459778564453125,-390.5621337890625,-196.12303161621094,-17.964065551757812
1751013489088820500,2.469820556640625,-390.3525390625,-195.80030822753906,-17.80902099609375
1751013489098861600,2.479861572265625,-390.42242431640625,-195.7161865234375,-17.357330322265625
1751013489108903400,2.4899033203125,-391.07281494140625,-195.455322265625,-17.573486328125
1751013489118946600,2.499946533203125,-390.95831298828125,-195.68942260742188,-17.41802978515625
1751013489128990500,2.509990478515625,-390.7492370605469,-195.52130126953125,-17.520034790039062
1751013489139033600,2.52003369140625,-391.210205078125,-195.48634338378906,-17.508941650390625
1751013489149076500,2.530076416015625,-390.99981689453125,-195.34295654296875,-17.506378173828125
1751013489159118300,2.540118408203125,-391.6766357421875,-195.79396057128906,-17.560470581054688
1751013489169159400,2.550159423828125,-391.4560546875,-195.4634552001953,-17.458892822265625
1751013489179200500,2.560200439453125,-391.1778564453125,-195.49351501464844,-17.532974243164062
1751013489189242400,2.570242431640625,-390.58404541015625,-195.37022399902344,-17.597305297851562
1751013489199283500,2.580283447265625,-390.74273681640625,-195.5233154296875,-17.6390380859375
1751013489209324300,2.59032421875,-390.96038818359375,-195.29539489746094,-17.723556518554688
1751013489219366700,2.60036669921875,-391.0228576660156,-195.45428466796875,-17.617965698242188
1751013489229409500,2.610409423828125,-391.197265625,-195.549072265625,-17.730331420898438
1751013489239451400,2.620451416015625,-390.955078125,-195.52101135253906,-17.857009887695312
1751013489249493200,2.6304931640625,-391.1849365234375,-195.31187438964844,-17.623123168945312
1751013489259534300,2.640534423828125,-391.00250244140625,-195.74139404296875,-17.541854858398438
1751013489269575400,2.650575439453125,-391.06280517578125,-195.47398376464844,-17.626480102539062
1751013489279617500,2.660617431640625,-391.3739013671875,-195.65211486816406,-17.40478515625
1751013489289658600,2.67065869140625,-390.8089599609375,-195.55355834960938,-17.2359619140625
1751013489299699500,2.680699462890625,-390.758056640625,-195.9639129638672,-17.355804443359375
1751013489309740500,2.690740478515625,-390.7861328125,-195.6330108642578,-17.507354736328125
1751013489319782400,2.700782470703125,-391.48272705078125,-195.97860717773438,-17.305206298828125
1751013489329823500,2.710823486328125,-391.0374755859375,-195.7949981689453,-17.434982299804688
1751013489339864600,2.720864501953125,-390.9944152832031,-195.56509399414062,-17.312698364257812
1751013489349906400,2.730906494140625,-391.60040283203125,-196.07972717285156,-17.235870361328125
1751013489359947500,2.740947509765625,-391.10693359375,-195.6725616455078,-17.45330810546875
1751013489369988400,2.75098828125,-391.22247314453125,-195.61558532714844,-17.251815795898438
1751013489380029400,2.761029541015625,-390.9793701171875,-195.44459533691406,-17.104263305664062
1751013489390070500,2.771070556640625,-391.39630126953125,-195.8358154296875,-17.104415893554688
1751013489400110800,2.78111083984375,-390.7001953125,-195.6619110107422,-16.9111328125
1751013489410152000,2.79115185546875,-390.856201171875,-195.48231506347656,-17.026779174804688
1751013489420193000,2.801193115234375,-391.26043701171875,-195.8177947998047,-17.15924072265625
1751013489430233900,2.81123388671875,-391.6309814453125,-195.4573974609375,-17.311614990234375
1751013489440276200,2.821276123046875,-390.7472229003906,-195.3556365966797,-16.96087646484375
1751013489450316300,2.83131640625,-390.413330078125,-195.299072265625,-17.348068237304688
1751013489460358100,2.841358154296875,-391.0755615234375,-195.34329223632812,-17.269424438476562
1751013489470400000,2.85139990234375,-391.2923583984375,-195.40916442871094,-17.223114013671875
1751013489480440000,2.861440185546875,-390.6481628417969,-195.16293334960938,-17.054183959960938
1751013489490480000,2.871480224609375,-390.574462890625,-195.16610717773438,-17.397140502929688
1751013489500520000,2.88152001953125,-391.0357360839844,-195.3846893310547,-17.15997314453125
1751013489510562300,2.891562255859375,-391.1817626953125,-195.4793243408203,-17.12640380859375
1751013489520602000,2.90160205078125,-390.83331298828125,-195.34222412109375,-17.228591918945312
1751013489530643000,2.911642822265625,-390.63043212890625,-195.37237548828125,-17.234451293945312
1751013489540684000,2.92168408203125,-391.3875732421875,-195.31346130371094,-17.236160278320312
1751013489550724900,2.931724853515625,-390.7752685546875,-195.53805541992188,-17.385086059570312
1751013489560765000,2.941764892578125,-390.16375732421875,-195.42079162597656,-17.516998291015625
1751013489570805000,2.951804931640625,-390.24847412109375,-195.4053955078125,-17.50872802734375
1751013489580845000,2.961844970703125,-390.0111389160156,-195.39175415039062,-17.329788208007812
1751013489590887200,2.97188720703125,-390.4394226074219,-195.3168182373047,-17.156234741210938
1751013489600929000,2.981928955078125,-390.5691223144531,-195.76675415039062,-17.488128662109375
1751013489610971000,2.991970947265625,-390.57470703125,-195.35855102539062,-17.058792114257812
1751013489621013200,3.00201318359375,-390.53509521484375,-195.3971405029297,-17.2200927734375
1751013489631054000,3.01205419921875,-390.43310546875,-195.19049072265625,-17.483795166015625
1751013489641097000,3.022096923828125,-390.92071533203125,-195.2430877685547,-17.545394897460938
1751013489651139000,3.03213916015625,-390.3857421875,-195.02430725097656,-17.119583129882812
1751013489661182200,3.04218212890625,-390.33221435546875,-195.2539520263672,-17.103897094726562
1751013489671224000,3.05222412109375,-390.234619140625,-195.2471923828125,-17.314285278320312
1751013489681267000,3.062266845703125,-390.2380065917969,-195.31732177734375,-17.189315795898438
1751013489691309000,3.07230908203125,-390.7188720703125,-195.6156005859375,-17.288925170898438
1751013489701350000,3.082349853515625,-390.6969299316406,-195.33457946777344,-17.087249755859375
1751013489711392300,3.092392333984375,-390.5965576171875,-195.71923828125,-17.122940063476562
1751013489721433000,3.10243310546875,-390.97283935546875,-195.4074249267578,-16.90106201171875
1751013489731475200,3.11247509765625,-390.65252685546875,-195.2602081298828,-17.096954345703125
1751013489741516000,3.12251611328125,-390.6928405761719,-195.48220825195312,-17.39227294921875
1751013489751557000,3.13255712890625,-390.64215087890625,-195.70770263671875,-17.243240356445312
1751013489761598200,3.14259814453125,-390.443603515625,-195.68324279785156,-17.279937744140625
1751013489771640000,3.15264013671875,-390.7401428222656,-195.76983642578125,-17.377090454101562
1751013489781680000,3.16268017578125,-390.75421142578125,-195.47438049316406,-17.358322143554688
1751013489791722000,3.172721923828125,-390.477783203125,-195.50791931152344,-17.327529907226562
1751013489801764000,3.18276416015625,-390.6337890625,-195.29257202148438,-17.157257080078125
1751013489811806000,3.192805908203125,-390.89453125,-195.41384887695312,-17.180435180664062
1751013489821849000,3.20284912109375,-390.48138427734375,-195.55313110351562,-17.216156005859375
1751013489831891000,3.212890869140625,-390.5672607421875,-195.75755310058594,-17.2655029296875
1751013489841934000,3.22293408203125,-390.8945007324219,-195.563720703125,-17.527801513671875
1751013489851976200,3.23297607421875,-390.841552734375,-195.6002197265625,-17.154159545898438
1751013489862019000,3.24301904296875,-390.7845153808594,-195.8123321533203,-17.634475708007812
1751013489872061000,3.25306103515625,-390.873046875,-195.8004150390625,-17.629409790039062
1751013489882103000,3.26310302734375,-390.5338134765625,-195.71205139160156,-17.485855102539062
1751013489892143900,3.273143798828125,-390.56146240234375,-195.36691284179688,-17.216064453125
1751013489902187000,3.28318701171875,-390.3363037109375,-195.2835235595703,-17.26123046875
1751013489912230000,3.29322998046875,-390.9169921875,-195.46617126464844,-17.58538818359375
1751013489922273300,3.303273193359375,-390.6961669921875,-195.6444549560547,-17.37811279296875
1751013489932315100,3.313315185546875,-390.6727294921875,-195.7170867919922,-17.51812744140625
1751013489942357000,3.32335693359375,-390.4014892578125,-195.62351989746094,-17.497848510742188
1751013489952399000,3.333399169921875,-391.17816162109375,-195.65972900390625,-17.376083374023438
1751013489962440000,3.34343994140625,-390.9793395996094,-195.2915496826172,-17.26922607421875
1751013489972481000,3.35348095703125,-391.12054443359375,-195.36630249023438,-17.253082275390625
1751013489982521000,3.36352099609375,-391.105224609375,-195.63671875,-17.311904907226562
1751013489992561200,3.37356103515625,-390.8847961425781,-195.88174438476562,-17.292205810546875
1751013490002602000,3.38360205078125,-390.67279052734375,-195.71124267578125,-17.228195190429688
1751013490012642000,3.39364208984375,-390.78094482421875,-195.60946655273438,-17.124984741210938
1751013490022683100,3.40368310546875,-390.45794677734375,-195.84115600585938,-17.162628173828125
1751013490032723200,3.41372314453125,-390.48944091796875,-195.85545349121094,-17.021804809570312
1751013490042762000,3.423761962890625,-390.49810791015625,-195.7536163330078,-17.011611938476562
1751013490052803000,3.433802978515625,-390.246337890625,-195.93856811523438,-16.764083862304688
1751013490062844200,3.44384423828125,-390.6917419433594,-195.83749389648438,-17.066314697265625
1751013490072884000,3.453884033203125,-390.515380859375,-195.9156494140625,-17.272598266601562
1751013490082925000,3.463925048828125,-390.453125,-196.07540893554688,-17.1226806640625
1751013490092965000,3.473965087890625,-390.5631103515625,-195.88140869140625,-17.151931762695312
1751013490103005200,3.484005126953125,-390.22137451171875,-195.8759765625,-17.016860961914062
1751013490113045000,3.494044921875,-390.78057861328125,-195.63601684570312,-17.037033081054688
1751013490123085000,3.5040849609375,-390.6854553222656,-195.7710418701172,-17.122161865234375
1751013490133126100,3.514126220703125,-390.55169677734375,-195.87875366210938,-17.467391967773438
1751013490143167000,3.5241669921875,-390.57843017578125,-195.80899047851562,-17.15594482421875
1751013490153208000,3.5342080078125,-390.65283203125,-195.53244018554688,-17.23876953125
1751013490163248000,3.544248046875,-391.031005859375,-195.29014587402344,-17.265823364257812
1751013490173289000,3.5542890625,-390.8282470703125,-195.7536163330078,-17.054580688476562
1751013490183329000,3.5643291015625,-390.989013671875,-195.6981201171875,-17.142791748046875
1751013490193370000,3.5743701171875,-390.689453125,-195.88128662109375,-17.15313720703125
1751013490203410200,3.58441015625,-390.4144287109375,-195.7501678466797,-17.281295776367188
1751013490213451300,3.594451171875,-390.53265380859375,-195.55064392089844,-17.240310668945312
1751013490223492000,3.6044921875,-390.5155944824219,-195.98057556152344,-17.191055297851562
1751013490233535000,3.614534912109375,-391.01104736328125,-195.96949768066406,-17.189605712890625
1751013490243579100,3.6245791015625,-390.8787841796875,-195.9761962890625,-17.123016357421875
1751013490253622000,3.6346220703125,-391.0391845703125,-195.64747619628906,-17.327804565429688
1751013490263664000,3.6446640625,-390.3587646484375,-195.6326141357422,-17.185882568359375
1751013490273706000,3.6547060546875,-390.1944274902344,-195.69534301757812,-16.886062622070312
1751013490283748000,3.664748046875,-390.54541015625,-195.5993194580078,-17.299667358398438
1751013490293790200,3.674790283203125,-390.5704345703125,-195.69273376464844,-17.278335571289062
1751013490303833000,3.6848330078125,-390.3333740234375,-195.7065887451172,-17.27044677734375
1751013490313875000,3.694875,-390.34356689453125,-195.7600860595703,-17.416366577148438
1751013490323919000,3.704919189453125,-390.18951416015625,-195.6002197265625,-16.995101928710938
1751013490333961000,3.7149609375,-390.52996826171875,-195.70794677734375,-17.033294677734375
1751013490344003000,3.725003173828125,-390.3045959472656,-195.69606018066406,-17.069122314453125
1751013490354044000,3.7350439453125,-390.6636962890625,-195.8473358154297,-17.035385131835938
1751013490364086300,3.745086181640625,-390.68939208984375,-195.72140502929688,-17.121856689453125
1751013490374128000,3.755128173828125,-389.7467956542969,-195.645751953125,-17.103713989257812
1751013490384169200,3.765169189453125,-390.1002197265625,-195.60458374023438,-17.069549560546875
1751013490394211000,3.775211181640625,-389.82183837890625,-195.80348205566406,-17.116668701171875
1751013490404258600,3.785258544921875,-390.48199462890625,-195.68553161621094,-17.030502319335938
1751013490414300400,3.795300537109375,-390.3721618652344,-195.53077697753906,-17.5009765625
1751013490424342300,3.80534228515625,-390.59228515625,-195.71307373046875,-17.103378295898438
1751013490434385400,3.815385498046875,-390.7623291015625,-195.8016357421875,-17.204193115234375
1751013490444427500,3.825427490234375,-390.2196044921875,-195.6009063720703,-16.762588500976562
1751013490454470400,3.835470458984375,-389.8808288574219,-195.69166564941406,-16.902297973632812
1751013490464513300,3.84551318359375,-390.57537841796875,-195.8396759033203,-17.214462280273438
1751013490474555400,3.855555419921875,-390.8599853515625,-195.8072052001953,-16.8927001953125
1751013490484597500,3.865597412109375,-390.2126770019531,-195.39529418945312,-16.850341796875
1751013490494640400,3.875640380859375,-390.0520935058594,-196.03123474121094,-16.770309448242188
1751013490504682200,3.88568212890625,-390.28759765625,-196.09425354003906,-16.79150390625
1751013490514724600,3.895724609375,-390.5018005371094,-195.66799926757812,-16.736251831054688
1751013490524766500,3.905766357421875,-390.53826904296875,-196.1165771484375,-16.655502319335938
1751013490534808300,3.915808349609375,-390.478271484375,-195.76173400878906,-17.114425659179688
1751013490544851200,3.925851318359375,-390.8218078613281,-196.01828002929688,-17.109100341796875
1751013490554893600,3.9358935546875,-390.35345458984375,-195.74176025390625,-17.11370849609375
1751013490564932400,3.945932373046875,-390.768798828125,-195.7806396484375,-16.770065307617188
1751013490574981400,3.9559814453125,-390.48529052734375,-195.80856323242188,-17.47467041015625
1751013490585025300,3.966025390625,-390.7083740234375,-196.073974609375,-17.022674560546875
1751013490595069400,3.9760693359375,-390.46295166015625,-195.86477661132812,-17.017578125
1751013490605108500,3.9861083984375,-390.13421630859375,-195.53305053710938,-17.030197143554688
1751013490615157200,3.9961572265625,-390.55816650390625,-195.70587158203125,-16.97601318359375
1751013490625200400,4.006200439453125,-390.3985595703125,-195.7759246826172,-16.759750366210938
1751013490635238400,4.01623828125,-390.771728515625,-195.5586700439453,-17.026626586914062
1751013490645287400,4.026287353515625,-390.74749755859375,-195.5799560546875,-16.819732666015625
1751013490655326500,4.036326416015625,-390.208984375,-195.7362060546875,-17.060150146484375
1751013490665375500,4.04637548828125,-391.01806640625,-195.7642364501953,-17.152633666992188
1751013490675417300,4.056417236328125,-390.63623046875,-195.67861938476562,-16.830902099609375
1751013490685460200,4.066460205078125,-390.4610595703125,-195.58135986328125,-16.9326171875
1751013490695503400,4.07650341796875,-390.45574951171875,-195.4313201904297,-17.261199951171875
1751013490705546500,4.08654638671875,-390.90948486328125,-195.88113403320312,-16.851211547851562
1751013490715589600,4.096589599609375,-390.5751953125,-195.79757690429688,-17.03399658203125
1751013490725632500,4.106632568359375,-390.6165771484375,-195.9573516845703,-17.011627197265625
1751013490735676400,4.116676513671875,-391.0349426269531,-195.72604370117188,-17.041412353515625
1751013490745719600,4.126719482421875,-390.46514892578125,-195.74526977539062,-16.723861694335938
1751013490755762400,4.136762451171875,-390.11346435546875,-195.56748962402344,-16.585403442382812
1751013490765806300,4.146806396484375,-390.4368896484375,-195.8266143798828,-17.226242065429688
1751013490775849200,4.15684912109375,-390.54888916015625,-196.13714599609375,-17.267547607421875
1751013490785892600,4.166892578125,-390.09503173828125,-195.30612182617188,-16.749496459960938
1751013490795936300,4.176936279296875,-390.1310119628906,-195.74639892578125,-16.956527709960938
1751013490805980400,4.18698046875,-390.2634582519531,-195.59986877441406,-17.103729248046875
1751013490816024300,4.1970244140625,-389.88531494140625,-195.2606201171875,-17.159896850585938
1751013490826068500,4.207068359375,-390.35235595703125,-195.7209014892578,-17.299285888671875
1751013490836112400,4.2171123046875,-390.26898193359375,-195.58447265625,-17.380706787109375
1751013490846155500,4.227155517578125,-390.02972412109375,-195.63613891601562,-17.262115478515625
1751013490856198400,4.237198486328125,-389.71954345703125,-195.64112854003906,-17.28271484375
1751013490866241500,4.247241455078125,-390.0013122558594,-195.6283721923828,-17.126220703125
1751013490876285400,4.257285400390625,-390.3375244140625,-195.2925262451172,-17.236587524414062
1751013490886327600,4.26732763671875,-390.0735778808594,-195.61660766601562,-17.1680908203125
1751013490896370400,4.277370361328125,-390.29998779296875,-195.41490173339844,-17.026565551757812
1751013490906411500,4.28741162109375,-390.06304931640625,-195.14451599121094,-17.213775634765625
1751013490916451300,4.297451416015625,-390.4643249511719,-195.12965393066406,-17.1265869140625
1751013490926492400,4.307492431640625,-390.19525146484375,-195.38665771484375,-17.016143798828125
1751013490936535300,4.317535400390625,-390.7278137207031,-195.5066680908203,-17.089614868164062
1751013490946578400,4.327578369140625,-390.4931640625,-195.7900848388672,-17.139739990234375
1751013490956620500,4.33762060546875,-390.51953125,-195.21803283691406,-17.010269165039062
1751013490966664200,4.347664306640625,-390.2073669433594,-195.34092712402344,-17.553314208984375
1751013490976706600,4.35770654296875,-390.55462646484375,-195.595703125,-17.288894653320312
1751013490986748400,4.36774853515625,-390.90911865234375,-195.3212432861328,-17.107757568359375
1751013490996789500,4.37778955078125,-391.00933837890625,-195.32130432128906,-17.194808959960938
1751013491006831400,4.387831298828125,-390.3851318359375,-195.63153076171875,-17.263656616210938
1751013491016873500,4.39787353515625,-390.5130615234375,-195.2806854248047,-17.174270629882812
1751013491026916600,4.40791650390625,-390.6119384765625,-195.4940643310547,-17.52325439453125
1751013491036958500,4.41795849609375,-390.5882568359375,-195.48521423339844,-17.3277587890625
1751013491047000300,4.428000244140625,-390.66802978515625,-195.3317108154297,-17.241455078125
1751013491057042400,4.43804248046875,-390.21875,-195.12477111816406,-17.179031372070312
1751013491067084300,4.448084228515625,-390.68548583984375,-195.21559143066406,-17.152191162109375
1751013491077126400,4.45812646484375,-390.7098388671875,-195.51150512695312,-17.059158325195312
1751013491087168500,4.46816845703125,-390.68511962890625,-195.76492309570312,-17.0836181640625
1751013491097210400,4.47821044921875,-390.35931396484375,-195.68260192871094,-17.32373046875
1751013491107252500,4.48825244140625,-391.041259765625,-195.7623748779297,-17.111160278320312
1751013491117293300,4.498293212890625,-390.5074768066406,-195.58065795898438,-16.989395141601562
1751013491127335400,4.50833544921875,-390.403564453125,-195.5369873046875,-17.168701171875
1751013491137377500,4.51837744140625,-390.1847229003906,-195.35751342773438,-16.737335205078125
1751013491147416300,4.528416259765625,-390.3282165527344,-195.4862823486328,-17.207183837890625
1751013491157463300,4.53846337890625,-390.71661376953125,-195.94569396972656,-16.620315551757812
1751013491167506400,4.54850634765625,-390.0933532714844,-196.00979614257812,-17.142791748046875
1751013491177548300,4.55854833984375,-390.5401611328125,-195.92532348632812,-16.887451171875
1751013491187590400,4.56859033203125,-390.12530517578125,-195.58853149414062,-16.723190307617188
1751013491197632300,4.57863232421875,-390.6875,-195.73104858398438,-17.159133911132812
1751013491207671300,4.58867138671875,-390.74725341796875,-195.7753448486328,-17.06048583984375
1751013491217712400,4.59871240234375,-390.77459716796875,-195.5635223388672,-17.42578125
1751013491227752400,4.60875244140625,-390.27294921875,-195.70614624023438,-17.08538818359375
1751013491237793500,4.61879345703125,-390.10003662109375,-195.6405487060547,-17.0830078125
1751013491247834400,4.62883447265625,-390.5310363769531,-195.62445068359375,-17.069610595703125
1751013491257875500,4.63887548828125,-390.5113525390625,-195.6349639892578,-16.936920166015625
1751013491267915500,4.64891552734375,-390.4716796875,-195.79185485839844,-16.788070678710938
1751013491277956600,4.65895654296875,-390.28338623046875,-195.82725524902344,-17.119308471679688
1751013491287996400,4.668996337890625,-390.5751037597656,-195.86659240722656,-17.03240966796875
1751013491298036200,4.6790361328125,-390.32122802734375,-195.53439331054688,-17.05322265625
1751013491308076300,4.689076171875,-390.125244140625,-195.3533935546875,-17.061767578125
1751013491318115600,4.699115478515625,-390.10504150390625,-195.79002380371094,-16.596755981445312
1751013491328156400,4.709156494140625,-389.912841796875,-195.53623962402344,-16.744125366210938
1751013491338196500,4.719196533203125,-390.26129150390625,-195.6772003173828,-17.109619140625
1751013491348235300,4.7292353515625,-390.8485107421875,-195.85531616210938,-17.144012451171875
1751013491358276400,4.7392763671875,-390.28216552734375,-195.78907775878906,-16.888656616210938
1751013491368316400,4.74931640625,-389.6319580078125,-195.7284698486328,-17.117706298828125
1751013491378357500,4.759357421875,-390.34381103515625,-195.637939453125,-17.013412475585938
1751013491388397600,4.7693974609375,-390.09161376953125,-195.73622131347656,-17.205352783203125
1751013491398438400,4.7794384765625,-390.64453125,-195.5846405029297,-17.514266967773438
1751013491408479000,4.78947900390625,-390.755126953125,-195.9129180908203,-16.909103393554688
1751013491418520000,4.79952001953125,-390.57086181640625,-195.40353393554688,-16.9000244140625
1751013491428562000,4.80956201171875,-390.29486083984375,-196.2021484375,-17.160049438476562
1751013491438603000,4.81960302734375,-390.34722900390625,-196.10824584960938,-17.120315551757812
1751013491448642000,4.82964208984375,-389.697509765625,-195.9873046875,-17.187545776367188
1751013491458683100,4.83968310546875,-389.8375244140625,-195.9805450439453,-16.697784423828125
1751013491468724000,4.849723876953125,-389.7903747558594,-196.0245361328125,-16.702865600585938
1751013491478765000,4.85976513671875,-390.24652099609375,-195.81338500976562,-16.932861328125
1751013491488806000,4.869805908203125,-390.12738037109375,-195.79579162597656,-16.72125244140625
1751013491498847000,4.879846923828125,-390.60101318359375,-195.9861602783203,-16.981765747070312
1751013491508888800,4.889888916015625,-390.3046569824219,-196.34181213378906,-16.9962158203125
1751013491518929000,4.899928955078125,-389.9206848144531,-195.66653442382812,-16.765777587890625
1751013491528970000,4.909969970703125,-390.2491455078125,-195.8376007080078,-16.68035888671875
1751013491539009800,4.920009765625,-389.70977783203125,-195.6710968017578,-16.987228393554688
1751013491549049900,4.9300498046875,-389.85577392578125,-196.12078857421875,-17.215988159179688
1751013491559090000,4.94008984375,-390.18914794921875,-196.04531860351562,-17.046737670898438
1751013491569131000,4.950131103515625,-390.300048828125,-196.2265167236328,-17.267440795898438
1751013491579171800,4.960171875,-390.220458984375,-196.3077850341797,-17.067642211914062
1751013491589213000,4.970212890625,-390.222900390625,-196.09283447265625,-16.803207397460938
1751013491599254000,4.98025390625,-390.05523681640625,-196.04977416992188,-17.120773315429688
1751013491609294800,4.990294921875,-390.2340087890625,-195.9769744873047,-17.092605590820312
1751013491619336000,5.0003359375,-390.03631591796875,-196.1348419189453,-17.343246459960938
1751013491629376000,5.0103759765625,-389.7890625,-196.09716796875,-17.305648803710938
1751013491639416800,5.020416748046875,-390.2393798828125,-195.8804168701172,-17.249908447265625
1751013491649457000,5.030456787109375,-390.07012939453125,-196.08824157714844,-17.173614501953125
1751013491659498000,5.040498046875,-390.3200378417969,-195.8933563232422,-17.253662109375
1751013491669536800,5.050536865234375,-390.1067199707031,-195.7553253173828,-17.308914184570312
1751013491679576800,5.060576904296875,-390.06207275390625,-195.9029541015625,-17.026596069335938
1751013491689617000,5.070616943359375,-390.3680419921875,-195.7167205810547,-17.075225830078125
1751013491699658000,5.080657958984375,-389.8316650390625,-195.9149627685547,-17.106155395507812
1751013491709698800,5.09069873046875,-389.62982177734375,-196.1647491455078,-16.567184448242188
1751013491719741000,5.100740966796875,-390.03564453125,-195.9481201171875,-16.779647827148438
1751013491729781000,5.110781005859375,-389.94281005859375,-196.09288024902344,-17.037872314453125
1751013491739821000,5.120821044921875,-390.119384765625,-195.99554443359375,-16.784393310546875
1751013491749861000,5.130861083984375,-390.04010009765625,-196.01365661621094,-17.181259155273438
1751013491759901000,5.14090087890625,-390.2474365234375,-196.05555725097656,-16.859130859375
1751013491769941800,5.150941650390625,-390.25372314453125,-196.0142364501953,-17.0711669921875
1751013491779981800,5.16098193359375,-390.03466796875,-195.6882781982422,-16.672149658203125
1751013491790022000,5.17102197265625,-389.71661376953125,-195.8195037841797,-17.021041870117188
1751013491800063000,5.18106298828125,-390.3304138183594,-196.22494506835938,-16.937301635742188
1751013491810103800,5.191103759765625,-390.311767578125,-196.23348999023438,-17.018768310546875
1751013491820145000,5.201144775390625,-389.7906188964844,-195.98696899414062,-17.029327392578125
1751013491830186000,5.21118603515625,-390.28497314453125,-196.19161987304688,-17.140731811523438
1751013491840226000,5.22122607421875,-390.07159423828125,-195.7026824951172,-17.110107421875
1751013491850264800,5.231264892578125,-390.0386657714844,-196.16873168945312,-17.009521484375
1751013491860307000,5.241306884765625,-390.14935302734375,-196.01181030273438,-17.249008178710938
1751013491870348000,5.25134814453125,-390.076171875,-195.95030212402344,-17.026901245117188
1751013491880388000,5.26138818359375,-390.2760009765625,-196.1273193359375,-17.004135131835938
1751013491890429000,5.271428955078125,-390.7490234375,-195.93504333496094,-17.232467651367188
1751013491900468700,5.28146875,-390.26776123046875,-195.851806640625,-16.8697509765625
1751013491910508800,5.2915087890625,-390.9039306640625,-195.8094482421875,-16.983444213867188
1751013491920548900,5.301548828125,-390.4160461425781,-195.74801635742188,-17.04522705078125
1751013491930589000,5.3115888671875,-390.7196350097656,-196.24905395507812,-17.154083251953125
1751013491940629000,5.32162890625,-390.453857421875,-196.15347290039062,-17.296005249023438
1751013491950670000,5.331670166015625,-390.0865478515625,-196.1457061767578,-17.460281372070312
1751013491960712000,5.3417119140625,-390.37646484375,-195.63746643066406,-16.86041259765625
1751013491970753000,5.3517529296875,-390.0133361816406,-196.31491088867188,-17.394317626953125
1751013491980793900,5.3617939453125,-390.5580749511719,-196.10899353027344,-17.162918090820312
1751013491990835000,5.3718349609375,-390.45904541015625,-196.39906311035156,-16.991806030273438
1751013492000876000,5.3818759765625,-390.6651306152344,-195.8792266845703,-17.166183471679688
1751013492010916000,5.391916015625,-390.28509521484375,-196.6612091064453,-17.11773681640625
1751013492020957000,5.40195703125,-389.99237060546875,-196.18785095214844,-16.9095458984375
1751013492030996700,5.411996826171875,-390.44854736328125,-196.09349060058594,-17.205841064453125
1751013492041037800,5.422037841796875,-391.044677734375,-196.07333374023438,-17.215484619140625
1751013492051079000,5.432078857421875,-390.77935791015625,-196.10989379882812,-16.949539184570312
1751013492061121000,5.44212109375,-390.74322509765625,-196.00259399414062,-16.870864868164062
1751013492071162000,5.452162109375,-390.6670227050781,-196.08396911621094,-16.941925048828125
1751013492081201700,5.46220166015625,-390.5667724609375,-195.9961395263672,-17.009613037109375
1751013492091242800,5.47224267578125,-390.1812438964844,-196.09811401367188,-17.397064208984375
1751013492101283800,5.482283935546875,-390.105224609375,-196.1000213623047,-16.98919677734375
1751013492111324000,5.492323974609375,-389.9189758300781,-195.99850463867188,-17.084457397460938
1751013492121364700,5.50236474609375,-390.21478271484375,-196.08316040039062,-17.396347045898438
1751013492131404800,5.51240478515625,-390.5874328613281,-195.82565307617188,-17.080886840820312
1751013492141446000,5.52244580078125,-390.1957092285156,-195.98277282714844,-16.860794067382812
1751013492151487000,5.532487060546875,-390.5354919433594,-196.02813720703125,-17.146682739257812
1751013492161527800,5.54252783203125,-390.27667236328125,-196.34046936035156,-17.069717407226562
1751013492171569000,5.55256884765625,-390.20904541015625,-196.4157257080078,-17.006332397460938
1751013492181610000,5.56260986328125,-389.9324951171875,-196.09068298339844,-17.051422119140625
1751013492191649800,5.57264990234375,-390.56463623046875,-196.19981384277344,-17.140579223632812
1751013492201689000,5.582689208984375,-390.01983642578125,-195.9952850341797,-17.2686767578125
1751013492211730000,5.59272998046875,-390.36529541015625,-196.24436950683594,-16.760330200195312
1751013492221769700,5.602769775390625,-390.2883605957031,-196.3029327392578,-17.157745361328125
1751013492231810800,5.612810791015625,-390.9296875,-196.13063049316406,-17.108978271484375
1751013492241852000,5.622851806640625,-390.7376708984375,-196.2085723876953,-17.187545776367188
1751013492251892700,5.632892822265625,-390.2420654296875,-196.22178649902344,-17.184616088867188
1751013492261933800,5.642933837890625,-390.47711181640625,-195.9889373779297,-17.120681762695312
1751013492271976000,5.652975830078125,-390.5196533203125,-195.9857177734375,-17.29840087890625
1751013492282018000,5.66301806640625,-390.2441711425781,-196.22952270507812,-17.114349365234375
1751013492292059000,5.673058837890625,-390.65087890625,-195.98178100585938,-17.046905517578125
1751013492302100000,5.683099853515625,-390.32855224609375,-195.82321166992188,-17.236297607421875
1751013492312140000,5.69314013671875,-390.312255859375,-195.7512664794922,-17.040756225585938
1751013492322179800,5.703179931640625,-390.10357666015625,-196.0703582763672,-17.271697998046875
1751013492332219000,5.713218994140625,-390.30963134765625,-195.62864685058594,-16.996307373046875
1751013492342259000,5.723259033203125,-390.12408447265625,-195.88201904296875,-16.812332153320312
1751013492352296700,5.733296630859375,-390.4854736328125,-195.84439086914062,-16.975479125976562
1751013492362336800,5.743336669921875,-390.350830078125,-196.0924835205078,-16.956634521484375
1751013492372376800,5.753376953125,-390.4546203613281,-196.12400817871094,-17.021408081054688
1751013492382414800,5.763414794921875,-390.490966796875,-195.7440948486328,-17.241851806640625
1751013492392454000,5.773453857421875,-390.81292724609375,-196.03817749023438,-17.125274658203125
1751013492402489300,5.7834892578125,-390.5020446777344,-195.8751983642578,-16.96820068359375
1751013492412528600,5.793528564453125,-390.7637634277344,-195.74098205566406,-16.939743041992188
1751013492422567700,5.803567626953125,-390.59100341796875,-195.71754455566406,-16.826400756835938
1751013492432606500,5.8136064453125,-390.9375,-195.8140106201172,-16.793487548828125
1751013492442644500,5.82364453125,-390.60650634765625,-195.70748901367188,-17.08575439453125
1751013492452683500,5.83368359375,-390.2507019042969,-195.79666137695312,-16.588546752929688
1751013492462723600,5.8437236328125,-390.548583984375,-195.72239685058594,-16.767044067382812
1751013492472762600,5.8537626953125,-390.58660888671875,-195.82400512695312,-17.01910400390625
1751013492482802700,5.863802734375,-390.2069091796875,-195.7786102294922,-16.971115112304688
1751013492492842500,5.873842529296875,-390.5540771484375,-195.62913513183594,-16.758056640625
1751013492502883300,5.88388330078125,-390.7745361328125,-195.5840606689453,-16.889312744140625
1751013492512923400,5.89392333984375,-390.2620849609375,-195.63577270507812,-16.726577758789062
1751013492522963500,5.90396337890625,-390.57861328125,-195.4910888671875,-16.906723022460938
1751013492533003500,5.91400341796875,-390.79888916015625,-195.74851989746094,-16.892807006835938
1751013492543044600,5.924044677734375,-390.64874267578125,-195.56201171875,-16.83807373046875
1751013492553084700,5.934084716796875,-390.4244384765625,-195.7398681640625,-16.735977172851562
1751013492563125500,5.94412548828125,-390.856689453125,-196.06710815429688,-16.815414428710938
1751013492573165300,5.954165283203125,-391.06951904296875,-195.6488037109375,-16.827911376953125
1751013492583205400,5.964205322265625,-390.61602783203125,-195.6619415283203,-16.834640502929688
1751013492593246500,5.97424658203125,-390.54315185546875,-195.3885040283203,-16.730239868164062
1751013492603287600,5.98428759765625,-390.7387390136719,-195.69468688964844,-16.790664672851562
1751013492613327600,5.99432763671875,-390.741455078125,-195.6869659423828,-16.722564697265625
1751013492623367400,6.004367431640625,-390.46539306640625,-195.80433654785156,-16.381744384765625
1751013492633407500,6.014407470703125,-390.532958984375,-195.63270568847656,-16.9951171875
1751013492643448600,6.024448486328125,-390.5257568359375,-195.6948699951172,-16.604766845703125
1751013492653489700,6.03448974609375,-390.009765625,-195.2390899658203,-16.591140747070312
1751013492663529700,6.04452978515625,-390.20050048828125,-195.8173828125,-17.108261108398438
1751013492673569500,6.054569580078125,-390.58648681640625,-195.8111572265625,-17.214096069335938
1751013492683609600,6.064609619140625,-390.4678039550781,-195.66302490234375,-16.986236572265625
1751013492693649400,6.0746494140625,-390.18743896484375,-195.69625854492188,-16.85321044921875
1751013492703689500,6.084689453125,-390.64202880859375,-195.5741729736328,-16.94537353515625
1751013492713731600,6.094731689453125,-390.5815734863281,-195.35745239257812,-17.277084350585938
1751013492723772400,6.1047724609375,-390.43902587890625,-195.55418395996094,-16.664093017578125
1751013492733813500,6.1148134765625,-390.21405029296875,-195.55172729492188,-17.137603759765625
1751013492743853600,6.124853515625,-390.49029541015625,-195.9599151611328,-16.88348388671875
1751013492753894700,6.134894775390625,-390.18603515625,-195.64186096191406,-17.27093505859375
1751013492763935500,6.144935546875,-390.3916931152344,-195.59805297851562,-17.058883666992188
1751013492773976600,6.1549765625,-390.61309814453125,-195.39166259765625,-16.971237182617188
1751013492784018400,6.165018310546875,-390.5111999511719,-195.44862365722656,-16.986419677734375
1751013492794060500,6.175060546875,-390.6185302734375,-195.49476623535156,-17.153350830078125
1751013492804102400,6.185102294921875,-390.41583251953125,-195.394775390625,-16.888534545898438
1751013492814144500,6.19514453125,-390.5504455566406,-195.10650634765625,-17.112396240234375
1751013492824186600,6.2051865234375,-390.87982177734375,-195.66757202148438,-17.17303466796875
1751013492834227500,6.2152275390625,-390.4105224609375,-195.5756072998047,-16.941070556640625
1751013492844268500,6.2252685546875,-390.45135498046875,-195.4905242919922,-16.826126098632812
1751013492854310400,6.235310302734375,-390.8044738769531,-195.51187133789062,-17.454818725585938
1751013492864352500,6.2453525390625,-390.8977966308594,-195.6100311279297,-16.940521240234375
1751013492874394400,6.255394287109375,-390.50079345703125,-195.5550994873047,-17.11871337890625
1751013492884435500,6.265435546875,-390.4886474609375,-195.61842346191406,-17.029205322265625
1751013492894477600,6.2754775390625,-390.3970947265625,-195.54693603515625,-17.31396484375
1751013492904517400,6.285517333984375,-390.6946105957031,-195.2725067138672,-16.989349365234375
1751013492914557400,6.295557373046875,-390.3724365234375,-195.50582885742188,-16.727645874023438
1751013492924597500,6.305597412109375,-390.962646484375,-195.7586669921875,-17.089874267578125
1751013492934637600,6.315637451171875,-390.7563171386719,-195.3798370361328,-16.993438720703125
1751013492944678700,6.3256787109375,-391.00213623046875,-195.6078643798828,-16.902481079101562
1751013492954719500,6.335719482421875,-391.01519775390625,-195.6754608154297,-16.864837646484375
1751013492964760600,6.345760498046875,-391.0850830078125,-195.53366088867188,-17.014358520507812
1751013492974801700,6.3558017578125,-391.052734375,-195.45248413085938,-17.133377075195312
1751013492984841500,6.365841552734375,-391.0162353515625,-195.53021240234375,-16.904403686523438
1751013492994882600,6.375882568359375,-390.78131103515625,-195.71136474609375,-16.648712158203125
1751013493004923600,6.385923583984375,-390.5580749511719,-195.4309844970703,-16.790435791015625
1751013493014963700,6.395963623046875,-390.98876953125,-195.53695678710938,-16.9884033203125
1751013493025003500,6.40600341796875,-390.56121826171875,-195.4644317626953,-16.745895385742188
1751013493035044400,6.41604443359375,-390.8385009765625,-195.43113708496094,-17.076263427734375
1751013493045086700,6.426086669921875,-390.8669738769531,-195.6412353515625,-16.8919677734375
1751013493055128600,6.436128662109375,-390.92205810546875,-195.6705780029297,-16.801483154296875
1751013493065171500,6.44617138671875,-390.59552001953125,-195.31094360351562,-16.735855102539062
1751013493075212500,6.456212646484375,-391.1444091796875,-195.4479217529297,-16.968994140625
1751013493085254400,6.46625439453125,-390.6605224609375,-195.7246856689453,-16.870635986328125
1751013493095295500,6.47629541015625,-390.69500732421875,-195.71316528320312,-16.824188232421875
1751013493105336300,6.48633642578125,-390.63604736328125,-195.81471252441406,-17.097122192382812
1751013493115377400,6.49637744140625,-390.86761474609375,-195.65232849121094,-16.79730224609375
1751013493125417500,6.50641748046875,-390.8409423828125,-195.52694702148438,-16.699478149414062
1751013493135459300,6.516459228515625,-390.3344421386719,-195.3848114013672,-17.036270141601562
1751013493145500400,6.52650048828125,-390.5840148925781,-196.0593719482422,-16.916122436523438
1751013493155541500,6.53654150390625,-390.60357666015625,-195.63153076171875,-17.066970825195312
1751013493165581600,6.54658154296875,-390.34002685546875,-195.6028594970703,-16.77301025390625
1751013493175622400,6.556622314453125,-390.4838562011719,-195.53871154785156,-17.029327392578125
1751013493185662500,6.566662353515625,-390.47869873046875,-195.81643676757812,-16.90789794921875
1751013493195703600,6.57670361328125,-390.7151794433594,-195.41856384277344,-17.104278564453125
1751013493205744400,6.586744384765625,-390.7362365722656,-195.19915771484375,-17.183670043945312
1751013493215786500,6.596786376953125,-390.625,-195.42587280273438,-16.761322021484375
1751013493225827300,6.606827392578125,-390.7342529296875,-195.7501678466797,-17.2486572265625
1751013493235867400,6.616867431640625,-391.0583190917969,-195.6468505859375,-16.990890502929688
1751013493245907500,6.626907470703125,-391.08502197265625,-195.82025146484375,-16.979904174804688
1751013493255948500,6.636948486328125,-391.18634033203125,-195.77679443359375,-17.121475219726562
1751013493265989600,6.64698974609375,-390.685791015625,-195.74658203125,-16.8875732421875
1751013493276030500,6.657030517578125,-390.7554626464844,-195.8551483154297,-16.8895263671875
1751013493286070500,6.667070556640625,-390.5990905761719,-195.5507354736328,-17.0777587890625
1751013493296111600,6.677111572265625,-390.6800231933594,-195.79177856445312,-16.730926513671875
1751013493306152700,6.687152587890625,-390.5644226074219,-195.60459899902344,-16.440887451171875
1751013493316192500,6.697192626953125,-391.0801696777344,-196.0518798828125,-16.8826904296875
1751013493326233600,6.707233642578125,-390.6908874511719,-196.15130615234375,-16.5208740234375
1751013493336274700,6.717274658203125,-390.67315673828125,-195.93699645996094,-16.880096435546875
1751013493346315500,6.7273154296875,-390.75103759765625,-195.56365966796875,-17.071990966796875
1751013493356356600,6.737356689453125,-390.94482421875,-195.55906677246094,-17.109649658203125
1751013493366399500,6.7473994140625,-390.5126647949219,-195.51303100585938,-16.680694580078125
1751013493376441600,6.757441650390625,-390.3044128417969,-195.5359344482422,-16.989837646484375
1751013493386484700,6.767484619140625,-391.1608581542969,-195.63751220703125,-16.816513061523438
1751013493396525600,6.777525634765625,-390.95989990234375,-195.69488525390625,-17.131118774414062
1751013493406568200,6.787568115234375,-390.39166259765625,-195.86373901367188,-17.058914184570312
1751013493416610600,6.797610595703125,-390.7843017578125,-195.69757080078125,-16.853256225585938
1751013493426653400,6.8076533203125,-390.692138671875,-195.79434204101562,-16.64569091796875
1751013493436697600,6.817697509765625,-390.63958740234375,-195.71755981445312,-17.1588134765625
1751013493446740500,6.827740478515625,-390.1803894042969,-195.67225646972656,-16.902145385742188
1751013493456782300,6.8377822265625,-390.6275329589844,-195.75225830078125,-16.854873657226562
1751013493466823400,6.847823486328125,-390.4364013671875,-195.64971923828125,-17.12872314453125
1751013493476865300,6.857865234375,-390.4061279296875,-195.68930053710938,-16.9400634765625
1751013493486906400,6.86790625,-390.1982116699219,-195.60702514648438,-16.7462158203125
1751013493496948500,6.877948486328125,-390.4381408691406,-195.24916076660156,-16.80987548828125
1751013493506989600,6.887989501953125,-390.6082458496094,-195.3351593017578,-16.94915771484375
1751013493517027300,6.89802734375,-390.7459716796875,-195.5844268798828,-16.76910400390625
1751013493527075300,6.908075439453125,-390.65289306640625,-195.52633666992188,-17.081405639648438
1751013493537117400,6.918117431640625,-390.84161376953125,-195.61813354492188,-17.106903076171875
1751013493547158500,6.928158447265625,-390.6241455078125,-195.54995727539062,-16.75152587890625
1751013493557200400,6.938200439453125,-390.9017333984375,-195.95455932617188,-16.993072509765625
1751013493567242500,6.948242431640625,-390.5064697265625,-195.95872497558594,-16.630233764648438
1751013493577283300,6.958283447265625,-390.6024169921875,-195.56912231445312,-16.635696411132812
1751013493587324400,6.968324462890625,-390.28948974609375,-195.6632080078125,-16.633651733398438
1751013493597365500,6.978365478515625,-390.5098876953125,-195.4307098388672,-16.981689453125
1751013493607408600,6.98840869140625,-390.2388916015625,-195.5026397705078,-16.730026245117188
1751013493617449500,6.998449462890625,-390.4588623046875,-195.64376831054688,-16.698638916015625
1751013493627491600,7.00849169921875,-390.7884826660156,-195.67298889160156,-16.637374877929688
1751013493637533400,7.018533447265625,-390.71112060546875,-195.2437286376953,-16.763946533203125
1751013493647576300,7.028576416015625,-390.0140380859375,-195.24758911132812,-16.636764526367188
1751013493657617400,7.038617431640625,-390.62628173828125,-195.4003448486328,-16.650894165039062
1751013493667654400,7.048654296875,-390.77911376953125,-195.53866577148438,-16.782135009765625
1751013493677703400,7.058703369140625,-390.2077941894531,-195.7262725830078,-16.719497680664062
1751013493687746600,7.06874658203125,-390.5169372558594,-195.5511474609375,-16.73223876953125
1751013493697786400,7.078786376953125,-390.24200439453125,-195.29736328125,-16.603347778320312
1751013493707828500,7.088828369140625,-390.6684875488281,-195.79039001464844,-16.837722778320312
1751013493717871400,7.098871337890625,-390.0181579589844,-195.5584716796875,-16.797088623046875
1751013493727913500,7.10891357421875,-390.5225830078125,-195.72035217285156,-16.600677490234375
1751013493737954300,7.118954345703125,-390.5791015625,-195.80746459960938,-16.539703369140625
1751013493747997400,7.12899755859375,-390.56585693359375,-195.5244140625,-16.463119506835938
1751013493758040300,7.139040283203125,-390.5184631347656,-195.7947998046875,-16.7032470703125
1751013493768082400,7.14908251953125,-390.9412841796875,-195.55284118652344,-16.499923706054688
1751013493778124300,7.159124267578125,-390.7093200683594,-195.74664306640625,-16.396835327148438
1751013493788166400,7.16916650390625,-390.2975158691406,-196.0980224609375,-17.040756225585938
1751013493798209500,7.17920947265625,-390.3516845703125,-195.72381591796875,-16.640625
1751013493808251400,7.18925146484375,-390.0019226074219,-195.8739776611328,-16.807632446289062
1751013493818294300,7.199294189453125,-390.80157470703125,-195.79669189453125,-16.978958129882812
1751013493828336400,7.20933642578125,-390.6788330078125,-195.9373016357422,-16.746856689453125
1751013493838379300,7.219379150390625,-390.40374755859375,-195.95555114746094,-16.755996704101562
1751013493848421400,7.22942138671875,-390.44732666015625,-195.93203735351562,-16.753982543945312
1751013493858462200,7.239462158203125,-391.07916259765625,-195.6732177734375,-16.766342163085938
1751013493868505600,7.249505615234375,-390.698974609375,-195.62770080566406,-16.976608276367188
1751013493878547500,7.25954736328125,-390.9187927246094,-195.815673828125,-17.08038330078125
1751013493888590300,7.26959033203125,-391.0662841796875,-195.57748413085938,-17.060760498046875
1751013493898633500,7.279633544921875,-390.636474609375,-195.28196716308594,-16.940292358398438
1751013493908675300,7.28967529296875,-391.0333251953125,-195.5525665283203,-16.890655517578125
1751013493918718500,7.299718505859375,-390.69384765625,-195.6173553466797,-17.027069091796875
1751013493928760300,7.30976025390625,-390.76055908203125,-195.45335388183594,-16.605880737304688
1751013493938803500,7.319803466796875,-390.7355041503906,-195.54299926757812,-16.856399536132812
1751013493948845300,7.32984521484375,-390.905029296875,-195.69677734375,-16.763259887695312
1751013493958887400,7.339887451171875,-390.55535888671875,-195.60223388671875,-16.733871459960938
1751013493968929300,7.34992919921875,-390.8438415527344,-195.74554443359375,-16.850296020507812
1751013493978971400,7.359971435546875,-390.88232421875,-195.7917938232422,-17.09283447265625
1751013493989008400,7.37000830078125,-390.5333251953125,-195.78179931640625,-17.079605102539062
1751013493999055400,7.380055419921875,-390.52020263671875,-195.78053283691406,-16.695297241210938
1751013494009096400,7.390096435546875,-390.37957763671875,-195.66249084472656,-16.701034545898438
1751013494019138300,7.40013818359375,-390.60308837890625,-195.55618286132812,-16.8148193359375
1751013494029181400,7.410181396484375,-390.61822509765625,-195.94512939453125,-16.633880615234375
1751013494039223600,7.4202236328125,-390.20440673828125,-195.84213256835938,-16.639617919921875
1751013494049265400,7.430265380859375,-390.87603759765625,-195.5529022216797,-16.881912231445312
1751013494059307300,7.440307373046875,-390.2750244140625,-195.62525939941406,-16.724929809570312
1751013494069350400,7.450350341796875,-390.23028564453125,-195.65643310546875,-16.980224609375
1751013494079392500,7.460392578125,-390.60235595703125,-195.57843017578125,-16.818603515625
1751013494089435400,7.470435302734375,-390.7757568359375,-195.8936004638672,-16.870391845703125
1751013494099476200,7.480476318359375,-390.293212890625,-195.68414306640625,-16.8076171875
1751013494109518300,7.490518310546875,-390.0943908691406,-195.74224853515625,-16.981903076171875
1751013494119559200,7.50055908203125,-390.2089538574219,-195.82545471191406,-16.799057006835938
1751013494129602600,7.5106025390625,-391.0363464355469,-195.86375427246094,-17.119903564453125
1751013494139644400,7.52064453125,-390.7527770996094,-195.83489990234375,-16.806137084960938
1751013494149685500,7.530685546875,-390.7309875488281,-195.53021240234375,-16.605438232421875
1751013494159728400,7.540728271484375,-390.5350341796875,-195.83212280273438,-16.774581909179688
1751013494169770500,7.5507705078125,-390.68658447265625,-195.77236938476562,-16.714828491210938
1751013494179812400,7.560812255859375,-390.6771545410156,-195.70379638671875,-16.904815673828125
1751013494189853400,7.570853515625,-390.7359619140625,-195.59048461914062,-17.112152099609375
1751013494199895300,7.580895263671875,-391.1717834472656,-195.6068115234375,-16.764450073242188
1751013494209932300,7.590932373046875,-390.731689453125,-195.29571533203125,-16.800506591796875
1751013494219979500,7.6009794921875,-390.7821960449219,-195.7528839111328,-16.832733154296875
1751013494230021400,7.611021484375,-390.97711181640625,-195.81875610351562,-16.897811889648438
1751013494240063500,7.6210634765625,-390.5281982421875,-195.42501831054688,-16.536285400390625
1751013494250105300,7.631105224609375,-390.4900817871094,-195.65223693847656,-16.779769897460938
1751013494260146400,7.641146484375,-390.43988037109375,-195.5360870361328,-16.604354858398438
1751013494270187300,7.651187255859375,-390.52947998046875,-195.6757049560547,-16.854034423828125
1751013494280228400,7.661228271484375,-390.06829833984375,-195.47618103027344,-16.7215576171875
1751013494290270200,7.671270263671875,-390.264892578125,-195.40972900390625,-16.71917724609375
1751013494300311300,7.681311279296875,-390.5030822753906,-195.94996643066406,-16.804580688476562
1751013494310351400,7.691351318359375,-390.3188781738281,-195.57765197753906,-16.704254150390625
1751013494320392400,7.701392333984375,-390.54071044921875,-195.4801025390625,-16.737716674804688
1751013494330434300,7.711434326171875,-390.6144104003906,-195.67092895507812,-16.735488891601562
1751013494340475400,7.721475341796875,-390.29595947265625,-195.58511352539062,-16.503021240234375
1751013494350516200,7.73151611328125,-390.31488037109375,-195.6339569091797,-16.712615966796875
1751013494360558600,7.74155859375,-390.34088134765625,-195.78688049316406,-16.731643676757812
1751013494370599400,7.751599365234375,-390.268798828125,-195.66700744628906,-16.617782592773438
1751013494380641500,7.7616416015625,-390.4031677246094,-195.62147521972656,-16.614013671875
1751013494390682400,7.771682373046875,-390.1585693359375,-195.44061279296875,-16.994140625
1751013494400722400,7.781722412109375,-390.4745178222656,-195.64974975585938,-16.619400024414062
1751013494410763500,7.791763427734375,-390.27130126953125,-195.60545349121094,-16.730743408203125
1751013494420805400,7.801805419921875,-390.6011962890625,-195.55426025390625,-16.33526611328125
1751013494430847500,7.811847412109375,-390.19586181640625,-195.58189392089844,-16.634857177734375
1751013494440888300,7.821888427734375,-390.6746826171875,-195.65882873535156,-16.8248291015625
1751013494450930400,7.831930419921875,-390.5202331542969,-195.39735412597656,-16.686676025390625
1751013494460972300,7.84197216796875,-390.6478271484375,-195.15737915039062,-16.793197631835938
1751013494471013400,7.852013427734375,-390.5657958984375,-195.31829833984375,-16.6241455078125
1751013494481055500,7.862055419921875,-390.35430908203125,-195.2810516357422,-16.7440185546875
1751013494491096600,7.8720966796875,-390.67840576171875,-195.5516815185547,-16.857192993164062
1751013494501137400,7.882137451171875,-390.55450439453125,-195.40487670898438,-16.759750366210938
1751013494511179500,7.892179443359375,-390.7469482421875,-195.5724639892578,-17.005996704101562
1751013494521222400,7.902222412109375,-390.25726318359375,-195.55638122558594,-16.620742797851562
1751013494531264300,7.91226416015625,-390.64727783203125,-195.4855499267578,-16.795211791992188
1751013494541306400,7.922306396484375,-390.3555603027344,-195.30726623535156,-16.79229736328125
1751013494551347500,7.932347412109375,-390.76409912109375,-195.60028076171875,-16.796371459960938
1751013494561390300,7.942390380859375,-390.69757080078125,-195.42098999023438,-16.943939208984375
1751013494571433200,7.95243310546875,-390.9774169921875,-195.2245635986328,-16.816390991210938
1751013494581475600,7.9624755859375,-390.4677734375,-195.33872985839844,-16.7923583984375
1751013494591516400,7.972516357421875,-390.4061584472656,-195.52615356445312,-16.6385498046875
1751013494601558500,7.98255859375,-390.6219787597656,-195.52923583984375,-16.665542602539062
1751013494611600400,7.992600341796875,-390.30804443359375,-195.43910217285156,-16.337753295898438
1751013494621641500,8.002641357421876,-390.4264221191406,-195.454345703125,-16.788116455078125
1751013494631682300,8.012682373046875,-390.8159484863281,-195.5313720703125,-17.049163818359375
1751013494641724400,8.022724365234374,-390.61871337890625,-195.6147003173828,-16.762542724609375
1751013494651767600,8.032767578125,-390.4444580078125,-195.4429473876953,-16.56451416015625
1751013494661809400,8.042809326171875,-390.3609313964844,-195.3330078125,-16.466461181640625
1751013494671852300,8.052852294921875,-390.4677429199219,-195.27682495117188,-16.531387329101562
1751013494681894400,8.062894287109375,-390.4971923828125,-195.78958129882812,-16.696380615234375
1751013494691937500,8.0729375,-391.11712646484375,-195.7401123046875,-16.933349609375
1751013494701980400,8.08298046875,-390.88037109375,-195.64474487304688,-16.556411743164062
1751013494712022300,8.093022216796875,-391.0523376464844,-195.63504028320312,-16.85516357421875
1751013494722064400,8.103064453125,-390.9533996582031,-195.67059326171875,-16.683364868164062
1751013494732105500,8.11310546875,-390.8553771972656,-195.32810974121094,-16.415557861328125
1751013494742147300,8.123147216796875,-391.0361328125,-195.30166625976562,-17.041412353515625
1751013494752189400,8.133189453125,-390.87890625,-194.95660400390625,-16.694015502929688
1751013494762231300,8.143231201171876,-391.07342529296875,-195.1494903564453,-16.800628662109375
1751013494772274400,8.1532744140625,-390.4679870605469,-195.352294921875,-16.792617797851562
1751013494782316500,8.163316650390625,-390.664306640625,-195.6546173095703,-16.370590209960938
1751013494792359400,8.173359375,-390.71881103515625,-195.353271484375,-16.818679809570312
1751013494802401300,8.1834013671875,-390.55938720703125,-194.95391845703125,-16.797683715820312
1751013494812444400,8.1934443359375,-390.6431884765625,-195.48880004882812,-16.7218017578125
1751013494822486500,8.203486572265625,-390.48419189453125,-195.30856323242188,-16.422103881835938
1751013494832528400,8.2135283203125,-390.5321044921875,-195.69407653808594,-16.826522827148438
1751013494842569500,8.223569580078125,-390.60247802734375,-195.727783203125,-16.775115966796875
1751013494852610300,8.2336103515625,-390.061279296875,-195.39065551757812,-16.617324829101562
1751013494862652400,8.24365234375,-390.5914306640625,-195.5838623046875,-16.6595458984375
1751013494872694500,8.253694580078125,-390.25262451171875,-195.2897186279297,-16.6380615234375
1751013494882737400,8.2637373046875,-390.74566650390625,-195.37977600097656,-16.703826904296875
1751013494892779300,8.273779296875,-390.85443115234375,-195.15382385253906,-16.852432250976562
1751013494902821400,8.2838212890625,-390.18170166015625,-195.5001983642578,-16.71771240234375
1751013494912863500,8.293863525390625,-390.5501403808594,-195.42747497558594,-16.746871948242188
1751013494922906400,8.30390625,-390.5531005859375,-195.75888061523438,-16.384719848632812
1751013494932948200,8.3139482421875,-390.07269287109375,-195.61053466796875,-16.40771484375
1751013494942989300,8.3239892578125,-390.54608154296875,-195.6695098876953,-16.740020751953125
1751013494953032400,8.334032470703125,-390.350830078125,-195.66363525390625,-16.663803100585938
1751013494963073500,8.344073486328124,-390.74676513671875,-195.8037109375,-16.672256469726562
1751013494973115400,8.354115478515626,-390.5697021484375,-195.06153869628906,-16.706710815429688
1751013494983156500,8.364156494140625,-390.35565185546875,-195.31915283203125,-16.732986450195312
1751013494993196500,8.374196533203126,-390.2087707519531,-195.5296630859375,-16.7161865234375
1751013495003237400,8.3842373046875,-390.68408203125,-196.05227661132812,-16.682296752929688
1751013495013278500,8.394278564453124,-389.835693359375,-195.74388122558594,-16.490402221679688
1751013495023320300,8.4043203125,-390.2100524902344,-195.6185760498047,-16.95855712890625
1751013495033362400,8.414362548828125,-390.5762939453125,-195.25527954101562,-16.736190795898438
1751013495043404300,8.424404296875,-390.72100830078125,-195.59213256835938,-16.828598022460938
1751013495053445400,8.4344453125,-390.7701416015625,-195.3377227783203,-16.663482666015625
1751013495063487200,8.4444873046875,-390.52484130859375,-195.81753540039062,-17.147201538085938
1751013495073528300,8.4545283203125,-390.64373779296875,-195.62254333496094,-17.07635498046875
1751013495083569400,8.4645693359375,-390.69110107421875,-195.67379760742188,-16.920379638671875
1751013495093612500,8.474612548828125,-390.66156005859375,-195.79722595214844,-17.148635864257812
1751013495103653400,8.4846533203125,-390.83563232421875,-196.02838134765625,-16.816848754882812
1751013495113694500,8.494694580078125,-390.58837890625,-195.6277313232422,-16.858932495117188
1751013495123736300,8.504736328125,-390.66265869140625,-195.62132263183594,-16.86981201171875
1751013495133778400,8.5147783203125,-390.37274169921875,-195.39390563964844,-16.188308715820312
1751013495143821600,8.524821533203125,-390.4768371582031,-195.26995849609375,-16.334732055664062
1751013495153863400,8.534863525390625,-390.56231689453125,-195.70758056640625,-16.661468505859375
1751013495163905300,8.5449052734375,-389.96142578125,-195.33790588378906,-16.644378662109375
1751013495173948200,8.5549482421875,-390.0955810546875,-195.6647186279297,-16.76318359375
1751013495183991600,8.564991455078125,-390.20489501953125,-195.68592834472656,-16.742950439453125
1751013495194030600,8.575030517578124,-390.613525390625,-195.47035217285156,-16.541976928710938
1751013495204078300,8.585078369140625,-389.8244323730469,-195.6744842529297,-16.419174194335938
1751013495214120400,8.595120361328124,-390.04425048828125,-195.58602905273438,-16.329574584960938
1751013495224162300,8.605162353515626,-390.27044677734375,-195.38267517089844,-16.451553344726562
1751013495234204400,8.615204345703125,-390.2310791015625,-195.60816955566406,-16.586334228515625
1751013495244246500,8.62524658203125,-390.1357421875,-195.87290954589844,-16.922653198242188
1751013495254287400,8.635287353515626,-389.8897705078125,-195.67697143554688,-16.640869140625
1751013495264329500,8.64532958984375,-389.7918395996094,-195.59815979003906,-16.819320678710938
1751013495274371300,8.655371337890625,-390.46124267578125,-195.65013122558594,-16.639511108398438
1751013495284413400,8.665413330078126,-390.3643798828125,-195.6092071533203,-16.773712158203125
1751013495294456600,8.67545654296875,-390.43463134765625,-195.77218627929688,-17.012161254882812
1751013495304497400,8.685497314453125,-390.45526123046875,-195.56053161621094,-16.780731201171875
1751013495314538500,8.69553857421875,-389.774169921875,-195.61392211914062,-17.036163330078125
1751013495324580400,8.705580322265625,-390.701416015625,-195.4202117919922,-16.618896484375
1751013495334623200,8.715623291015625,-389.563232421875,-195.23341369628906,-16.778717041015625
1751013495344665300,8.725665283203124,-390.1322021484375,-195.29891967773438,-16.843093872070312
1751013495354708500,8.73570849609375,-390.11700439453125,-195.3763885498047,-16.423904418945312
1751013495364750300,8.745750244140625,-390.7593994140625,-195.4040985107422,-16.504531860351562
1751013495374791400,8.75579150390625,-390.273193359375,-195.4244384765625,-16.616226196289062
1751013495384832300,8.765832275390625,-390.650146484375,-195.51565551757812,-16.616409301757812
1751013495394875400,8.77587548828125,-390.69000244140625,-195.4264678955078,-16.691909790039062
1751013495404920600,8.785920654296875,-390.53369140625,-195.42556762695312,-16.958877563476562
1751013495414962400,8.79596240234375,-390.23187255859375,-195.3062286376953,-16.948394775390625
1751013495425003500,8.80600341796875,-390.0970458984375,-195.53257751464844,-16.626998901367188
1751013495435044600,8.816044677734375,-390.76190185546875,-195.48492431640625,-16.879501342773438
1751013495445085400,8.82608544921875,-390.8880310058594,-195.57028198242188,-16.625411987304688
1751013495455127600,8.83612744140625,-390.6004333496094,-195.70541381835938,-16.87353515625
1751013495465169700,8.846169677734375,-390.7045593261719,-195.5279541015625,-16.666976928710938
1751013495475212500,8.856212646484375,-390.0478515625,-195.51536560058594,-16.427139282226562
1751013495485254400,8.86625439453125,-390.52001953125,-195.21890258789062,-16.548431396484375
1751013495495296500,8.876296630859375,-390.80340576171875,-195.7286834716797,-16.34320068359375
1751013495505337600,8.886337646484375,-390.78521728515625,-195.17770385742188,-16.421600341796875
1751013495515378400,8.89637841796875,-390.3392639160156,-195.4536895751953,-16.79010009765625
1751013495525420500,8.906420654296875,-390.2209167480469,-195.62982177734375,-16.611053466796875
1751013495535463700,8.916463623046875,-390.3424987792969,-195.294189453125,-16.444137573242188
1751013495545504500,8.92650439453125,-390.25732421875,-195.47987365722656,-16.606857299804688
1751013495555546600,8.936546630859375,-389.98138427734375,-195.39157104492188,-16.342559814453125
1751013495565586700,8.946586669921874,-390.11260986328125,-195.39862060546875,-16.680770874023438
1751013495575627500,8.95662744140625,-390.0697021484375,-195.23228454589844,-16.461639404296875
1751013495585667600,8.96666748046875,-389.82269287109375,-195.23728942871094,-16.5474853515625
1751013495595708700,8.976708740234375,-389.9917907714844,-195.59823608398438,-16.599700927734375
1751013495605750500,8.98675048828125,-390.5526123046875,-195.543212890625,-16.606048583984375
1751013495615790600,8.99679052734375,-390.661865234375,-195.373046875,-16.617782592773438
1751013495625831700,9.006831787109375,-390.60723876953125,-195.3809051513672,-16.538543701171875
1751013495635873500,9.01687353515625,-390.1667785644531,-195.22503662109375,-16.401687622070312
1751013495645914600,9.02691455078125,-390.0286865234375,-195.36903381347656,-16.465377807617188
1751013495655956500,9.03695654296875,-390.40570068359375,-195.47735595703125,-16.635208129882812
1751013495665997600,9.04699755859375,-390.4450988769531,-195.51803588867188,-16.482803344726562
1751013495676038400,9.057038330078125,-390.7668151855469,-195.31533813476562,-16.224502563476562
1751013495686080500,9.06708056640625,-391.06292724609375,-195.26669311523438,-16.533599853515625
1751013495696122600,9.07712255859375,-390.6880798339844,-195.3435516357422,-16.29541015625
1751013495706164500,9.08716455078125,-390.68603515625,-194.84544372558594,-16.513885498046875
1751013495716206600,9.09720654296875,-391.0565185546875,-195.2696533203125,-16.705520629882812
1751013495726248400,9.10724853515625,-390.74420166015625,-195.27464294433594,-16.468017578125
1751013495736290600,9.11729052734375,-390.72833251953125,-195.1001739501953,-16.500350952148438
1751013495746333700,9.127333740234375,-390.7606201171875,-195.3061981201172,-16.64276123046875
1751013495756377300,9.13737744140625,-390.7099609375,-195.6651153564453,-16.767471313476562
1751013495766418400,9.14741845703125,-390.7684326171875,-195.1063232421875,-16.494659423828125
1751013495776460500,9.15746044921875,-390.54638671875,-195.2400665283203,-16.841903686523438
1751013495786502700,9.167502685546875,-390.46661376953125,-195.1326141357422,-16.555145263671875
1751013495796543500,9.17754345703125,-390.1124572753906,-195.3042755126953,-16.537994384765625
1751013495806584600,9.18758447265625,-391.01531982421875,-195.3202362060547,-16.821365356445312
1751013495816625700,9.197625732421875,-390.8581237792969,-195.35983276367188,-16.716506958007812
1751013495826667500,9.20766748046875,-390.6730651855469,-195.201904296875,-16.927398681640625
1751013495836708600,9.21770849609375,-391.11688232421875,-195.26736450195312,-16.891845703125
1751013495846750500,9.22775048828125,-390.5682678222656,-195.10707092285156,-16.79290771484375
1751013495856791600,9.23779150390625,-390.46795654296875,-195.2121124267578,-16.816787719726562
1751013495866833700,9.247833740234375,-390.66119384765625,-195.261474609375,-16.70916748046875
1751013495876874800,9.257874755859374,-390.3782958984375,-195.318603515625,-16.797744750976562
1751013495886915600,9.26791552734375,-391.12945556640625,-195.13111877441406,-16.491073608398438
1751013495896957700,9.277957763671875,-390.7872009277344,-195.4988250732422,-16.664566040039062
1751013495906998500,9.28799853515625,-390.69818115234375,-195.26461791992188,-16.764129638671875
1751013495917038600,9.29803857421875,-391.0484619140625,-195.3319854736328,-16.722930908203125
1751013495927080700,9.308080810546874,-390.61212158203125,-195.31256103515625,-16.452835083007812
1751013495937121500,9.31812158203125,-390.2010498046875,-195.1215362548828,-16.58221435546875
1751013495947162600,9.32816259765625,-390.6746826171875,-195.18695068359375,-16.601806640625
1751013495957203700,9.33820361328125,-391.09149169921875,-195.32705688476562,-16.365264892578125
1751013495967244500,9.34824462890625,-391.0125732421875,-195.5240478515625,-16.740676879882812
1751013495977285600,9.35828564453125,-390.55645751953125,-195.3571319580078,-16.563095092773438
1751013495987326700,9.36832666015625,-390.049072265625,-195.48500061035156,-16.327651977539062
1751013495997366800,9.37836669921875,-391.0538330078125,-195.60072326660156,-16.623489379882812
1751013496007401500,9.3884013671875,-390.6638488769531,-195.51541137695312,-16.5709228515625
1751013496017446400,9.3984462890625,-390.62310791015625,-195.31964111328125,-16.656814575195312
1751013496027487500,9.408487548828125,-390.59130859375,-195.4855499267578,-16.720657348632812
1751013496037527600,9.418527587890624,-391.049560546875,-195.3017120361328,-16.232650756835938
1751013496047568600,9.428568603515625,-391.12353515625,-195.17056274414062,-16.263626098632812
1751013496057610500,9.438610595703125,-391.0885009765625,-195.453857421875,-16.338333129882812
1751013496067651600,9.448651611328126,-390.67449951171875,-195.58993530273438,-16.685623168945312
1751013496077692400,9.4586923828125,-390.94622802734375,-195.5222625732422,-16.374923706054688
1751013496087733500,9.4687333984375,-390.65728759765625,-195.38092041015625,-16.67852783203125
1751013496097774600,9.478774658203125,-390.40447998046875,-195.45574951171875,-16.68988037109375
1751013496107815400,9.4888154296875,-390.6956787109375,-195.33741760253906,-16.659500122070312
1751013496117856500,9.4988564453125,-390.26397705078125,-195.3938446044922,-16.63421630859375
1751013496127895600,9.5088955078125,-390.537353515625,-195.47854614257812,-16.631973266601562
1751013496137931500,9.518931640625,-390.31988525390625,-195.11911010742188,-16.689712524414062
1751013496147977500,9.5289775390625,-390.6802978515625,-195.268310546875,-16.69287109375
1751013496158018600,9.5390185546875,-390.74267578125,-195.5850830078125,-16.4295654296875
1751013496168059600,9.5490595703125,-390.45465087890625,-195.64947509765625,-16.736618041992188
1751013496178099700,9.559099609375,-390.5562744140625,-195.51004028320312,-16.604049682617188
1751013496188140500,9.569140625,-390.8059387207031,-195.5582275390625,-16.8031005859375
1751013496198181600,9.579181640625,-390.7486572265625,-195.44525146484375,-16.613693237304688
1751013496208222700,9.58922265625,-390.5457763671875,-195.15890502929688,-16.857391357421875
1751013496218263600,9.599263671875,-390.5044860839844,-195.3755340576172,-16.459457397460938
1751013496228303600,9.6093037109375,-390.32904052734375,-195.4821319580078,-16.791213989257812
1751013496238345700,9.619345703125,-390.86065673828125,-195.6769561767578,-16.580825805664062
1751013496248387600,9.6293876953125,-390.41864013671875,-195.35780334472656,-16.532516479492188
1751013496258429400,9.639429443359376,-390.5336608886719,-195.8249969482422,-16.69720458984375
1751013496268471600,9.649471435546875,-390.6656494140625,-195.5678253173828,-16.657424926757812
1751013496278513700,9.659513671875,-390.57952880859375,-195.5006103515625,-16.725173950195312
1751013496288555500,9.669555419921876,-390.79937744140625,-195.7043914794922,-16.685134887695312
1751013496298597600,9.67959765625,-390.7870788574219,-195.25802612304688,-16.436172485351562
1751013496308640500,9.689640625,-390.877197265625,-195.25692749023438,-16.716140747070312
1751013496318681600,9.699681640625,-390.5833435058594,-195.17074584960938,-16.473861694335938
1751013496328724700,9.709724853515626,-390.5022277832031,-195.40650939941406,-16.466293334960938
1751013496338766600,9.7197666015625,-390.563232421875,-195.14768981933594,-16.813812255859375
1751013496348804400,9.729804443359376,-390.93994140625,-195.25753784179688,-16.230606079101562
1751013496358852600,9.7398525390625,-390.5453186035156,-195.29335021972656,-16.874588012695312
1751013496368894500,9.74989453125,-390.6530456542969,-195.2987823486328,-16.582717895507812
1751013496378936600,9.7599365234375,-390.10906982421875,-195.04095458984375,-16.28240966796875
1751013496388978400,9.769978515625,-390.26129150390625,-195.400634765625,-16.513656616210938
1751013496399021600,9.780021484375,-390.0618896484375,-195.1373748779297,-16.453262329101562
1751013496409054700,9.7900546875,-390.4797058105469,-195.25799560546875,-16.640594482421875
1751013496419099000,9.800098876953125,-390.229248046875,-194.859375,-16.44488525390625
1751013496429140700,9.810140625,-390.3458251953125,-195.09536743164062,-16.1947021484375
1751013496439183600,9.82018359375,-390.47869873046875,-194.97286987304688,-16.20703125
1751013496449225700,9.830225830078126,-390.2896728515625,-195.49337768554688,-16.4075927734375
1751013496459273700,9.840273681640625,-390.1124267578125,-195.41400146484375,-16.679840087890625
1751013496469314800,9.850314697265626,-390.3127136230469,-195.37701416015625,-16.389892578125
1751013496479357700,9.860357666015625,-390.54144287109375,-195.25338745117188,-16.676666259765625
1751013496489399600,9.870399658203125,-390.24664306640625,-195.27700805664062,-16.313385009765625
1751013496499442000,9.88044189453125,-390.2767639160156,-195.41017150878906,-16.526885986328125
1751013496509483800,9.89048388671875,-390.4593200683594,-195.59930419921875,-16.59112548828125
1751013496519526000,9.90052587890625,-390.76422119140625,-195.17767333984375,-16.526962280273438
1751013496529566700,9.910566650390624,-390.4900817871094,-195.54278564453125,-16.5985107421875
1751013496539607800,9.92060791015625,-390.50238037109375,-195.259521484375,-16.421798706054688
1751013496549648600,9.930648681640625,-390.2921447753906,-195.50714111328125,-16.579055786132812
1751013496559691800,9.94069189453125,-390.62152099609375,-195.2444305419922,-16.758377075195312
1751013496569734000,9.95073388671875,-390.37042236328125,-195.23635864257812,-16.674835205078125
1751013496579775700,9.960775634765625,-390.3315124511719,-195.27996826171875,-16.834381103515625
1751013496589817900,9.97081787109375,-390.52191162109375,-195.455078125,-16.732192993164062
1751013496599858700,9.980858642578125,-390.58734130859375,-195.4658966064453,-16.583541870117188
1751013496609899800,9.990899658203125,-390.825439453125,-195.67147827148438,-16.695571899414062
1751013496619941600,10.000941650390626,-390.41717529296875,-194.97731018066406,-16.669021606445312
1751013496629983700,10.010983642578125,-390.62109375,-195.4517059326172,-16.442245483398438
1751013496640024600,10.021024658203125,-390.23870849609375,-195.1601104736328,-16.718490600585938
1751013496650066000,10.03106591796875,-390.06549072265625,-194.99093627929688,-16.830459594726562
1751013496660107800,10.041107666015625,-390.6081848144531,-195.1211700439453,-16.793609619140625
1751013496670150000,10.05114990234375,-390.66876220703125,-195.0795135498047,-16.816497802734375
1751013496680190700,10.061190673828126,-391.0718994140625,-195.0404510498047,-16.916549682617188
1751013496690228700,10.071228759765624,-391.19598388671875,-194.97906494140625,-16.680679321289062
1751013496700271900,10.08127197265625,-390.68389892578125,-195.1961669921875,-16.511962890625
1751013496710319900,10.09131982421875,-390.8199462890625,-195.30117797851562,-16.619964599609375
1751013496720361700,10.10136181640625,-390.89044189453125,-195.28282165527344,-16.749343872070312
1751013496730403600,10.111403564453125,-391.05413818359375,-195.16806030273438,-16.855545043945312
1751013496740446000,10.121446044921875,-390.6243896484375,-195.3568572998047,-16.657913208007812
1751013496750488800,10.13148876953125,-390.2477111816406,-195.23423767089844,-16.435134887695312
1751013496760530700,10.14153076171875,-390.6241149902344,-194.86834716796875,-16.614959716796875
1751013496770572500,10.151572509765625,-390.52294921875,-195.34336853027344,-16.669036865234375
1751013496780609800,10.16160986328125,-390.8005065917969,-195.3856201171875,-16.536224365234375
1751013496790652000,10.17165185546875,-390.340087890625,-195.14657592773438,-16.618301391601562
1751013496800699600,10.18169970703125,-390.8526306152344,-195.4183807373047,-16.859725952148438
1751013496810741800,10.19174169921875,-390.71417236328125,-195.24514770507812,-16.33929443359375
1751013496820785000,10.201784912109375,-390.7522888183594,-195.32070922851562,-16.721572875976562
1751013496830826800,10.21182666015625,-390.64385986328125,-195.1332244873047,-16.906295776367188
1751013496840869600,10.22186962890625,-390.68243408203125,-195.23561096191406,-16.808395385742188
1751013496850911700,10.231911865234375,-390.35772705078125,-195.1046905517578,-16.470458984375
1751013496860953900,10.241953857421874,-390.7216796875,-195.3693084716797,-16.628021240234375
1751013496870994700,10.25199462890625,-390.38177490234375,-195.4375457763672,-16.711898803710938
1751013496881034000,10.262033935546874,-390.97210693359375,-195.3089141845703,-16.418136596679688
1751013496891073800,10.27207373046875,-390.781005859375,-195.74212646484375,-16.923431396484375
1751013496901114600,10.282114501953124,-390.9739990234375,-195.33009338378906,-16.723114013671875
1751013496911155700,10.29215576171875,-390.4711608886719,-195.29226684570312,-16.616439819335938
1751013496921194800,10.30219482421875,-390.6901550292969,-195.08950805664062,-16.382537841796875
1751013496931235800,10.31223583984375,-390.71917724609375,-195.45228576660156,-16.381378173828125
1751013496941276000,10.32227587890625,-391.04937744140625,-195.03746032714844,-16.470489501953125
1751013496951316700,10.332316650390625,-390.95941162109375,-195.08753967285156,-16.793441772460938
1751013496961356800,10.342356689453124,-390.76739501953125,-195.24407958984375,-16.7799072265625
1751013496971395800,10.352395751953125,-390.6505126953125,-195.10154724121094,-16.720245361328125
1751013496981435000,10.362434814453126,-390.6050109863281,-195.26036071777344,-16.764694213867188
1751013496991475700,10.372475830078125,-390.7841796875,-195.2673797607422,-16.882888793945312
1751013497001515800,10.382515869140626,-390.60113525390625,-195.29730224609375,-16.744003295898438
1751013497011555600,10.3925556640625,-390.42840576171875,-195.32568359375,-16.723388671875
1751013497021595600,10.402595703125,-390.70904541015625,-195.356201171875,-16.793365478515625
1751013497031636700,10.41263671875,-390.79827880859375,-195.5338897705078,-16.810089111328125
1751013497041676800,10.4226767578125,-390.73779296875,-195.20596313476562,-16.520492553710938
1751013497051717600,10.432717529296875,-390.7664794921875,-195.16754150390625,-16.523849487304688
1751013497061757000,10.4427568359375,-391.32891845703125,-195.23211669921875,-16.587997436523438
1751013497071797800,10.4527978515625,-390.5309753417969,-195.3168487548828,-16.456314086914062
1751013497081838800,10.4628388671875,-391.3756408691406,-195.4847412109375,-16.6339111328125
1751013497091880000,10.4728798828125,-391.0934753417969,-195.29934692382812,-16.817138671875
1751013497101921800,10.482921875,-390.7038879394531,-195.37867736816406,-16.7425537109375
1751013497111963000,10.492962890625,-391.1466979980469,-195.16656494140625,-16.6734619140625
1751013497122004700,10.503004638671875,-390.70733642578125,-195.32427978515625,-16.788177490234375
1751013497132045800,10.5130458984375,-390.7388916015625,-195.3147430419922,-16.8756103515625
1751013497142087700,10.523087646484376,-391.05560302734375,-195.3009033203125,-17.10308837890625
1751013497152128800,10.533128662109375,-390.5022888183594,-194.9794158935547,-16.864837646484375
1751013497162169600,10.543169677734374,-391.2987060546875,-195.324951171875,-16.90533447265625
1751013497172210700,10.553210693359375,-390.8214111328125,-194.88107299804688,-16.505355834960938
1751013497182251800,10.563251708984374,-390.60418701171875,-195.37722778320312,-16.804183959960938
1751013497192292600,10.573292724609376,-390.49725341796875,-195.17147827148438,-16.7149658203125
1751013497202333700,10.583333740234375,-391.1086730957031,-195.2124481201172,-16.64654541015625
1751013497212376800,10.593376953125,-390.6854553222656,-195.0998992919922,-16.633071899414062
1751013497222414800,10.603414794921875,-390.77227783203125,-195.2759552001953,-16.608856201171875
1751013497232458000,10.6134580078125,-390.0417785644531,-195.2857208251953,-16.367019653320312
1751013497242505700,10.623505615234375,-390.61053466796875,-195.12400817871094,-16.663482666015625
1751013497252548600,10.633548583984375,-390.4168701171875,-195.12081909179688,-16.445953369140625
1751013497262591000,10.643591064453124,-390.20526123046875,-195.64089965820312,-16.3680419921875
1751013497272632800,10.6536328125,-390.54754638671875,-195.56394958496094,-16.32440185546875
1751013497282674700,10.6636748046875,-390.0643005371094,-195.7963409423828,-16.283554077148438
1751013497292717600,10.673717529296875,-390.592041015625,-195.2329864501953,-16.421218872070312
1751013497302760000,10.683760009765624,-390.68707275390625,-195.3953399658203,-16.676528930664062
1751013497312801800,10.6938017578125,-390.61859130859375,-194.82591247558594,-16.442092895507812
1751013497322844000,10.703843994140625,-389.8976745605469,-195.36862182617188,-16.34716796875
1751013497332884700,10.713884765625,-390.46044921875,-195.2175750732422,-16.314727783203125
