time,seconds_elapsed,z,y,x
1751013432334585300,0.11558544921875,-1.012054443359375,-0.1535491943359375,0.0053863525390625
1751013432344527400,0.12552734375,-1.017486572265625,-0.1548309326171875,0.00164794921875
1751013432354470100,0.13547021484375,-1.0202178955078125,-0.15533447265625,-0.0013580322265625
1751013432364414200,0.145414306640625,-1.0238189697265625,-0.15679931640625,-0.00030517578125
1751013432374357200,0.155357177734375,-1.021820068359375,-0.1602325439453125,-0.002899169921875
1751013432384300300,0.16530029296875,-1.021209716796875,-0.16192626953125,-0.00335693359375
1751013432394243300,0.175243408203125,-1.0235443115234375,-0.158416748046875,0.00018310546875
1751013432404186400,0.185186279296875,-1.0233306884765625,-0.1537017822265625,0.005157470703125
1751013432414130200,0.195130126953125,-1.0193634033203125,-0.1511993408203125,0.00872802734375
1751013432424073200,0.2050732421875,-1.0154266357421875,-0.151763916015625,0.0112762451171875
1751013432434016300,0.215016357421875,-1.0109710693359375,-0.1519927978515625,0.0085296630859375
1751013432443959300,0.224959228515625,-1.0073699951171875,-0.153106689453125,0.006134033203125
1751013432453903000,0.234903076171875,-1.0028228759765625,-0.1536102294921875,0.0088653564453125
1751013432463846100,0.24484619140625,-1.004364013671875,-0.155059814453125,0.0126495361328125
1751013432473789200,0.2547890625,-1.007232666015625,-0.156829833984375,0.0112762451171875
1751013432483732200,0.264732177734375,-1.0065155029296875,-0.15936279296875,0.01068115234375
1751013432493675300,0.27467529296875,-1.0044097900390625,-0.1581573486328125,0.0164337158203125
1751013432503619000,0.284619140625,-1.0055389404296875,-0.156402587890625,0.0243377685546875
1751013432513562000,0.29456201171875,-1.0011444091796875,-0.1560211181640625,0.026397705078125
1751013432523505200,0.304505126953125,-0.996551513671875,-0.155181884765625,0.0245208740234375
1751013432533448200,0.3144482421875,-0.9943084716796875,-0.1529083251953125,0.02398681640625
1751013432543391200,0.32439111328125,-0.9932861328125,-0.1542205810546875,0.0229339599609375
1751013432553335300,0.334335205078125,-0.992767333984375,-0.155364990234375,0.0249786376953125
1751013432563278000,0.344278076171875,-0.9921112060546875,-0.156036376953125,0.0271148681640625
1751013432573221000,0.35422119140625,-0.99212646484375,-0.158905029296875,0.029815673828125
1751013432583164200,0.3641640625,-0.993377685546875,-0.1607666015625,0.0286102294921875
1751013432593108200,0.374108154296875,-0.9974517822265625,-0.1602630615234375,0.02813720703125
1751013432603051300,0.38405126953125,-1.003875732421875,-0.1591339111328125,0.025177001953125
1751013432612994300,0.393994384765625,-1.005096435546875,-0.156982421875,0.026824951171875
1751013432622937000,0.40393701171875,-1.000213623046875,-0.153717041015625,0.0289764404296875
1751013432632880000,0.413880126953125,-0.9990081787109375,-0.1519317626953125,0.029449462890625
1751013432642824200,0.42382421875,-1.000030517578125,-0.1540069580078125,0.0312652587890625
1751013432652767200,0.433767333984375,-0.9987335205078125,-0.156219482421875,0.0331878662109375
1751013432662710300,0.443710205078125,-0.993072509765625,-0.15484619140625,0.0347137451171875
1751013432672653300,0.4536533203125,-0.9911651611328125,-0.1534271240234375,0.0392913818359375
1751013432682597000,0.46359716796875,-0.9937744140625,-0.154327392578125,0.04412841796875
1751013432692540200,0.4735400390625,-0.994537353515625,-0.155670166015625,0.0423126220703125
1751013432702483200,0.483483154296875,-1.0005645751953125,-0.1562042236328125,0.0411376953125
1751013432712426200,0.49342626953125,-1.0041656494140625,-0.1581268310546875,0.041717529296875
1751013432722369300,0.503369384765625,-1.0064239501953125,-0.161529541015625,0.03875732421875
1751013432732313000,0.51331298828125,-1.0119171142578125,-0.1629638671875,0.040771484375
1751013432742256000,0.523256103515625,-1.0168304443359375,-0.1665191650390625,0.0403289794921875
1751013432752199200,0.53319921875,-1.0194549560546875,-0.16455078125,0.0390167236328125
1751013432762142200,0.54314208984375,-1.0248260498046875,-0.15972900390625,0.036956787109375
1751013432772085200,0.553085205078125,-1.03045654296875,-0.15771484375,0.03948974609375
1751013432782029000,0.563029052734375,-1.034942626953125,-0.1615753173828125,0.04254150390625
1751013432791972000,0.57297216796875,-1.033538818359375,-0.1667022705078125,0.04522705078125
1751013432801915100,0.5829150390625,-1.0303955078125,-0.1690826416015625,0.0429229736328125
1751013432811858200,0.592858154296875,-1.0174713134765625,-0.1693878173828125,0.0376434326171875
1751013432821802200,0.60280224609375,-1.0047760009765625,-0.16845703125,0.0384521484375
1751013432831745000,0.6127451171875,-0.9972686767578125,-0.1703033447265625,0.0431671142578125
1751013432841688000,0.62268798828125,-0.9957733154296875,-0.17388916015625,0.0525054931640625
1751013432851631000,0.632631103515625,-0.9893035888671875,-0.1783294677734375,0.0581512451171875
1751013432861574100,0.64257421875,-0.9834442138671875,-0.1804351806640625,0.057769775390625
1751013432871518200,0.652518310546875,-0.979705810546875,-0.182403564453125,0.0555419921875
1751013432881461200,0.662461181640625,-0.97943115234375,-0.18670654296875,0.0550994873046875
1751013432891404000,0.672404052734375,-0.9813385009765625,-0.1887054443359375,0.0570220947265625
1751013432901347000,0.68234716796875,-0.9841766357421875,-0.189422607421875,0.06134033203125
1751013432911290000,0.6922900390625,-0.98028564453125,-0.1896820068359375,0.0614013671875
1751013432921234200,0.702234130859375,-0.97796630859375,-0.1882476806640625,0.0585784912109375
1751013432931177200,0.71217724609375,-0.97320556640625,-0.18682861328125,0.0554962158203125
1751013432941120300,0.722120361328125,-0.9691009521484375,-0.18841552734375,0.0561676025390625
1751013432951063000,0.73206298828125,-0.9660797119140625,-0.1905364990234375,0.0594635009765625
1751013432961007000,0.742007080078125,-0.965240478515625,-0.192840576171875,0.0604095458984375
1751013432970950100,0.7519501953125,-0.9721527099609375,-0.1947021484375,0.0562591552734375
1751013432980893200,0.76189306640625,-0.978851318359375,-0.1967010498046875,0.0537261962890625
1751013432990836200,0.771836181640625,-0.9847564697265625,-0.1974029541015625,0.054412841796875
1751013433000779300,0.781779296875,-0.9907073974609375,-0.196441650390625,0.0566558837890625
1751013433010723000,0.79172314453125,-0.989410400390625,-0.193328857421875,0.0557098388671875
1751013433020666000,0.801666015625,-0.9830780029296875,-0.1910400390625,0.05230712890625
1751013433030609200,0.811609130859375,-0.9817352294921875,-0.1892852783203125,0.0513458251953125
1751013433040552200,0.82155224609375,-0.9857177734375,-0.1868438720703125,0.0529632568359375
1751013433050496300,0.831496337890625,-0.988677978515625,-0.1869049072265625,0.0544891357421875
1751013433060439000,0.84143896484375,-0.990570068359375,-0.1865997314453125,0.05023193359375
1751013433070382000,0.851382080078125,-0.991607666015625,-0.1834259033203125,0.0488739013671875
1751013433080325000,0.8613251953125,-1.0007476806640625,-0.1843719482421875,0.053558349609375
1751013433090268200,0.87126806640625,-1.0071868896484375,-0.1857147216796875,0.0547943115234375
1751013433100212200,0.881212158203125,-1.003692626953125,-0.182403564453125,0.0533447265625
1751013433110155000,0.891155029296875,-0.999114990234375,-0.1763763427734375,0.0491485595703125
1751013433120098000,0.90109814453125,-0.999481201171875,-0.1757354736328125,0.0495452880859375
1751013433130041000,0.911041015625,-1.0019378662109375,-0.17694091796875,0.0538482666015625
1751013433139985400,0.9209853515625,-1.0007171630859375,-0.176666259765625,0.0543365478515625
1751013433149928400,0.930928466796875,-1.0001068115234375,-0.1732177734375,0.0509796142578125
1751013433159871200,0.940871337890625,-1.002685546875,-0.1728057861328125,0.051513671875
1751013433169814000,0.95081396484375,-1.0048828125,-0.1760101318359375,0.0508880615234375
1751013433179757000,0.960757080078125,-1.0018157958984375,-0.1772918701171875,0.0512237548828125
1751013433189701400,0.970701416015625,-1.000152587890625,-0.177947998046875,0.051605224609375
1751013433199644400,0.98064453125,-1.0009002685546875,-0.17901611328125,0.0502777099609375
1751013433209587500,0.99058740234375,-0.999542236328125,-0.1834259033203125,0.0500030517578125
1751013433219530000,1.000530029296875,-0.995025634765625,-0.1868438720703125,0.04937744140625
1751013433229473000,1.01047314453125,-0.9904937744140625,-0.1864013671875,0.04644775390625
1751013433239417300,1.020417236328125,-0.99371337890625,-0.1895294189453125,0.0445556640625
1751013433249360400,1.0303603515625,-0.993011474609375,-0.19488525390625,0.043792724609375
1751013433259303400,1.040303466796875,-0.988006591796875,-0.1971588134765625,0.0434112548828125
1751013433269246500,1.05024658203125,-0.9853515625,-0.1952667236328125,0.041015625
1751013433279190300,1.060190185546875,-0.986114501953125,-0.194610595703125,0.0419921875
1751013433289133300,1.07013330078125,-0.9864959716796875,-0.196380615234375,0.0421295166015625
1751013433299076400,1.080076416015625,-0.98779296875,-0.1971435546875,0.0391082763671875
1751013433309019400,1.090019287109375,-0.9866485595703125,-0.198211669921875,0.0386505126953125
1751013433318962400,1.09996240234375,-0.980377197265625,-0.198028564453125,0.0379486083984375
1751013433328906200,1.10990625,-0.9753570556640625,-0.1975250244140625,0.0342254638671875
1751013433338849300,1.119849365234375,-0.9764251708984375,-0.1970062255859375,0.034149169921875
1751013433348792300,1.129792236328125,-0.980926513671875,-0.196990966796875,0.035491943359375
1751013433358735400,1.1397353515625,-0.98895263671875,-0.19500732421875,0.03582763671875
1751013433368679200,1.14967919921875,-0.9920501708984375,-0.19366455078125,0.0358734130859375
1751013433378622200,1.159622314453125,-0.994873046875,-0.1914520263671875,0.0346527099609375
1751013433388565200,1.169565185546875,-0.996368408203125,-0.189483642578125,0.0339202880859375
1751013433398508300,1.17950830078125,-0.9972381591796875,-0.1880645751953125,0.03179931640625
1751013433408451300,1.189451416015625,-0.9933013916015625,-0.18756103515625,0.028839111328125
1751013433418395400,1.1993955078125,-0.9887847900390625,-0.1850433349609375,0.0278778076171875
1751013433428338200,1.209338134765625,-0.9903717041015625,-0.183349609375,0.0299224853515625
1751013433438281200,1.21928125,-0.9961395263671875,-0.1839599609375,0.0329132080078125
1751013433448224300,1.229224365234375,-0.99969482421875,-0.18463134765625,0.038299560546875
1751013433458167300,1.239167236328125,-1.0001678466796875,-0.185546875,0.0391845703125
1751013433468111400,1.249111328125,-0.9990234375,-0.1854095458984375,0.038543701171875
1751013433478054400,1.259054443359375,-0.998382568359375,-0.185272216796875,0.036468505859375
1751013433487997200,1.2689970703125,-0.9984283447265625,-0.1868896484375,0.0351104736328125
1751013433497940200,1.278940185546875,-0.9984893798828125,-0.187469482421875,0.033843994140625
1751013433507884300,1.28888427734375,-0.9990234375,-0.1861572265625,0.0333099365234375
1751013433517827300,1.298827392578125,-1.0014495849609375,-0.1866302490234375,0.03466796875
1751013433527770400,1.308770263671875,-1.0055084228515625,-0.187255859375,0.0360870361328125
1751013433537713400,1.31871337890625,-1.0079345703125,-0.1871795654296875,0.032806396484375
1751013433547656200,1.32865625,-1.007476806640625,-0.1868438720703125,0.0307769775390625
1751013433557600300,1.338600341796875,-1.0079193115234375,-0.187835693359375,0.0319671630859375
1751013433567543300,1.348543212890625,-1.0077972412109375,-0.1881103515625,0.034820556640625
1751013433577486300,1.358486328125,-1.0059051513671875,-0.1878204345703125,0.035247802734375
1751013433587429400,1.368429443359375,-1.0058746337890625,-0.1863861083984375,0.036041259765625
1751013433597373200,1.378373291015625,-1.004852294921875,-0.18768310546875,0.036346435546875
1751013433607316200,1.388316162109375,-1.0002288818359375,-0.1881561279296875,0.03350830078125
1751013433617259300,1.39825927734375,-0.9975738525390625,-0.1887359619140625,0.034454345703125
1751013433627202300,1.408202392578125,-0.995361328125,-0.1896514892578125,0.0339202880859375
1751013433637145300,1.418145263671875,-0.9973602294921875,-0.1897125244140625,0.03363037109375
1751013433647089200,1.428089111328125,-0.9981689453125,-0.19256591796875,0.0352783203125
1751013433657032200,1.4380322265625,-0.996612548828125,-0.19561767578125,0.0349884033203125
1751013433666975200,1.447975341796875,-0.9945068359375,-0.195068359375,0.0340423583984375
1751013433676918300,1.457918212890625,-0.9918212890625,-0.193328857421875,0.03173828125
1751013433686862300,1.4678623046875,-0.99224853515625,-0.1942138671875,0.0313568115234375
1751013433696805000,1.47780517578125,-0.9917449951171875,-0.1949005126953125,0.0312652587890625
1751013433706748200,1.487748046875,-0.9910430908203125,-0.194580078125,0.0324249267578125
1751013433716691200,1.497691162109375,-0.993438720703125,-0.1934814453125,0.0352630615234375
1751013433726634200,1.50763427734375,-0.992034912109375,-0.19287109375,0.0362396240234375
1751013433736578600,1.51757861328125,-0.9896392822265625,-0.1926727294921875,0.034149169921875
1751013433746521300,1.527521240234375,-0.99169921875,-0.192138671875,0.0331573486328125
1751013433756464000,1.537464111328125,-0.99078369140625,-0.191192626953125,0.0342254638671875
1751013433766407200,1.5474072265625,-0.98919677734375,-0.189544677734375,0.0342864990234375
1751013433776351500,1.5573515625,-0.990875244140625,-0.18719482421875,0.03350830078125
1751013433786294500,1.56729443359375,-0.993408203125,-0.18670654296875,0.0334930419921875
1751013433796237300,1.5772373046875,-0.9951629638671875,-0.18853759765625,0.0334930419921875
1751013433806180400,1.587180419921875,-0.994842529296875,-0.1881866455078125,0.0326690673828125
1751013433816123100,1.597123046875,-0.994140625,-0.18756103515625,0.03326416015625
1751013433826067500,1.6070673828125,-0.9906005859375,-0.1869659423828125,0.03375244140625
1751013433836010500,1.617010498046875,-0.991058349609375,-0.187896728515625,0.0337066650390625
1751013433845953500,1.62695361328125,-0.991668701171875,-0.189056396484375,0.0356597900390625
1751013433855896300,1.636896240234375,-0.989044189453125,-0.189117431640625,0.0364837646484375
1751013433865839400,1.64683935546875,-0.9860076904296875,-0.188140869140625,0.0356597900390625
1751013433875783400,1.656783447265625,-0.9874725341796875,-0.1873626708984375,0.03656005859375
1751013433885726500,1.6667265625,-0.9915618896484375,-0.1881561279296875,0.034149169921875
1751013433895669500,1.67666943359375,-0.9908294677734375,-0.190643310546875,0.0327301025390625
1751013433905612300,1.6866123046875,-0.9926300048828125,-0.19244384765625,0.029571533203125
1751013433915556400,1.696556396484375,-0.990997314453125,-0.1919708251953125,0.0297393798828125
1751013433925499400,1.70649951171875,-0.99224853515625,-0.1922607421875,0.031005859375
1751013433935442400,1.7164423828125,-0.9911651611328125,-0.191436767578125,0.030731201171875
1751013433945385500,1.726385498046875,-0.9903106689453125,-0.191192626953125,0.03326416015625
1751013433955328500,1.73632861328125,-0.9940643310546875,-0.1905364990234375,0.0331573486328125
1751013433965272300,1.746272216796875,-0.9980010986328125,-0.1896820068359375,0.031005859375
1751013433975215400,1.75621533203125,-0.997894287109375,-0.1887664794921875,0.029144287109375
1751013433985158400,1.766158447265625,-0.997344970703125,-0.18853759765625,0.0291900634765625
1751013433995101400,1.776101318359375,-0.9978485107421875,-0.1905670166015625,0.0297698974609375
1751013434005045500,1.78604541015625,-0.9983062744140625,-0.1912384033203125,0.0311431884765625
1751013434014988500,1.795988525390625,-0.99798583984375,-0.1917266845703125,0.0343170166015625
1751013434024931300,1.805931396484375,-0.993988037109375,-0.190826416015625,0.033905029296875
1751013434034874400,1.815874267578125,-0.9928741455078125,-0.18951416015625,0.0362701416015625
1751013434044817400,1.8258173828125,-0.994720458984375,-0.18951416015625,0.037567138671875
1751013434054761500,1.835761474609375,-0.995849609375,-0.1888275146484375,0.037017822265625
1751013434064704500,1.84570458984375,-0.9968719482421875,-0.188385009765625,0.0362091064453125
1751013434074647600,1.8556474609375,-0.9941253662109375,-0.190277099609375,0.0348663330078125
1751013434084590300,1.86559033203125,-0.9955291748046875,-0.1923675537109375,0.034942626953125
1751013434094534400,1.875534423828125,-0.9976348876953125,-0.1935272216796875,0.034515380859375
1751013434104477400,1.8854775390625,-0.99908447265625,-0.19317626953125,0.03289794921875
1751013434114420500,1.89542041015625,-1.000823974609375,-0.190826416015625,0.034698486328125
1751013434124363500,1.905363525390625,-1.00048828125,-0.1911468505859375,0.0348358154296875
1751013434134306300,1.915306396484375,-0.9997711181640625,-0.192962646484375,0.03411865234375
1751013434144250400,1.92525048828125,-0.99395751953125,-0.1925811767578125,0.036102294921875
1751013434154193400,1.935193359375,-0.9908905029296875,-0.1906585693359375,0.0367431640625
1751013434164136400,1.945136474609375,-0.9907379150390625,-0.1889190673828125,0.039642333984375
1751013434174079500,1.95507958984375,-0.989593505859375,-0.186553955078125,0.0411224365234375
1751013434184022500,1.9650224609375,-0.9899444580078125,-0.18646240234375,0.0420989990234375
1751013434193966300,1.97496630859375,-0.9895172119140625,-0.1866607666015625,0.0404205322265625
1751013434203909400,1.984909423828125,-0.98956298828125,-0.187774658203125,0.03570556640625
1751013434213852400,1.994852294921875,-0.9930572509765625,-0.1876220703125,0.0341644287109375
1751013434223795500,2.00479541015625,-0.9950103759765625,-0.1906890869140625,0.0355682373046875
1751013434233739300,2.0147392578125,-0.99847412109375,-0.1915435791015625,0.0366363525390625
1751013434243682300,2.024682373046875,-0.998687744140625,-0.1906890869140625,0.0361785888671875
1751013434253625300,2.034625244140625,-0.99774169921875,-0.1903076171875,0.03594970703125
1751013434263568400,2.044568359375,-0.9967498779296875,-0.1888275146484375,0.0370941162109375
1751013434273511400,2.054511474609375,-0.99908447265625,-0.188720703125,0.038604736328125
1751013434283455500,2.06445556640625,-0.9976959228515625,-0.1904144287109375,0.03790283203125
1751013434293398300,2.074398193359375,-0.9940643310546875,-0.1903076171875,0.0334930419921875
1751013434303341300,2.08434130859375,-0.9962005615234375,-0.189971923828125,0.0350189208984375
1751013434313284400,2.094284423828125,-0.9995574951171875,-0.1922454833984375,0.039794921875
1751013434323228400,2.104228515625,-1.000701904296875,-0.193603515625,0.0409393310546875
1751013434333171500,2.11417138671875,-1.0013580322265625,-0.193145751953125,0.0393829345703125
1751013434343114500,2.124114501953125,-0.9977264404296875,-0.191680908203125,0.0360565185546875
1751013434353057500,2.1340576171875,-0.995574951171875,-0.1929779052734375,0.03363037109375
1751013434363000600,2.14400048828125,-0.9944000244140625,-0.193145751953125,0.0313873291015625
1751013434372944600,2.153944580078125,-0.9930572509765625,-0.19244384765625,0.0293121337890625
1751013434382887700,2.1638876953125,-0.9927215576171875,-0.19189453125,0.0306243896484375
1751013434392830700,2.173830810546875,-0.9952392578125,-0.1914825439453125,0.0331573486328125
1751013434402773500,2.1837734375,-0.9912109375,-0.190399169921875,0.03228759765625
1751013434412717600,2.193717529296875,-0.9898681640625,-0.18927001953125,0.0309295654296875
1751013434422660600,2.20366064453125,-0.9913787841796875,-0.187652587890625,0.03204345703125
1751013434432603600,2.213603759765625,-0.991485595703125,-0.1886138916015625,0.0297088623046875
1751013434442546700,2.223546630859375,-0.989532470703125,-0.18853759765625,0.0262603759765625
1751013434452489700,2.23348974609375,-0.99151611328125,-0.18878173828125,0.02557373046875
1751013434462433500,2.24343359375,-0.9922943115234375,-0.189910888671875,0.027313232421875
1751013434472376600,2.25337646484375,-0.991241455078125,-0.18798828125,0.02960205078125
1751013434482319600,2.263319580078125,-0.9911956787109375,-0.1880035400390625,0.0286865234375
1751013434492262700,2.2732626953125,-0.986083984375,-0.1880340576171875,0.02984619140625
1751013434502206500,2.28320654296875,-0.9848785400390625,-0.191650390625,0.0348663330078125
1751013434512149500,2.2931494140625,-0.9808197021484375,-0.1935577392578125,0.0338592529296875
1751013434522092500,2.303092529296875,-0.97607421875,-0.193206787109375,0.0335540771484375
1751013434532035600,2.31303564453125,-0.977752685546875,-0.1928253173828125,0.0353240966796875
1751013434541978600,2.322978515625,-0.9822540283203125,-0.194122314453125,0.0374298095703125
1751013434551922400,2.33292236328125,-0.9853057861328125,-0.197418212890625,0.0379638671875
1751013434561865500,2.342865478515625,-0.9869384765625,-0.19744873046875,0.0362548828125
1751013434571808500,2.35280859375,-0.9902801513671875,-0.1967926025390625,0.039459228515625
1751013434581751600,2.36275146484375,-0.9906158447265625,-0.19769287109375,0.0405731201171875
1751013434591695600,2.372695556640625,-0.9921417236328125,-0.19671630859375,0.0378265380859375
1751013434601638700,2.382638671875,-0.99114990234375,-0.1952362060546875,0.0355987548828125
1751013434611581400,2.39258154296875,-0.9958343505859375,-0.1946563720703125,0.0371246337890625
1751013434621524500,2.4025244140625,-1.002899169921875,-0.1946563720703125,0.041961669921875
1751013434631467500,2.412467529296875,-1.004241943359375,-0.1938018798828125,0.0425567626953125
1751013434641411600,2.42241162109375,-1.0045013427734375,-0.192657470703125,0.039031982421875
1751013434651354600,2.432354736328125,-1.00799560546875,-0.1897430419921875,0.0381317138671875
1751013434661297700,2.442297607421875,-1.0134124755859375,-0.18798828125,0.0402069091796875
1751013434671240400,2.452240478515625,-1.0174560546875,-0.1865386962890625,0.03985595703125
1751013434681184500,2.4621845703125,-1.0189666748046875,-0.1840362548828125,0.0364837646484375
1751013434691127600,2.47212744140625,-1.02203369140625,-0.1810302734375,0.03411865234375
1751013434701070600,2.482070556640625,-1.0253753662109375,-0.17828369140625,0.03326416015625
1751013434711013600,2.492013671875,-1.025665283203125,-0.177001953125,0.0329437255859375
1751013434720956700,2.501956787109375,-1.0214996337890625,-0.1747894287109375,0.032318115234375
1751013434730900500,2.511900390625,-1.0168304443359375,-0.1719512939453125,0.0316314697265625
1751013434740843500,2.521843505859375,-1.0122833251953125,-0.1717376708984375,0.03143310546875
1751013434750786600,2.53178662109375,-1.0117950439453125,-0.1716766357421875,0.0341339111328125
1751013434760729600,2.5417294921875,-1.0128021240234375,-0.1739501953125,0.0358428955078125
1751013434770673400,2.55167333984375,-1.0081024169921875,-0.174407958984375,0.035125732421875
1751013434780616400,2.561616455078125,-1.0047149658203125,-0.174774169921875,0.0364227294921875
1751013434790559500,2.5715595703125,-1.0053558349609375,-0.174591064453125,0.038970947265625
1751013434800502500,2.58150244140625,-1.007293701171875,-0.1754150390625,0.0419769287109375
1751013434810445600,2.591445556640625,-1.006500244140625,-0.17529296875,0.042236328125
1751013434820389600,2.6013896484375,-1.00152587890625,-0.175994873046875,0.042236328125
1751013434830332400,2.61133251953125,-0.999755859375,-0.174835205078125,0.041107177734375
1751013434840275500,2.621275390625,-0.9946441650390625,-0.1762847900390625,0.0382843017578125
1751013434850218500,2.631218505859375,-0.9893035888671875,-0.1789703369140625,0.038177490234375
1751013434860162600,2.64116259765625,-0.9884033203125,-0.1826171875,0.0412139892578125
1751013434870105600,2.651105712890625,-0.990264892578125,-0.1871185302734375,0.04571533203125
1751013434880048600,2.661048583984375,-0.9912109375,-0.190399169921875,0.0478057861328125
1751013434889991400,2.670991455078125,-0.9913330078125,-0.1909027099609375,0.0495758056640625
1751013434899934500,2.6809345703125,-0.993316650390625,-0.1889495849609375,0.04815673828125
1751013434909878500,2.69087841796875,-0.99505615234375,-0.1888427734375,0.0471954345703125
1751013434919821600,2.700821533203125,-0.9900970458984375,-0.1891937255859375,0.046173095703125
1751013434929764600,2.7107646484375,-0.9869384765625,-0.186767578125,0.0462799072265625
1751013434939707400,2.720707275390625,-0.983856201171875,-0.1857757568359375,0.0455169677734375
1751013434949651500,2.7306513671875,-0.9807891845703125,-0.1856842041015625,0.0480804443359375
1751013434959594500,2.740594482421875,-0.9834136962890625,-0.18450927734375,0.0485076904296875
1751013434969537500,2.75053759765625,-0.9852752685546875,-0.1842803955078125,0.0512847900390625
1751013434979480600,2.76048046875,-0.9839935302734375,-0.186676025390625,0.051788330078125
1751013434989423600,2.770423583984375,-0.98077392578125,-0.1889495849609375,0.052581787109375
1751013434999367400,2.780367431640625,-0.977264404296875,-0.190093994140625,0.050994873046875
1751013435009310500,2.790310546875,-0.9755706787109375,-0.190093994140625,0.0486297607421875
1751013435019253500,2.80025341796875,-0.9769134521484375,-0.190216064453125,0.0464324951171875
1751013435029196500,2.810196533203125,-0.9793701171875,-0.1916351318359375,0.0472869873046875
1751013435039140400,2.820140380859375,-0.979400634765625,-0.192626953125,0.049713134765625
1751013435049083400,2.83008349609375,-0.9825286865234375,-0.1918182373046875,0.04986572265625
1751013435059026400,2.8400263671875,-0.9889678955078125,-0.1903076171875,0.0506591796875
1751013435068969500,2.849969482421875,-0.9918365478515625,-0.190948486328125,0.0469512939453125
1751013435078912500,2.85991259765625,-0.990966796875,-0.1907196044921875,0.0440826416015625
1751013435088856600,2.869856689453125,-0.9909210205078125,-0.1894683837890625,0.0443115234375
1751013435098799400,2.87979931640625,-0.9881591796875,-0.1900482177734375,0.04296875
1751013435108742400,2.889742431640625,-0.98663330078125,-0.1914825439453125,0.0423126220703125
1751013435118685400,2.899685546875,-0.9904022216796875,-0.191558837890625,0.042144775390625
1751013435128629500,2.90962939453125,-0.9920806884765625,-0.1947021484375,0.042755126953125
1751013435138572500,2.919572509765625,-0.9931640625,-0.1996612548828125,0.043182373046875
1751013435148515600,2.929515625,-0.99517822265625,-0.2014007568359375,0.04327392578125
1751013435158458400,2.939458251953125,-0.9972381591796875,-0.202056884765625,0.0453643798828125
1751013435168401400,2.9494013671875,-1.0008087158203125,-0.20294189453125,0.0443267822265625
1751013435178345500,2.959345458984375,-0.9996795654296875,-0.2012786865234375,0.042022705078125
1751013435188288500,2.96928857421875,-0.99603271484375,-0.1962890625,0.04034423828125
1751013435198231600,2.9792314453125,-0.9977874755859375,-0.192413330078125,0.0391082763671875
1751013435208174600,2.989174560546875,-0.99749755859375,-0.1901702880859375,0.0415191650390625
1751013435218118400,2.999118408203125,-0.997711181640625,-0.1906585693359375,0.04278564453125
1751013435228061400,3.0090615234375,-0.9996490478515625,-0.1901397705078125,0.0431976318359375
1751013435238004500,3.01900439453125,-1.001739501953125,-0.189849853515625,0.0449371337890625
1751013435247947500,3.028947509765625,-1.00421142578125,-0.1912994384765625,0.0455780029296875
1751013435257890600,3.038890625,-1.0039520263671875,-0.192413330078125,0.043243408203125
1751013435267834400,3.04883447265625,-1.003662109375,-0.1903533935546875,0.0426025390625
1751013435277777400,3.05877734375,-1.0022430419921875,-0.1911163330078125,0.042144775390625
1751013435287720400,3.068720458984375,-1.0014801025390625,-0.1927642822265625,0.0428009033203125
1751013435297663500,3.07866357421875,-0.998443603515625,-0.193756103515625,0.0446319580078125
1751013435307607300,3.088607177734375,-0.9925689697265625,-0.1947479248046875,0.0447540283203125
1751013435317550300,3.09855029296875,-0.986846923828125,-0.196746826171875,0.04425048828125
1751013435327493400,3.108493408203125,-0.9867401123046875,-0.1978912353515625,0.046478271484375
1751013435337436400,3.1184365234375,-0.987335205078125,-0.198272705078125,0.048614501953125
1751013435347379200,3.128379150390625,-0.98577880859375,-0.1976776123046875,0.050262451171875
1751013435357323300,3.1383232421875,-0.9850311279296875,-0.1952362060546875,0.0504150390625
1751013435367266300,3.148266357421875,-0.9854888916015625,-0.1939849853515625,0.0506744384765625
1751013435377209000,3.158208984375,-0.9892120361328125,-0.192657470703125,0.051025390625
1751013435387152100,3.168152099609375,-0.9935455322265625,-0.1894989013671875,0.0519866943359375
1751013435397096200,3.17809619140625,-0.995391845703125,-0.1896209716796875,0.0543365478515625
1751013435407039200,3.188039306640625,-0.9958648681640625,-0.1910552978515625,0.055419921875
1751013435416982300,3.197982177734375,-0.9921722412109375,-0.191162109375,0.0568084716796875
1751013435426925000,3.207925048828125,-0.9901580810546875,-0.191436767578125,0.0576934814453125
1751013435436868000,3.2178681640625,-0.9889068603515625,-0.1926422119140625,0.057098388671875
1751013435446812200,3.227812255859375,-0.9910125732421875,-0.192413330078125,0.0588226318359375
1751013435456755200,3.237755126953125,-0.9924163818359375,-0.1932830810546875,0.05938720703125
1751013435466698200,3.2476982421875,-0.99334716796875,-0.1955718994140625,0.0589599609375
1751013435476641300,3.257641357421875,-0.99310302734375,-0.19769287109375,0.0580902099609375
1751013435486585300,3.26758544921875,-0.994384765625,-0.1981353759765625,0.0563201904296875
1751013435496528100,3.277528076171875,-0.99627685546875,-0.1951446533203125,0.05535888671875
1751013435506471200,3.28747119140625,-0.9965362548828125,-0.193878173828125,0.056793212890625
1751013435516414200,3.297414306640625,-0.9952239990234375,-0.1945343017578125,0.05487060546875
1751013435526357200,3.307357177734375,-0.9899139404296875,-0.1935577392578125,0.0531768798828125
1751013435536301300,3.31730126953125,-0.988067626953125,-0.1923675537109375,0.055877685546875
1751013435546244400,3.327244384765625,-0.98809814453125,-0.1920318603515625,0.055328369140625
1751013435556187100,3.337187255859375,-0.9870758056640625,-0.1925506591796875,0.0542755126953125
1751013435566130200,3.347130126953125,-0.9892730712890625,-0.1951446533203125,0.05426025390625
1751013435576074200,3.35707421875,-0.9922637939453125,-0.1959686279296875,0.053802490234375
1751013435586017300,3.367017333984375,-0.9970550537109375,-0.196990966796875,0.055206298828125
1751013435595960300,3.376960205078125,-0.996978759765625,-0.1983489990234375,0.052398681640625
1751013435605903000,3.386903076171875,-0.996246337890625,-0.1967315673828125,0.049835205078125
1751013435615846100,3.39684619140625,-0.997650146484375,-0.193389892578125,0.0499725341796875
1751013435625790500,3.40679052734375,-0.997344970703125,-0.1895294189453125,0.048675537109375
1751013435635733200,3.416733154296875,-0.99420166015625,-0.1872100830078125,0.0478668212890625
1751013435645676300,3.42667626953125,-0.9935760498046875,-0.1869049072265625,0.047637939453125
1751013435655619300,3.436619384765625,-0.9970703125,-0.1894989013671875,0.0491943359375
1751013435665563400,3.4465634765625,-0.9975433349609375,-0.1928863525390625,0.050201416015625
1751013435675506400,3.45650634765625,-0.99407958984375,-0.1954345703125,0.05096435546875
1751013435685449500,3.466449462890625,-0.9933319091796875,-0.1952056884765625,0.05224609375
1751013435695392300,3.476392333984375,-0.991973876953125,-0.19622802734375,0.053741455078125
1751013435705335300,3.486335205078125,-0.99163818359375,-0.1973114013671875,0.052032470703125
1751013435715279400,3.496279296875,-0.9930267333984375,-0.1964569091796875,0.0494232177734375
1751013435725222400,3.506222412109375,-0.9920501708984375,-0.1947479248046875,0.0482177734375
1751013435735165400,3.51616552734375,-0.992828369140625,-0.1943511962890625,0.0476531982421875
1751013435745108500,3.5261083984375,-0.9948577880859375,-0.194915771484375,0.04656982421875
1751013435755052300,3.53605224609375,-0.995361328125,-0.193450927734375,0.0440216064453125
1751013435764995300,3.545995361328125,-0.997711181640625,-0.1914825439453125,0.045501708984375
1751013435774938400,3.5559384765625,-0.9944915771484375,-0.19012451171875,0.04644775390625
1751013435784881400,3.56588134765625,-0.99298095703125,-0.1905517578125,0.04693603515625
1751013435794824400,3.575824462890625,-0.9919281005859375,-0.19036865234375,0.049560546875
1751013435804768300,3.585768310546875,-0.9904937744140625,-0.19110107421875,0.052703857421875
1751013435814711300,3.595711181640625,-0.9914093017578125,-0.19281005859375,0.05419921875
1751013435824654300,3.605654296875,-0.9929656982421875,-0.1937408447265625,0.0554046630859375
1751013435834597400,3.615597412109375,-0.995574951171875,-0.193572998046875,0.0560150146484375
1751013435844541200,3.625541259765625,-0.9953460693359375,-0.1940460205078125,0.0534515380859375
1751013435854484200,3.635484130859375,-0.993133544921875,-0.193511962890625,0.05078125
1751013435864427300,3.64542724609375,-0.99346923828125,-0.192474365234375,0.0487060546875
1751013435874370300,3.655370361328125,-0.993682861328125,-0.1918182373046875,0.04541015625
1751013435884314400,3.665314453125,-0.99261474609375,-0.1922607421875,0.0418548583984375
1751013435894257400,3.67525732421875,-0.9907989501953125,-0.195068359375,0.0419158935546875
1751013435904200200,3.6852001953125,-0.989471435546875,-0.1978302001953125,0.0442962646484375
1751013435914143200,3.695143310546875,-0.9866485595703125,-0.1989593505859375,0.0467376708984375
1751013435924086300,3.705086181640625,-0.98895263671875,-0.1986846923828125,0.048095703125
1751013435934030300,3.7150302734375,-0.9894866943359375,-0.2004241943359375,0.0475311279296875
1751013435943973400,3.724973388671875,-0.98834228515625,-0.2014923095703125,0.0455322265625
1751013435953916400,3.73491650390625,-0.98858642578125,-0.201446533203125,0.0456695556640625
1751013435963859200,3.744859130859375,-0.9910888671875,-0.201751708984375,0.0443115234375
1751013435973802200,3.75480224609375,-0.993133544921875,-0.200927734375,0.041412353515625
1751013435983746300,3.764746337890625,-0.99224853515625,-0.198822021484375,0.040496826171875
1751013435993689300,3.774689453125,-0.9931182861328125,-0.1969757080078125,0.0435333251953125
1751013436003632400,3.78463232421875,-0.9953460693359375,-0.194244384765625,0.043792724609375
1751013436013575400,3.794575439453125,-0.9937286376953125,-0.192535400390625,0.043853759765625
1751013436023519200,3.804519287109375,-0.995849609375,-0.191619873046875,0.045745849609375
1751013436033462300,3.814462158203125,-1.00054931640625,-0.190399169921875,0.0484466552734375
1751013436043405300,3.8244052734375,-1.00079345703125,-0.1893768310546875,0.050323486328125
1751013436053348400,3.834348388671875,-0.9983367919921875,-0.1895751953125,0.0486907958984375
1751013436063292200,3.844292236328125,-0.9954833984375,-0.190185546875,0.0463714599609375
1751013436073235200,3.854235107421875,-0.9959869384765625,-0.192138671875,0.046173095703125
1751013436083178200,3.86417822265625,-0.99700927734375,-0.19256591796875,0.0472869873046875
1751013436093121300,3.874121337890625,-0.9985504150390625,-0.1933441162109375,0.0470123291015625
1751013436103064300,3.884064208984375,-0.9994049072265625,-0.196746826171875,0.048248291015625
1751013436113008400,3.89400830078125,-0.9990234375,-0.1988525390625,0.0478515625
1751013436122951200,3.903951171875,-0.996795654296875,-0.198028564453125,0.045074462890625
1751013436132894200,3.913894287109375,-0.990264892578125,-0.19561767578125,0.0423736572265625
1751013436142837200,3.923837158203125,-0.9901275634765625,-0.1934356689453125,0.0423126220703125
1751013436152781300,3.93378125,-0.9909515380859375,-0.19281005859375,0.0432891845703125
1751013436162724400,3.943724365234375,-0.98974609375,-0.1945648193359375,0.0424652099609375
1751013436172667400,3.95366748046875,-0.98931884765625,-0.19610595703125,0.0395355224609375
1751013436182610200,3.963610107421875,-0.9920806884765625,-0.1965789794921875,0.039825439453125
1751013436192553200,3.97355322265625,-0.992431640625,-0.1979522705078125,0.0430755615234375
1751013436202497300,3.983497314453125,-0.9956512451171875,-0.1971435546875,0.0447845458984375
1751013436212440300,3.9934404296875,-0.9970855712890625,-0.1955718994140625,0.0444793701171875
1751013436222383400,4.00338330078125,-0.994781494140625,-0.19451904296875,0.039642333984375
1751013436232326100,4.013326171875,-0.996124267578125,-0.1943817138671875,0.037506103515625
1751013436242270200,4.023270263671875,-0.9962158203125,-0.194580078125,0.037872314453125
1751013436252213200,4.033213134765625,-0.9920654296875,-0.194549560546875,0.03802490234375
1751013436262156300,4.04315625,-0.9857330322265625,-0.1945953369140625,0.039642333984375
1751013436272099300,4.053099365234375,-0.983367919921875,-0.1934356689453125,0.042083740234375
1751013436282042400,4.06304248046875,-0.988250732421875,-0.1931610107421875,0.0446014404296875
1751013436291986200,4.072986083984375,-0.99005126953125,-0.1939239501953125,0.04583740234375
1751013436301929200,4.08292919921875,-0.989410400390625,-0.1948394775390625,0.04583740234375
1751013436311872300,4.092872314453125,-0.9873809814453125,-0.1961669921875,0.0448760986328125
1751013436321815300,4.102815185546875,-0.9884796142578125,-0.1967315673828125,0.0413360595703125
1751013436331759000,4.112759033203125,-0.9921417236328125,-0.195159912109375,0.038726806640625
1751013436341702100,4.1227021484375,-0.9934844970703125,-0.1952972412109375,0.039794921875
1751013436351645200,4.132645263671875,-0.9904022216796875,-0.195770263671875,0.0410919189453125
1751013436361588200,4.142588134765625,-0.9897003173828125,-0.1967010498046875,0.0445098876953125
1751013436371531300,4.15253125,-0.9921112060546875,-0.196441650390625,0.0457305908203125
1751013436381475300,4.162475341796875,-0.9918670654296875,-0.1966094970703125,0.0463104248046875
1751013436391418400,4.17241845703125,-0.9904632568359375,-0.1974945068359375,0.046783447265625
1751013436401361400,4.182361328125,-0.9901123046875,-0.196685791015625,0.04779052734375
1751013436411304200,4.19230419921875,-0.99267578125,-0.1939544677734375,0.046630859375
1751013436421248500,4.20224853515625,-0.9942474365234375,-0.1938934326171875,0.0436859130859375
1751013436431191600,4.212191650390625,-0.9962615966796875,-0.1940155029296875,0.042694091796875
1751013436441134300,4.22213427734375,-0.9990997314453125,-0.1946868896484375,0.041778564453125
1751013436451077400,4.232077392578125,-1.0007781982421875,-0.19549560546875,0.0418243408203125
1751013436461020200,4.242020263671875,-1.0022125244140625,-0.1951904296875,0.0427093505859375
1751013436470964500,4.251964599609375,-1.002593994140625,-0.1956939697265625,0.041961669921875
1751013436480907500,4.261907470703125,-0.9998321533203125,-0.1963958740234375,0.0428009033203125
1751013436490850600,4.2718505859375,-0.9955902099609375,-0.197113037109375,0.0419769287109375
1751013436500793300,4.28179345703125,-0.9940032958984375,-0.1982269287109375,0.0413818359375
1751013436510737400,4.2917373046875,-0.992645263671875,-0.19805908203125,0.0391082763671875
1751013436520680400,4.301680419921875,-0.993438720703125,-0.1975250244140625,0.0394439697265625
1751013436530623500,4.31162353515625,-0.9939117431640625,-0.1996002197265625,0.0405426025390625
1751013436540566500,4.32156640625,-0.9938812255859375,-0.200714111328125,0.0386810302734375
1751013436550510300,4.33151025390625,-0.9970855712890625,-0.199188232421875,0.03857421875
1751013436560453400,4.341453369140625,-0.996795654296875,-0.19805908203125,0.039215087890625
1751013436570396400,4.351396484375,-0.996490478515625,-0.197784423828125,0.0380706787109375
1751013436580339500,4.36133935546875,-0.9980010986328125,-0.195159912109375,0.03851318359375
1751013436590282500,4.371282470703125,-0.9973602294921875,-0.1923828125,0.039794921875
1751013436600226300,4.381226318359375,-0.9975433349609375,-0.192047119140625,0.0414581298828125
1751013436610169300,4.39116943359375,-0.996368408203125,-0.1924896240234375,0.0409393310546875
1751013436620112400,4.4011123046875,-0.9976654052734375,-0.19122314453125,0.03973388671875
1751013436630055400,4.411055419921875,-0.996368408203125,-0.191619873046875,0.0419158935546875
1751013436639999500,4.42099951171875,-0.994659423828125,-0.1925048828125,0.0439910888671875
1751013436649942300,4.4309423828125,-0.993408203125,-0.19091796875,0.042999267578125
1751013436659885300,4.44088525390625,-0.991546630859375,-0.18927001953125,0.0438385009765625
1751013436669828400,4.450828369140625,-0.9911651611328125,-0.1899871826171875,0.0426177978515625
1751013436679771400,4.460771484375,-0.9897003173828125,-0.1906585693359375,0.04071044921875
1751013436689715500,4.470715576171875,-0.9891357421875,-0.1907196044921875,0.041290283203125
1751013436699658500,4.480658447265625,-0.9904327392578125,-0.190277099609375,0.0413055419921875
1751013436709601300,4.490601318359375,-0.992279052734375,-0.1919097900390625,0.0395050048828125
1751013436719544300,4.50054443359375,-0.9934844970703125,-0.1939849853515625,0.040069580078125
1751013436729488400,4.51048828125,-0.9931640625,-0.1941375732421875,0.0406494140625
1751013436739431400,4.520431396484375,-0.9937896728515625,-0.193878173828125,0.039947509765625
1751013436749374500,4.53037451171875,-0.994384765625,-0.193756103515625,0.039093017578125
1751013436759317500,4.5403173828125,-0.9934234619140625,-0.1924896240234375,0.0387420654296875
1751013436769260300,4.55026025390625,-0.9921722412109375,-0.189605712890625,0.0396728515625
1751013436779204400,4.560204345703125,-0.99688720703125,-0.187835693359375,0.0431671142578125
1751013436789147400,4.5701474609375,-1.0018157958984375,-0.186767578125,0.0447235107421875
1751013436799090400,4.58009033203125,-1.000732421875,-0.1872406005859375,0.043212890625
1751013436809033500,4.590033447265625,-1.0004730224609375,-0.1865997314453125,0.0425872802734375
1751013436818977300,4.599977294921875,-0.998260498046875,-0.18670654296875,0.042999267578125
1751013436828920300,4.60992041015625,-0.9931793212890625,-0.1876678466796875,0.04364013671875
1751013436838863400,4.61986328125,-0.9892730712890625,-0.189697265625,0.047119140625
1751013436848806400,4.629806396484375,-0.992095947265625,-0.1898345947265625,0.050384521484375
1751013436858749400,4.63974951171875,-0.9964599609375,-0.189910888671875,0.054229736328125
1751013436868693200,4.649693359375,-0.99639892578125,-0.188720703125,0.0518341064453125
1751013436878636300,4.65963623046875,-0.9965667724609375,-0.1885223388671875,0.048431396484375
1751013436888579300,4.669579345703125,-0.9983367919921875,-0.1894989013671875,0.04620361328125
1751013436898522400,4.6795224609375,-0.9975738525390625,-0.1898193359375,0.045562744140625
1751013436908466400,4.689466552734375,-0.9935302734375,-0.1897430419921875,0.04461669921875
1751013436918409500,4.699409423828125,-0.990264892578125,-0.18939208984375,0.0458221435546875
1751013436928352300,4.709352294921875,-0.991668701171875,-0.189788818359375,0.046356201171875
1751013436938295300,4.71929541015625,-0.9917144775390625,-0.1909027099609375,0.04974365234375
1751013436948238300,4.72923828125,-0.9915771484375,-0.1916046142578125,0.0541839599609375
1751013436958182400,4.739182373046875,-0.9886474609375,-0.19366455078125,0.0590362548828125
1751013436968125400,4.74912548828125,-0.9871978759765625,-0.190185546875,0.052215576171875
1751013436978068200,4.759068115234375,-0.9983978271484375,-0.1848907470703125,0.043426513671875
1751013436988011300,4.76901123046875,-0.997833251953125,-0.184478759765625,0.04931640625
1751013436997955300,4.778955322265625,-0.9981842041015625,-0.1840057373046875,0.054443359375
1751013437007898400,4.7888984375,-0.9942626953125,-0.1818695068359375,0.0516815185546875
1751013437017841400,4.79884130859375,-0.9899444580078125,-0.179718017578125,0.04644775390625
1751013437027784400,4.808784423828125,-0.9941864013671875,-0.1804046630859375,0.0446929931640625
1751013437037728300,4.818728271484375,-0.9979095458984375,-0.1810150146484375,0.0480499267578125
1751013437047671300,4.82867138671875,-0.9977264404296875,-0.1815948486328125,0.048370361328125
1751013437057614300,4.8386142578125,-0.99578857421875,-0.1809844970703125,0.0478363037109375
1751013437067557400,4.848557373046875,-0.9966888427734375,-0.1827239990234375,0.0476226806640625
1751013437077500400,4.85850048828125,-0.999267578125,-0.185791015625,0.0482025146484375
1751013437087444200,4.8684443359375,-0.9981536865234375,-0.1882781982421875,0.0485687255859375
1751013437097387300,4.87838720703125,-0.9940032958984375,-0.1879730224609375,0.048553466796875
1751013437107330300,4.888330322265625,-0.9947052001953125,-0.1871185302734375,0.048004150390625
1751013437117273300,4.8982734375,-0.998748779296875,-0.1865081787109375,0.0481414794921875
1751013437127217400,4.908217529296875,-0.9969329833984375,-0.188385009765625,0.0458984375
1751013437137160200,4.91816015625,-0.9942779541015625,-0.1887054443359375,0.04547119140625
1751013437147103200,4.928103271484375,-0.9906768798828125,-0.1887664794921875,0.0455474853515625
1751013437157046300,4.93804638671875,-0.9898223876953125,-0.1902313232421875,0.0469207763671875
1751013437166989300,4.9479892578125,-0.991424560546875,-0.1911163330078125,0.0481414794921875
1751013437176933400,4.957933349609375,-0.9919281005859375,-0.1905517578125,0.048858642578125
1751013437186876400,4.96787646484375,-0.9927825927734375,-0.1888427734375,0.04840087890625
1751013437196819200,4.977819091796875,-0.995330810546875,-0.1903839111328125,0.0478057861328125
1751013437206762200,4.98776220703125,-0.9948577880859375,-0.189422607421875,0.0477142333984375
1751013437216706300,4.997706298828125,-0.9940032958984375,-0.1890411376953125,0.047515869140625
1751013437226649300,5.0076494140625,-0.9958038330078125,-0.187896728515625,0.0480194091796875
1751013437236592400,5.01759228515625,-1.0022430419921875,-0.186126708984375,0.050201416015625
1751013437246535400,5.027535400390625,-1.0054168701171875,-0.1854705810546875,0.0512237548828125
1751013437256479200,5.037479248046875,-1.00152587890625,-0.18450927734375,0.0498199462890625
1751013437266422300,5.04742236328125,-0.9998626708984375,-0.181671142578125,0.0502777099609375
1751013437276365300,5.057365234375,-0.9985504150390625,-0.1811065673828125,0.0488128662109375
1751013437286308400,5.067308349609375,-0.994384765625,-0.1807861328125,0.0481109619140625
1751013437296251400,5.07725146484375,-0.993194580078125,-0.1791534423828125,0.0463714599609375
1751013437306195200,5.0871953125,-0.9945526123046875,-0.1803436279296875,0.0464324951171875
1751013437316138200,5.09713818359375,-0.998779296875,-0.1856842041015625,0.0499114990234375
1751013437326081300,5.107081298828125,-1.00091552734375,-0.1877899169921875,0.0479583740234375
1751013437336024300,5.1170244140625,-1.002410888671875,-0.1855010986328125,0.04718017578125
1751013437345968000,5.126968017578125,-1.0035400390625,-0.18585205078125,0.047943115234375
1751013437355911000,5.136910888671875,-1.0059356689453125,-0.1862640380859375,0.0484619140625
1751013437365854000,5.14685400390625,-1.00225830078125,-0.187164306640625,0.0473175048828125
1751013437375797000,5.156796875,-0.997161865234375,-0.1861724853515625,0.0460052490234375
1751013437385740000,5.166739990234375,-0.9931488037109375,-0.18511962890625,0.0458831787109375
1751013437395684000,5.17668408203125,-0.9895782470703125,-0.18511962890625,0.04718017578125
1751013437405627100,5.186627197265625,-0.9851226806640625,-0.188201904296875,0.04913330078125
1751013437415570000,5.19656982421875,-0.9818267822265625,-0.1879425048828125,0.0511016845703125
1751013437425513000,5.206512939453125,-0.9862823486328125,-0.1872406005859375,0.0516357421875
1751013437435457000,5.21645703125,-0.9904937744140625,-0.1875,0.051422119140625
1751013437445400000,5.226400146484375,-0.9918060302734375,-0.1882476806640625,0.050994873046875
1751013437455343000,5.236343017578125,-0.9908599853515625,-0.1879730224609375,0.0488739013671875
1751013437465286100,5.2462861328125,-0.9910888671875,-0.1871795654296875,0.0460662841796875
1751013437475230200,5.256230224609375,-0.9945068359375,-0.18768310546875,0.04461669921875
1751013437485173000,5.266173095703125,-0.994537353515625,-0.187225341796875,0.0463104248046875
1751013437495116000,5.276115966796875,-0.993896484375,-0.1864471435546875,0.0454559326171875
1751013437505059000,5.28605908203125,-0.9958343505859375,-0.1851654052734375,0.045440673828125
1751013437515002000,5.296002197265625,-0.996734619140625,-0.1847381591796875,0.0483856201171875
1751013437524946200,5.3059462890625,-0.99517822265625,-0.184356689453125,0.049072265625
1751013437534889000,5.315888916015625,-0.99847412109375,-0.182037353515625,0.0479736328125
1751013437544832000,5.32583203125,-1.0008392333984375,-0.182861328125,0.04718017578125
1751013437554775000,5.335775146484375,-1.0005340576171875,-0.1849365234375,0.0438690185546875
1751013437564719000,5.345718994140625,-1.00103759765625,-0.1842803955078125,0.042999267578125
1751013437574662100,5.355662109375,-1.0047607421875,-0.1824798583984375,0.0440216064453125
1751013437584605200,5.365605224609375,-1.006256103515625,-0.1813201904296875,0.0432281494140625
1751013437594548000,5.3755478515625,-1.001190185546875,-0.1824798583984375,0.0418243408203125
1751013437604492300,5.3854921875,-0.995574951171875,-0.181732177734375,0.0410919189453125
1751013437614435000,5.39543505859375,-0.989715576171875,-0.181488037109375,0.0402069091796875
1751013437624378000,5.405378173828125,-0.9866943359375,-0.1844329833984375,0.041351318359375
1751013437634321200,5.415321044921875,-0.9863128662109375,-0.1880645751953125,0.0404510498046875
1751013437644265200,5.42526513671875,-0.987274169921875,-0.189697265625,0.039947509765625
1751013437654208300,5.435208251953125,-0.988555908203125,-0.1898193359375,0.041778564453125
1751013437664151300,5.4451513671875,-0.9927215576171875,-0.1910400390625,0.040283203125
1751013437674094000,5.455093994140625,-0.995147705078125,-0.192047119140625,0.0389404296875
1751013437684037000,5.465037109375,-0.994781494140625,-0.193145751953125,0.0389251708984375
1751013437693981200,5.474981201171875,-0.9949951171875,-0.1923370361328125,0.039398193359375
1751013437703924200,5.48492431640625,-0.9929656982421875,-0.1906585693359375,0.0395355224609375
1751013437713867300,5.4948671875,-0.9920196533203125,-0.1900787353515625,0.0410003662109375
1751013437723810300,5.504810302734375,-0.992889404296875,-0.1895751953125,0.0433349609375
1751013437733754000,5.514754150390625,-0.9948577880859375,-0.1893768310546875,0.04449462890625
1751013437743697200,5.524697265625,-0.994842529296875,-0.189300537109375,0.0475006103515625
1751013437753640200,5.53464013671875,-0.9968414306640625,-0.189117431640625,0.048797607421875
1751013437763583200,5.544583251953125,-0.9996490478515625,-0.188995361328125,0.0471649169921875
1751013437773527000,5.554527099609375,-1.0039520263671875,-0.187286376953125,0.0457916259765625
1751013437783470000,5.564469970703125,-1.00677490234375,-0.1847686767578125,0.045562744140625
1751013437793413000,5.5744130859375,-1.0072021484375,-0.1839599609375,0.04620361328125
1751013437803356200,5.584356201171875,-1.00604248046875,-0.1834564208984375,0.044189453125
1751013437813300200,5.59430029296875,-1.0056610107421875,-0.1821746826171875,0.044708251953125
1751013437823243300,5.6042431640625,-1.00079345703125,-0.1822509765625,0.0466461181640625
1751013437833186000,5.61418603515625,-0.999053955078125,-0.182891845703125,0.048919677734375
1751013437843129000,5.624129150390625,-1.0023040771484375,-0.1832733154296875,0.0488128662109375
1751013437853072100,5.634072021484375,-1.0022735595703125,-0.184234619140625,0.0494232177734375
1751013437863016200,5.64401611328125,-0.9981842041015625,-0.1854705810546875,0.04888916015625
1751013437872959200,5.653959228515625,-0.997802734375,-0.1855926513671875,0.0502166748046875
1751013437882902300,5.66390234375,-0.9974212646484375,-0.186981201171875,0.0479888916015625
1751013437892845000,5.673844970703125,-0.9923553466796875,-0.1888580322265625,0.0438079833984375
1751013437902789000,5.6837890625,-0.9878997802734375,-0.186798095703125,0.04449462890625
1751013437912732200,5.693732177734375,-0.98626708984375,-0.186553955078125,0.0451202392578125
1751013437922675200,5.70367529296875,-0.987396240234375,-0.1865997314453125,0.0431976318359375
1751013437932618200,5.7136181640625,-0.9871063232421875,-0.185821533203125,0.0430908203125
1751013437942562000,5.72356201171875,-0.9868011474609375,-0.185302734375,0.0405426025390625
1751013437952505000,5.733505126953125,-0.988739013671875,-0.1855316162109375,0.0387725830078125
1751013437962448100,5.7434482421875,-0.9847564697265625,-0.1864776611328125,0.03765869140625
1751013437972391200,5.75339111328125,-0.986480712890625,-0.1868743896484375,0.0380096435546875
1751013437982335000,5.7633349609375,-0.9915618896484375,-0.1873626708984375,0.0387725830078125
1751013437992278000,5.773278076171875,-0.9944305419921875,-0.1874542236328125,0.040496826171875
1751013438002221000,5.783220947265625,-0.99810791015625,-0.18597412109375,0.04327392578125
1751013438012164000,5.7931640625,-0.9967041015625,-0.185516357421875,0.0424652099609375
1751013438022107100,5.803107177734375,-0.996307373046875,-0.1850128173828125,0.0413665771484375
1751013438032051200,5.81305126953125,-0.996368408203125,-0.183746337890625,0.0414276123046875
1751013438041994000,5.822993896484375,-0.9961700439453125,-0.182373046875,0.04034423828125
1751013438051937000,5.83293701171875,-0.9971771240234375,-0.18182373046875,0.0386505126953125
1751013438061880000,5.842880126953125,-0.9971466064453125,-0.1815032958984375,0.0390625
1751013438071824100,5.85282421875,-0.993438720703125,-0.183563232421875,0.0397491455078125
1751013438081767200,5.86276708984375,-0.990264892578125,-0.1862030029296875,0.0410308837890625
1751013438091710200,5.872710205078125,-0.992218017578125,-0.1878509521484375,0.04345703125
1751013438101653000,5.882653076171875,-0.9954681396484375,-0.190765380859375,0.0436859130859375
1751013438111597000,5.89259716796875,-0.999969482421875,-0.1928863525390625,0.0439300537109375
1751013438121540000,5.9025400390625,-1.0036773681640625,-0.1928863525390625,0.04144287109375
1751013438131483100,5.912483154296875,-1.00738525390625,-0.192169189453125,0.0408477783203125
1751013438141426200,5.92242626953125,-1.007843017578125,-0.1909637451171875,0.0384521484375
1751013438151370000,5.932369873046875,-1.0060577392578125,-0.1893157958984375,0.036834716796875
1751013438161313000,5.94231298828125,-1.001220703125,-0.18707275390625,0.037261962890625
1751013438171256000,5.952256103515625,-0.993865966796875,-0.1859130859375,0.0380096435546875
1751013438181199000,5.96219921875,-0.989013671875,-0.1851348876953125,0.039794921875
1751013438191143000,5.972142822265625,-0.9904327392578125,-0.1870880126953125,0.0431365966796875
1751013438201086000,5.9820859375,-0.9935302734375,-0.190338134765625,0.047210693359375
1751013438211029000,5.992029052734375,-0.993194580078125,-0.1938934326171875,0.0481109619140625
1751013438220972000,6.001971923828125,-0.991058349609375,-0.19500732421875,0.04656982421875
1751013438230915000,6.0119150390625,-0.992218017578125,-0.1937103271484375,0.044036865234375
1751013438240859100,6.021859130859375,-0.9942626953125,-0.1913299560546875,0.0441436767578125
1751013438250802000,6.031802001953125,-0.9934234619140625,-0.189666748046875,0.0412750244140625
1751013438260745000,6.041744873046875,-0.9962158203125,-0.1869964599609375,0.03985595703125
1751013438270688000,6.05168798828125,-0.9990692138671875,-0.1868896484375,0.041595458984375
1751013438280632000,6.061632080078125,-0.997894287109375,-0.1871490478515625,0.042236328125
1751013438290575000,6.0715751953125,-0.9970855712890625,-0.1882476806640625,0.042449951171875
1751013438300518100,6.08151806640625,-0.9952545166015625,-0.190155029296875,0.04412841796875
1751013438310461000,6.0914609375,-0.992431640625,-0.1893768310546875,0.043121337890625
1751013438320405000,6.101405029296875,-0.9929351806640625,-0.1876373291015625,0.0443572998046875
1751013438330348000,6.11134814453125,-0.9934539794921875,-0.18896484375,0.0446014404296875
1751013438340291000,6.121291015625,-0.992828369140625,-0.190765380859375,0.0438385009765625
1751013438350234600,6.131234619140625,-0.9933929443359375,-0.1899566650390625,0.0435638427734375
1751013438360178700,6.1411787109375,-0.9955902099609375,-0.1899566650390625,0.0446319580078125
1751013438370121700,6.151121826171875,-0.997894287109375,-0.189300537109375,0.0440521240234375
1751013438380064500,6.161064453125,-0.9973602294921875,-0.188751220703125,0.0436859130859375
1751013438390007600,6.171007568359375,-0.997711181640625,-0.187103271484375,0.0435943603515625
1751013438399951600,6.18095166015625,-0.99884033203125,-0.1870269775390625,0.0435791015625
1751013438409894700,6.190894775390625,-0.9972381591796875,-0.1877288818359375,0.0433197021484375
1751013438419837700,6.200837646484375,-0.99505615234375,-0.188262939453125,0.0430755615234375
1751013438429780500,6.210780517578125,-0.99346923828125,-0.1889190673828125,0.0445098876953125
1751013438439723500,6.2207236328125,-0.993927001953125,-0.1902313232421875,0.04766845703125
1751013438449667600,6.23066748046875,-0.9954071044921875,-0.19122314453125,0.047760009765625
1751013438459610600,6.240610595703125,-0.994110107421875,-0.1898345947265625,0.0462646484375
1751013438469553700,6.2505537109375,-0.9900970458984375,-0.188140869140625,0.047271728515625
1751013438479496700,6.26049658203125,-0.98870849609375,-0.1891326904296875,0.047698974609375
1751013438489440800,6.270440673828125,-0.9851226806640625,-0.191162109375,0.048431396484375
1751013438499383800,6.2803837890625,-0.98907470703125,-0.1879730224609375,0.03875732421875
1751013438509326600,6.29032666015625,-0.988250732421875,-0.1920013427734375,0.0419769287109375
1751013438519269600,6.30026953125,-0.9859619140625,-0.1943359375,0.0509185791015625
1751013438529213700,6.310213623046875,-0.97686767578125,-0.1930389404296875,0.054473876953125
1751013438539156700,6.32015673828125,-0.971649169921875,-0.1914520263671875,0.0506591796875
1751013438549099800,6.330099853515625,-0.977996826171875,-0.1873931884765625,0.0513458251953125
1751013438559042800,6.340042724609375,-0.9812164306640625,-0.1873779296875,0.0552978515625
1751013438568986600,6.349986572265625,-0.974639892578125,-0.186126708984375,0.057220458984375
1751013438578929700,6.3599296875,-0.9670867919921875,-0.1833343505859375,0.05621337890625
1751013438588872700,6.369872802734375,-0.9615478515625,-0.183135986328125,0.0525360107421875
1751013438598815700,6.379815673828125,-0.965911865234375,-0.183197021484375,0.048675537109375
1751013438608759600,6.389759521484375,-0.97119140625,-0.18304443359375,0.047698974609375
1751013438618702600,6.39970263671875,-0.9828338623046875,-0.180419921875,0.0459136962890625
1751013438628645600,6.409645751953125,-0.9993896484375,-0.1784515380859375,0.046112060546875
1751013438638588700,6.419588623046875,-1.00701904296875,-0.1809234619140625,0.0433349609375
1751013438648532700,6.42953271484375,-1.0118865966796875,-0.1822509765625,0.0426025390625
1751013438658475500,6.4394755859375,-1.0154876708984375,-0.18011474609375,0.0435333251953125
1751013438668418600,6.44941845703125,-1.0155487060546875,-0.1778106689453125,0.045562744140625
1751013438678361600,6.459361572265625,-1.0155181884765625,-0.1791839599609375,0.046722412109375
1751013438688305700,6.4693056640625,-1.0130615234375,-0.17950439453125,0.04681396484375
1751013438698248700,6.479248779296875,-1.013336181640625,-0.17913818359375,0.04833984375
1751013438708191700,6.489191650390625,-1.0158843994140625,-0.179351806640625,0.05029296875
1751013438718134500,6.499134521484375,-1.016082763671875,-0.1798248291015625,0.0475616455078125
1751013438728077600,6.50907763671875,-1.013580322265625,-0.17962646484375,0.0456085205078125
1751013438738021600,6.519021728515625,-1.011444091796875,-0.18060302734375,0.0450439453125
1751013438747964700,6.528964599609375,-1.0110931396484375,-0.182861328125,0.047576904296875
1751013438757907700,6.53890771484375,-1.006256103515625,-0.1842193603515625,0.0493621826171875
1751013438767850800,6.548850830078125,-1.00408935546875,-0.186004638671875,0.047698974609375
1751013438777794600,6.558794677734375,-1.0064697265625,-0.1876678466796875,0.0452728271484375
1751013438787737600,6.568737548828125,-1.005096435546875,-0.189605712890625,0.0471038818359375
1751013438797680600,6.5786806640625,-1.0034637451171875,-0.1894378662109375,0.04803466796875
1751013438807623700,6.588623779296875,-1.0011749267578125,-0.1895751953125,0.045928955078125
1751013438817567500,6.5985673828125,-1.000274658203125,-0.188018798828125,0.04595947265625
1751013438827510500,6.608510498046875,-0.9994659423828125,-0.1870574951171875,0.0482025146484375
1751013438837453600,6.61845361328125,-0.995574951171875,-0.18603515625,0.049346923828125
1751013438847396600,6.628396728515625,-0.992889404296875,-0.185028076171875,0.049407958984375
1751013438857340700,6.638340576171875,-0.9913177490234375,-0.1835479736328125,0.0471954345703125
1751013438867283500,6.648283447265625,-0.99041748046875,-0.182708740234375,0.047943115234375
1751013438877226500,6.6582265625,-0.988739013671875,-0.1842041015625,0.0499114990234375
1751013438887169500,6.66816943359375,-0.9888458251953125,-0.1859588623046875,0.05078125
1751013438897113600,6.678113525390625,-0.9947509765625,-0.1832427978515625,0.051666259765625
1751013438907056600,6.688056640625,-0.9961700439453125,-0.1819305419921875,0.0526123046875
1751013438916999700,6.697999755859375,-0.9959564208984375,-0.1809539794921875,0.05322265625
1751013438926942500,6.7079423828125,-0.9950408935546875,-0.17999267578125,0.050750732421875
1751013438936886500,6.717886474609375,-0.9929351806640625,-0.17730712890625,0.05047607421875
1751013438946829600,6.72782958984375,-0.99176025390625,-0.1764678955078125,0.049774169921875
1751013438956772600,6.737772705078125,-0.9927978515625,-0.1754913330078125,0.0490570068359375
1751013438966715600,6.747715576171875,-0.99224853515625,-0.174285888671875,0.05267333984375
1751013438976659500,6.757659423828125,-0.9913330078125,-0.175445556640625,0.0542144775390625
1751013438986602500,6.7676025390625,-0.992279052734375,-0.177032470703125,0.054931640625
1751013438996545500,6.777545654296875,-0.990692138671875,-0.176605224609375,0.053009033203125
1751013439006488600,6.787488525390625,-0.9905853271484375,-0.1753692626953125,0.0518646240234375
1751013439016432600,6.7974326171875,-0.9939422607421875,-0.17462158203125,0.0518035888671875
1751013439026375400,6.80737548828125,-0.9974822998046875,-0.1757965087890625,0.051361083984375
1751013439036318500,6.817318359375,-0.9989013671875,-0.17889404296875,0.051116943359375
1751013439046261500,6.827261474609375,-1,-0.1809539794921875,0.0499420166015625
1751013439056205600,6.83720556640625,-0.9990997314453125,-0.1820068359375,0.0507659912109375
1751013439066148600,6.847148681640625,-1.0006561279296875,-0.1826324462890625,0.049957275390625
1751013439076091600,6.857091552734375,-1.0005035400390625,-0.183990478515625,0.0494232177734375
1751013439086034400,6.867034423828125,-0.9963226318359375,-0.185791015625,0.05023193359375
1751013439095977500,6.8769775390625,-0.995208740234375,-0.1852569580078125,0.052032470703125
1751013439105921500,6.886921630859375,-0.9942474365234375,-0.1861419677734375,0.052978515625
1751013439115864600,6.896864501953125,-0.997100830078125,-0.185638427734375,0.05303955078125
1751013439125807600,6.9068076171875,-1.00152587890625,-0.187286376953125,0.0537261962890625
1751013439135750700,6.916750732421875,-1.0022735595703125,-0.189178466796875,0.0531463623046875
1751013439145694500,6.926694580078125,-1.0004425048828125,-0.190643310546875,0.0513763427734375
1751013439155637500,6.936637451171875,-0.9964752197265625,-0.1910400390625,0.0504302978515625
1751013439165580500,6.94658056640625,-0.9946136474609375,-0.1903076171875,0.05029296875
1751013439175523600,6.956523681640625,-0.9937591552734375,-0.18963623046875,0.052215576171875
1751013439185467400,6.96646728515625,-0.9925994873046875,-0.1907196044921875,0.05560302734375
1751013439195410400,6.976410400390625,-0.9932098388671875,-0.1908721923828125,0.05780029296875
1751013439205353500,6.986353515625,-0.9923248291015625,-0.190948486328125,0.059417724609375
1751013439215296500,6.996296630859375,-0.9949188232421875,-0.1919097900390625,0.0599822998046875
1751013439225240800,7.00624072265625,-0.9979095458984375,-0.191558837890625,0.058380126953125
1751013439235183600,7.01618359375,-0.9986114501953125,-0.1907501220703125,0.0557098388671875
1751013439245126400,7.02612646484375,-0.9964141845703125,-0.1873931884765625,0.0532379150390625
1751013439255069400,7.0360693359375,-1.00384521484375,-0.1831512451171875,0.0581512451171875
1751013439265013800,7.046013671875,-1.002105712890625,-0.1846923828125,0.060943603515625
1751013439274956800,7.055956787109375,-0.9911956787109375,-0.1830596923828125,0.0556182861328125
1751013439284899600,7.065899658203125,-0.9954986572265625,-0.1792144775390625,0.054412841796875
1751013439294842400,7.07584228515625,-0.9965972900390625,-0.1800537109375,0.055816650390625
1751013439304786700,7.08578662109375,-0.992462158203125,-0.1817779541015625,0.05938720703125
1751013439314729700,7.095729736328125,-0.98974609375,-0.1805572509765625,0.0602874755859375
1751013439324672800,7.1056728515625,-0.9902496337890625,-0.181793212890625,0.05767822265625
1751013439334615800,7.11561572265625,-0.993377685546875,-0.1854400634765625,0.0562286376953125
1751013439344559600,7.1255595703125,-0.996124267578125,-0.185821533203125,0.0564422607421875
1751013439354502400,7.13550244140625,-0.9986572265625,-0.1830902099609375,0.05780029296875
1751013439364445400,7.145445556640625,-0.9970245361328125,-0.18280029296875,0.0543670654296875
1751013439374388500,7.155388427734375,-0.99603271484375,-0.1839599609375,0.0519866943359375
1751013439384331500,7.16533154296875,-0.9956817626953125,-0.1844940185546875,0.05450439453125
1751013439394275300,7.175275390625,-0.9906463623046875,-0.1845703125,0.053192138671875
1751013439404218400,7.18521826171875,-0.9889984130859375,-0.185272216796875,0.052642822265625
1751013439414161400,7.195161376953125,-0.9896240234375,-0.1870574951171875,0.0544281005859375
1751013439424104400,7.2051044921875,-0.99066162109375,-0.188323974609375,0.056549072265625
1751013439434048500,7.215048583984375,-0.9920806884765625,-0.1881866455078125,0.0560150146484375
1751013439443991300,7.2249912109375,-0.99188232421875,-0.1894683837890625,0.0545196533203125
1751013439453934300,7.234934326171875,-0.9943695068359375,-0.1895294189453125,0.0542755126953125
1751013439463877400,7.24487744140625,-0.99822998046875,-0.1907958984375,0.0540313720703125
1751013439473821400,7.254821533203125,-0.9947967529296875,-0.1888427734375,0.0495452880859375
1751013439483764500,7.264764404296875,-0.9917144775390625,-0.18548583984375,0.0481109619140625
1751013439493707500,7.27470751953125,-0.99322509765625,-0.1826629638671875,0.047637939453125
1751013439503650300,7.284650390625,-0.9984283447265625,-0.1846160888671875,0.0511322021484375
1751013439513594400,7.294594482421875,-0.9896697998046875,-0.1893157958984375,0.0573883056640625
1751013439523537400,7.304537353515625,-0.98785400390625,-0.1867218017578125,0.05419921875
1751013439533480400,7.31448046875,-0.9948577880859375,-0.1862640380859375,0.0489349365234375
1751013439543423500,7.324423583984375,-1.003631591796875,-0.192718505859375,0.046783447265625
1751013439553367300,7.3343671875,-1.004364013671875,-0.1956787109375,0.045806884765625
1751013439563310300,7.344310302734375,-1.0026702880859375,-0.1946563720703125,0.050079345703125
1751013439573253400,7.35425341796875,-0.997711181640625,-0.1938629150390625,0.0529327392578125
1751013439583196400,7.364196533203125,-0.9899444580078125,-0.1928863525390625,0.052764892578125
1751013439593140500,7.374140380859375,-0.98272705078125,-0.191864013671875,0.0531158447265625
1751013439603083300,7.384083251953125,-0.97906494140625,-0.190460205078125,0.0526123046875
1751013439613026300,7.3940263671875,-0.9833526611328125,-0.1878814697265625,0.053131103515625
1751013439622969300,7.40396923828125,-0.987152099609375,-0.189453125,0.05419921875
1751013439632912400,7.413912353515625,-0.9871063232421875,-0.191650390625,0.0519561767578125
1751013439642856400,7.4238564453125,-0.98553466796875,-0.19110107421875,0.050384521484375
1751013439652799500,7.433799560546875,-0.9874420166015625,-0.1909637451171875,0.0495147705078125
1751013439662742300,7.4437421875,-0.9904022216796875,-0.1895599365234375,0.0495452880859375
1751013439672685300,7.453685302734375,-0.9919586181640625,-0.1854705810546875,0.052642822265625
1751013439682629400,7.46362939453125,-1.001495361328125,-0.18682861328125,0.0521697998046875
1751013439692572400,7.473572509765625,-1.0012664794921875,-0.190277099609375,0.0520477294921875
1751013439702515500,7.483515380859375,-0.995697021484375,-0.1876983642578125,0.053253173828125
1751013439712458500,7.49345849609375,-0.994659423828125,-0.1841583251953125,0.05413818359375
1751013439722402300,7.50340234375,-0.99774169921875,-0.18408203125,0.0533905029296875
1751013439732345300,7.513345458984375,-0.99530029296875,-0.1851043701171875,0.052398681640625
1751013439742288400,7.523288330078125,-0.991790771484375,-0.18365478515625,0.0536346435546875
1751013439752231400,7.5332314453125,-0.9925079345703125,-0.182647705078125,0.056427001953125
1751013439762175200,7.54317529296875,-0.994232177734375,-0.1848297119140625,0.056854248046875
1751013439772118300,7.5531181640625,-0.9970855712890625,-0.18707275390625,0.0548858642578125
1751013439782061300,7.563061279296875,-0.998138427734375,-0.18792724609375,0.0544281005859375
1751013439792004400,7.57300439453125,-0.9964141845703125,-0.18951416015625,0.0530548095703125
1751013439801948400,7.582948486328125,-0.9942169189453125,-0.19000244140625,0.0508880615234375
1751013439811891200,7.59289111328125,-0.994232177734375,-0.1903533935546875,0.04913330078125
1751013439821834200,7.602834228515625,-0.994598388671875,-0.19110107421875,0.048492431640625
1751013439831777300,7.61277734375,-0.9925994873046875,-0.1914825439453125,0.048553466796875
1751013439841720300,7.62272021484375,-0.98614501953125,-0.19049072265625,0.049285888671875
1751013439851664400,7.632664306640625,-0.983856201171875,-0.1871337890625,0.047119140625
1751013439861607400,7.642607421875,-0.988677978515625,-0.1869659423828125,0.0439605712890625
1751013439871550200,7.65255029296875,-0.990875244140625,-0.1900787353515625,0.047882080078125
1751013439881493200,7.6624931640625,-0.9925384521484375,-0.1895904541015625,0.050689697265625
1751013439891437300,7.672437255859375,-0.9933013916015625,-0.187774658203125,0.050323486328125
1751013439901380400,7.68238037109375,-0.9934234619140625,-0.1865081787109375,0.046905517578125
1751013439911323400,7.692323486328125,-0.9933013916015625,-0.1866302490234375,0.04345703125
1751013439921266400,7.702266357421875,-0.992950439453125,-0.18505859375,0.045928955078125
1751013439931210200,7.712210205078125,-0.9952850341796875,-0.182037353515625,0.04913330078125
1751013439941153300,7.7221533203125,-0.9940032958984375,-0.1829833984375,0.0460205078125
1751013439951096300,7.732096435546875,-0.990264892578125,-0.1819610595703125,0.044647216796875
1751013439961039400,7.742039306640625,-0.9926910400390625,-0.1794586181640625,0.04608154296875
1751013439970983200,7.751983154296875,-0.9935760498046875,-0.1836700439453125,0.04656982421875
1751013439980926200,7.76192626953125,-0.9914398193359375,-0.184814453125,0.0473175048828125
1751013439990869200,7.771869140625,-0.9946136474609375,-0.1853179931640625,0.047637939453125
1751013440000812300,7.781812255859375,-0.999603271484375,-0.187042236328125,0.048065185546875
1751013440010755300,7.79175537109375,-0.999481201171875,-0.189056396484375,0.049896240234375
1751013440020699100,7.80169921875,-0.9945220947265625,-0.188751220703125,0.0489654541015625
1751013440030642200,7.81164208984375,-0.995574951171875,-0.1870574951171875,0.0496673583984375
1751013440040585200,7.821585205078125,-0.9984893798828125,-0.1874847412109375,0.0490264892578125
1751013440050528300,7.8315283203125,-0.999908447265625,-0.1877593994140625,0.0482177734375
1751013440060472300,7.841472412109375,-0.998992919921875,-0.1875,0.047454833984375
1751013440070415400,7.851415283203125,-0.9975433349609375,-0.18841552734375,0.049224853515625
1751013440080358100,7.861358154296875,-0.99761962890625,-0.1898040771484375,0.0494232177734375
1751013440090301200,7.87130126953125,-0.999786376953125,-0.190643310546875,0.050994873046875
1751013440100245200,7.881245361328125,-1.00042724609375,-0.18841552734375,0.053802490234375
1751013440110188300,7.891188232421875,-1.0016632080078125,-0.1870880126953125,0.054718017578125
1751013440120131300,7.90113134765625,-1.0012054443359375,-0.186920166015625,0.0516815185546875
1751013440130074400,7.911074462890625,-0.99755859375,-0.1862945556640625,0.0493927001953125
1751013440140018400,7.921018310546875,-0.9954071044921875,-0.1840057373046875,0.050750732421875
1751013440149961200,7.930961181640625,-0.9985198974609375,-0.18206787109375,0.0535888671875
1751013440159904300,7.940904296875,-1.0007171630859375,-0.1822967529296875,0.05548095703125
1751013440169847300,7.950847412109375,-0.99847412109375,-0.182342529296875,0.0547027587890625
1751013440179790300,7.960790283203125,-0.99676513671875,-0.18060302734375,0.053253173828125
1751013440189734400,7.970734375,-0.9969482421875,-0.1796417236328125,0.0506744384765625
1751013440199677400,7.980677490234375,-0.9950408935546875,-0.179962158203125,0.0470428466796875
1751013440209620200,7.9906201171875,-0.9936981201171875,-0.181976318359375,0.0489044189453125
1751013440219563300,8.000563232421875,-0.9949493408203125,-0.182403564453125,0.051361083984375
1751013440229507300,8.01050732421875,-0.9934234619140625,-0.1809539794921875,0.0548553466796875
1751013440239450400,8.020450439453125,-0.99346923828125,-0.180511474609375,0.053497314453125
1751013440249393400,8.030393310546875,-0.9946136474609375,-0.179656982421875,0.051849365234375
1751013440259336200,8.040336181640624,-0.9944000244140625,-0.17864990234375,0.0519866943359375
1751013440269280500,8.050280517578125,-0.9922637939453125,-0.177459716796875,0.04901123046875
1751013440279223600,8.0602236328125,-0.9926605224609375,-0.1780242919921875,0.0491790771484375
1751013440289166300,8.070166259765625,-0.99298095703125,-0.178436279296875,0.049163818359375
1751013440299109400,8.080109375,-0.9951019287109375,-0.1785125732421875,0.0480499267578125
1751013440309053400,8.090053466796874,-0.998138427734375,-0.1787567138671875,0.049591064453125
1751013440318996500,8.09999658203125,-1.0005645751953125,-0.1786651611328125,0.051513671875
1751013440328939500,8.109939453125,-1.0012969970703125,-0.1777496337890625,0.0527191162109375
1751013440338882600,8.119882568359374,-0.9996185302734375,-0.1762847900390625,0.05010986328125
1751013440348825300,8.129825439453125,-1.0009613037109375,-0.176239013671875,0.048919677734375
1751013440358769400,8.139769287109376,-1.0016632080078125,-0.1762847900390625,0.0504150390625
1751013440368712400,8.14971240234375,-0.9984893798828125,-0.1764678955078125,0.049652099609375
1751013440378655500,8.159655517578125,-0.99481201171875,-0.17755126953125,0.04791259765625
1751013440388598500,8.1695986328125,-0.996002197265625,-0.1790924072265625,0.0465240478515625
1751013440398542300,8.179542236328125,-0.99603271484375,-0.18011474609375,0.0485382080078125
1751013440408485400,8.1894853515625,-0.995147705078125,-0.181640625,0.049072265625
1751013440418428400,8.199428466796874,-0.99359130859375,-0.1830902099609375,0.0480499267578125
1751013440428371500,8.209371337890625,-0.9943389892578125,-0.18243408203125,0.0478057861328125
1751013440438315300,8.219315185546876,-0.996734619140625,-0.1806793212890625,0.0475311279296875
1751013440448258300,8.22925830078125,-0.997833251953125,-0.1814727783203125,0.048583984375
1751013440458201300,8.239201416015625,-0.996826171875,-0.181121826171875,0.0465087890625
1751013440468144400,8.249144287109376,-0.9980316162109375,-0.1790313720703125,0.0471343994140625
1751013440478088400,8.25908837890625,-0.9980926513671875,-0.178314208984375,0.0499114990234375
1751013440488031500,8.269031494140625,-0.996246337890625,-0.177398681640625,0.0501708984375
1751013440497974300,8.278974365234374,-0.9978790283203125,-0.1765289306640625,0.0507049560546875
1751013440507917300,8.288917236328125,-0.9989013671875,-0.1755218505859375,0.052215576171875
1751013440517860400,8.2988603515625,-0.9981231689453125,-0.175567626953125,0.051361083984375
1751013440527804400,8.308804443359374,-0.99969482421875,-0.1775970458984375,0.0511932373046875
1751013440537747500,8.31874755859375,-1.0006103515625,-0.1795654296875,0.05059814453125
1751013440547690500,8.3286904296875,-1.0001373291015625,-0.1812286376953125,0.0537567138671875
1751013440557633300,8.33863330078125,-1.00018310546875,-0.1808624267578125,0.056671142578125
1751013440567577300,8.348577392578125,-0.9983062744140625,-0.1799774169921875,0.0547943115234375
1751013440577520400,8.358520263671876,-0.9976654052734375,-0.1776275634765625,0.05029296875
1751013440587463400,8.36846337890625,-0.9979248046875,-0.17474365234375,0.05023193359375
1751013440597406500,8.378406494140625,-1.00006103515625,-0.1740264892578125,0.0530853271484375
1751013440607350300,8.388350341796874,-1.000030517578125,-0.17535400390625,0.0503387451171875
1751013440617293300,8.398293212890625,-1.0002593994140625,-0.176177978515625,0.0486297607421875
1751013440627236400,8.408236328125,-1.0012054443359375,-0.17578125,0.0495147705078125
1751013440637179400,8.418179443359374,-1.001434326171875,-0.175994873046875,0.0511627197265625
1751013440647122400,8.428122314453125,-1.0005035400390625,-0.1766357421875,0.0528106689453125
1751013440657066200,8.438066162109376,-0.9973907470703125,-0.1770172119140625,0.0524749755859375
1751013440667009300,8.44800927734375,-0.99566650390625,-0.175201416015625,0.051055908203125
1751013440676952300,8.457952392578125,-0.995941162109375,-0.173919677734375,0.0502471923828125
1751013440686895400,8.467895263671876,-0.99737548828125,-0.17510986328125,0.050079345703125
1751013440696839400,8.47783935546875,-0.997589111328125,-0.1760711669921875,0.04901123046875
1751013440706782500,8.487782470703126,-0.996002197265625,-0.1752166748046875,0.048919677734375
1751013440716725200,8.497725341796874,-0.9952850341796875,-0.1755218505859375,0.0478515625
1751013440726668300,8.507668212890625,-0.99371337890625,-0.1754913330078125,0.048095703125
1751013440736612400,8.5176123046875,-0.99560546875,-0.1742095947265625,0.04840087890625
1751013440746555400,8.527555419921875,-0.994842529296875,-0.17431640625,0.046630859375
1751013440756498400,8.53749853515625,-0.9949188232421875,-0.1750946044921875,0.0471343994140625
1751013440766441500,8.54744140625,-0.9987335205078125,-0.1760101318359375,0.0465087890625
1751013440776384300,8.55738427734375,-0.9979705810546875,-0.1765899658203125,0.0472564697265625
1751013440786328300,8.567328369140625,-0.995513916015625,-0.1773834228515625,0.050628662109375
1751013440796271400,8.577271240234374,-0.9928741455078125,-0.1772308349609375,0.053375244140625
1751013440806214400,8.58721435546875,-0.9929962158203125,-0.176422119140625,0.053924560546875
1751013440816157400,8.597157470703126,-0.9955596923828125,-0.1758880615234375,0.0540924072265625
1751013440826101200,8.607101318359375,-0.994964599609375,-0.175079345703125,0.050811767578125
1751013440836044300,8.617044189453125,-0.992767333984375,-0.17449951171875,0.050445556640625
1751013440845987300,8.6269873046875,-0.994964599609375,-0.17431640625,0.0515289306640625
1751013440855930400,8.636930419921875,-0.9992523193359375,-0.175567626953125,0.0494384765625
1751013440865874200,8.646874267578125,-0.999176025390625,-0.1748046875,0.048797607421875
1751013440875817200,8.656817138671874,-1.00042724609375,-0.1759033203125,0.050048828125
1751013440885760300,8.66676025390625,-1.0002288818359375,-0.17620849609375,0.0500335693359375
1751013440895703300,8.676703369140625,-0.998260498046875,-0.1766815185546875,0.0513916015625
1751013440905646300,8.686646240234374,-0.9961090087890625,-0.1766357421875,0.0505218505859375
1751013440915590400,8.69659033203125,-0.997772216796875,-0.173858642578125,0.0513458251953125
1751013440925533200,8.706533203125,-0.9983673095703125,-0.1738433837890625,0.0515899658203125
1751013440935476200,8.716476318359375,-1.000335693359375,-0.174072265625,0.04931640625
1751013440945419300,8.726419189453125,-1.001373291015625,-0.172943115234375,0.04913330078125
1751013440955363300,8.73636328125,-1.0003509521484375,-0.17315673828125,0.0498809814453125
1751013440965306400,8.746306396484375,-1.002166748046875,-0.173553466796875,0.0480804443359375
1751013440975249400,8.75624951171875,-1.0002288818359375,-0.1747589111328125,0.048431396484375
1751013440985192200,8.766192138671874,-0.997894287109375,-0.173309326171875,0.0482177734375
1751013440995136300,8.77613623046875,-0.995452880859375,-0.1733551025390625,0.0498046875
1751013441005079300,8.786079345703126,-0.993988037109375,-0.174407958984375,0.0479888916015625
1751013441015022300,8.796022216796874,-0.994781494140625,-0.174957275390625,0.0483245849609375
1751013441024965400,8.80596533203125,-0.99853515625,-0.1748809814453125,0.0498199462890625
1751013441034908400,8.815908447265626,-1.0014801025390625,-0.175628662109375,0.0497283935546875
1751013441044852200,8.825852294921875,-1.0029296875,-0.1771240234375,0.04931640625
1751013441054795300,8.835795166015625,-1.00250244140625,-0.1776885986328125,0.049163818359375
1751013441064738300,8.84573828125,-0.9993896484375,-0.1778411865234375,0.0474700927734375
1751013441074681300,8.855681396484375,-0.99761962890625,-0.1785736083984375,0.048919677734375
1751013441084625200,8.865625244140626,-0.996490478515625,-0.1755828857421875,0.0509033203125
1751013441094568200,8.875568115234374,-0.9957122802734375,-0.1748199462890625,0.052825927734375
1751013441104511200,8.88551123046875,-0.9911041259765625,-0.1747894287109375,0.0528564453125
1751013441114454300,8.895454345703126,-0.991119384765625,-0.174407958984375,0.0524749755859375
1751013441124398300,8.9053984375,-0.99359130859375,-0.174560546875,0.0532379150390625
1751013441134341000,8.915341064453125,-0.994415283203125,-0.177215576171875,0.0555419921875
1751013441144284200,8.9252841796875,-0.9964141845703125,-0.176727294921875,0.054168701171875
1751013441154227200,8.935227294921875,-0.9987640380859375,-0.177032470703125,0.0519866943359375
1751013441164170200,8.945170166015625,-1.0008087158203125,-0.1754302978515625,0.0507354736328125
1751013441174114600,8.955114501953124,-1.001617431640625,-0.17291259765625,0.0513153076171875
1751013441184057300,8.965057373046875,-1.00146484375,-0.1710357666015625,0.053070068359375
1751013441194000100,8.975000244140626,-0.9994659423828125,-0.1696014404296875,0.050994873046875
1751013441203943200,8.984943115234374,-0.9973297119140625,-0.1689605712890625,0.0496063232421875
1751013441213887500,8.994887451171875,-0.9997711181640625,-0.1689300537109375,0.05120849609375
1751013441223830500,9.00483056640625,-1.000732421875,-0.1718597412109375,0.0526885986328125
1751013441233773300,9.014773193359375,-0.9985809326171875,-0.173980712890625,0.0520172119140625
1751013441243716400,9.02471630859375,-1.0012054443359375,-0.1733551025390625,0.05322265625
1751013441253660400,9.034660400390624,-1.0015411376953125,-0.1730804443359375,0.0529632568359375
1751013441263603500,9.044603515625,-0.999847412109375,-0.175048828125,0.05072021484375
1751013441273546500,9.05454638671875,-0.999603271484375,-0.17535400390625,0.048675537109375
1751013441283489500,9.064489501953124,-1.000457763671875,-0.1751251220703125,0.0477447509765625
1751013441293432300,9.074432373046875,-0.99774169921875,-0.17559814453125,0.0466766357421875
1751013441303376400,9.08437646484375,-0.9913177490234375,-0.1750335693359375,0.0466156005859375
1751013441313319400,9.0943193359375,-0.99261474609375,-0.1745147705078125,0.0491485595703125
1751013441323262500,9.104262451171875,-0.995849609375,-0.1734771728515625,0.04998779296875
1751013441333205500,9.11420556640625,-0.99542236328125,-0.172271728515625,0.049591064453125
1751013441343149300,9.1241494140625,-0.9945220947265625,-0.1723480224609375,0.0491485595703125
1751013441353092400,9.13409228515625,-0.997650146484375,-0.1719818115234375,0.0472412109375
1751013441363035400,9.144035400390624,-0.99822998046875,-0.1738128662109375,0.0456085205078125
1751013441372978400,9.153978515625,-0.9953765869140625,-0.1747283935546875,0.044952392578125
1751013441382922500,9.163922607421876,-0.9936065673828125,-0.1741180419921875,0.0475921630859375
1751013441392865500,9.173865478515625,-0.99365234375,-0.1736297607421875,0.05230712890625
1751013441402808300,9.183808349609375,-0.993988037109375,-0.173492431640625,0.0535125732421875
1751013441412751400,9.19375146484375,-0.99102783203125,-0.172637939453125,0.052032470703125
1751013441422694400,9.2036943359375,-0.991424560546875,-0.1720428466796875,0.050750732421875
1751013441432638500,9.213638427734375,-0.993133544921875,-0.173095703125,0.05010986328125
1751013441442581500,9.22358154296875,-0.997894287109375,-0.1734161376953125,0.0505218505859375
1751013441452524500,9.233524658203125,-1.0023193359375,-0.1751556396484375,0.0497894287109375
1751013441462467300,9.24346728515625,-1.0027313232421875,-0.1785888671875,0.0481414794921875
1751013441472411400,9.253411376953125,-1.0027618408203125,-0.178680419921875,0.0503082275390625
1751013441482354400,9.2633544921875,-1.0010833740234375,-0.176910400390625,0.050933837890625
1751013441492297500,9.27329736328125,-0.9974517822265625,-0.1760711669921875,0.0513153076171875
1751013441502240500,9.283240478515625,-0.9958953857421875,-0.17608642578125,0.0511322021484375
1751013441512184300,9.293184326171875,-0.9996795654296875,-0.1719207763671875,0.0518646240234375
1751013441522127400,9.30312744140625,-1.004547119140625,-0.1725616455078125,0.0507049560546875
1751013441532070400,9.3130703125,-1.0054931640625,-0.17401123046875,0.0507049560546875
1751013441542013400,9.323013427734375,-1.0048980712890625,-0.175537109375,0.0516510009765625
1751013441551956500,9.33295654296875,-1.0064849853515625,-0.1748046875,0.05023193359375
1751013441561900300,9.342900390625,-1.0063018798828125,-0.174224853515625,0.0485687255859375
1751013441571843300,9.35284326171875,-1.003265380859375,-0.1736602783203125,0.04669189453125
1751013441581786400,9.362786376953125,-0.9989471435546875,-0.171295166015625,0.04736328125
1751013441591729400,9.3727294921875,-0.9980926513671875,-0.1727447509765625,0.0503387451171875
1751013441601673500,9.382673583984374,-1,-0.1731719970703125,0.0518341064453125
1751013441611616300,9.3926162109375,-0.99945068359375,-0.1750335693359375,0.053985595703125
1751013441621559300,9.402559326171875,-0.9944610595703125,-0.1764068603515625,0.0559844970703125
1751013441631502300,9.41250244140625,-1.0009002685546875,-0.1727752685546875,0.051239013671875
1751013441641446700,9.42244677734375,-1.00274658203125,-0.171722412109375,0.053131103515625
1751013441651389400,9.432389404296876,-0.9933013916015625,-0.1712646484375,0.053955078125
1751013441661332500,9.44233251953125,-0.989593505859375,-0.1709747314453125,0.054046630859375
1751013441671275300,9.452275146484375,-0.98699951171875,-0.1707763671875,0.053070068359375
1751013441681218300,9.46221826171875,-0.986328125,-0.1714630126953125,0.0522003173828125
1751013441691162600,9.47216259765625,-0.9918212890625,-0.1727447509765625,0.0531768798828125
1751013441701105400,9.48210546875,-0.9927520751953125,-0.173980712890625,0.0539703369140625
1751013441711048400,9.49204833984375,-0.9934844970703125,-0.1728515625,0.0557708740234375
1751013441720991500,9.501991455078125,-0.995391845703125,-0.1720123291015625,0.0570831298828125
1751013441730935600,9.511935546875,-0.9947967529296875,-0.1733245849609375,0.0544586181640625
1751013441740878600,9.521878662109375,-0.9958038330078125,-0.1734161376953125,0.0538177490234375
1751013441750821600,9.531821533203125,-0.99566650390625,-0.171142578125,0.053619384765625
1751013441760764400,9.541764404296876,-0.9952545166015625,-0.1692047119140625,0.05255126953125
1751013441770708500,9.55170849609375,-0.9958038330078125,-0.169403076171875,0.0527191162109375
1751013441780651500,9.561651611328125,-0.995635986328125,-0.1683197021484375,0.0527191162109375
1751013441790594600,9.571594482421874,-0.9973602294921875,-0.16632080078125,0.0542755126953125
1751013441800537600,9.58153759765625,-0.9976654052734375,-0.1654052734375,0.0557098388671875
1751013441810480400,9.59148046875,-1.0016937255859375,-0.170318603515625,0.0539093017578125
1751013441820424400,9.601424560546874,-0.9972076416015625,-0.171417236328125,0.0532684326171875
1751013441830367500,9.611367431640625,-0.99810791015625,-0.1669158935546875,0.0504302978515625
1751013441840310500,9.621310546875,-1.0070037841796875,-0.170135498046875,0.0490875244140625
1751013441850253600,9.631253662109375,-0.9983062744140625,-0.1739349365234375,0.049652099609375
1751013441860197600,9.64119775390625,-0.99481201171875,-0.1710052490234375,0.0499114990234375
1751013441870140700,9.651140625,-0.995330810546875,-0.170623779296875,0.0517425537109375
1751013441880083500,9.66108349609375,-0.990753173828125,-0.1742095947265625,0.05267333984375
1751013441890026500,9.671026611328125,-0.990142822265625,-0.1774139404296875,0.0540924072265625
1751013441899970600,9.680970458984374,-0.9920196533203125,-0.1787109375,0.0554046630859375
1751013441909913600,9.69091357421875,-0.992034912109375,-0.178802490234375,0.0577392578125
1751013441919856600,9.700856689453126,-0.99505615234375,-0.18035888671875,0.057891845703125
1751013441929799700,9.710799560546874,-0.999786376953125,-0.1775665283203125,0.052581787109375
1751013441939742500,9.720742431640625,-1.0009002685546875,-0.176300048828125,0.0475006103515625
1751013441949686500,9.7306865234375,-0.9999237060546875,-0.175628662109375,0.047149658203125
1751013441959629600,9.740629638671875,-0.99737548828125,-0.17340087890625,0.0482177734375
1751013441969572600,9.750572509765625,-0.99713134765625,-0.1729736328125,0.051177978515625
1751013441979515600,9.760515625,-0.998046875,-0.1746978759765625,0.0522918701171875
1751013441989459500,9.77045947265625,-1.001922607421875,-0.175445556640625,0.0547943115234375
1751013441999402500,9.780402587890626,-1.0059356689453125,-0.1741943359375,0.0565948486328125
1751013442009345500,9.790345458984374,-1.0030059814453125,-0.172210693359375,0.0557098388671875
1751013442019288600,9.80028857421875,-0.99749755859375,-0.1713409423828125,0.0541839599609375
1751013442029232400,9.810232421875,-0.9977874755859375,-0.169830322265625,0.0547637939453125
1751013442039175400,9.820175537109375,-0.9977569580078125,-0.1691131591796875,0.0540771484375
1751013442049118500,9.830118408203125,-0.9952545166015625,-0.1688385009765625,0.055145263671875
1751013442059061500,9.8400615234375,-0.99664306640625,-0.1672821044921875,0.0570220947265625
1751013442069004500,9.850004638671875,-0.9969940185546875,-0.165924072265625,0.054901123046875
1751013442078948600,9.859948486328125,-0.9949951171875,-0.1674957275390625,0.054473876953125
1751013442088891400,9.869891357421874,-0.9966278076171875,-0.1667633056640625,0.053253173828125
1751013442098834400,9.87983447265625,-0.9982147216796875,-0.1672515869140625,0.051177978515625
1751013442108777500,9.889777587890626,-0.998687744140625,-0.16796875,0.0513916015625
1751013442118721500,9.899721435546875,-0.9997100830078125,-0.16912841796875,0.05133056640625
1751013442128664600,9.90966455078125,-1.005096435546875,-0.1680755615234375,0.051116943359375
1751013442138607600,9.919607666015626,-1.004425048828125,-0.168914794921875,0.046844482421875
1751013442148550400,9.92955029296875,-1.00201416015625,-0.1701507568359375,0.0470733642578125
1751013442158493400,9.939493408203125,-1.0014190673828125,-0.16925048828125,0.0485992431640625
1751013442168437500,9.9494375,-0.9998626708984375,-0.1692962646484375,0.0483551025390625
1751013442178380500,9.959380615234375,-0.99847412109375,-0.1681976318359375,0.0468902587890625
1751013442188323600,9.969323486328125,-0.9975738525390625,-0.1683807373046875,0.047088623046875
1751013442198266600,9.9792666015625,-0.995269775390625,-0.1715087890625,0.048797607421875
1751013442208210400,9.98921044921875,-0.996978759765625,-0.172027587890625,0.04937744140625
1751013442218153500,9.999153564453126,-0.996429443359375,-0.1730194091796875,0.0490264892578125
1751013442228096500,10.009096435546875,-0.997894287109375,-0.1735076904296875,0.047332763671875
1751013442238039600,10.01903955078125,-1.0001373291015625,-0.1722564697265625,0.0484771728515625
1751013442247983400,10.0289833984375,-1.001922607421875,-0.17108154296875,0.051055908203125
1751013442257926400,10.038926513671875,-1.002471923828125,-0.167633056640625,0.05450439453125
1751013442267869400,10.048869384765625,-1.0006256103515625,-0.166229248046875,0.0532379150390625
1751013442277812500,10.0588125,-0.9972686767578125,-0.16644287109375,0.051483154296875
1751013442287755500,10.068755615234375,-0.9971466064453125,-0.1661529541015625,0.05133056640625
1751013442297699300,10.07869921875,-0.9998779296875,-0.1663055419921875,0.0501708984375
1751013442307642400,10.088642333984374,-1.0011749267578125,-0.1686248779296875,0.0503387451171875
1751013442317585400,10.09858544921875,-0.9976043701171875,-0.1703033447265625,0.05194091796875
1751013442327528400,10.108528564453126,-0.9990081787109375,-0.16973876953125,0.053436279296875
1751013442337472500,10.118472412109375,-1.0043182373046875,-0.1683197021484375,0.053436279296875
1751013442347415600,10.12841552734375,-1.0086669921875,-0.1670074462890625,0.0519561767578125
1751013442357358300,10.1383583984375,-1.008941650390625,-0.1672821044921875,0.0485382080078125
1751013442367301000,10.148301025390625,-1.004058837890625,-0.1678009033203125,0.04718017578125
1751013442377245200,10.1582451171875,-1.0057220458984375,-0.167327880859375,0.048187255859375
1751013442387188200,10.168188232421874,-1.00732421875,-0.16680908203125,0.0482940673828125
1751013442397131300,10.17813134765625,-1.00408935546875,-0.168365478515625,0.04656982421875
1751013442407074300,10.18807421875,-1.0024871826171875,-0.1695709228515625,0.0488433837890625
1751013442417017300,10.198017333984374,-1.00140380859375,-0.1666107177734375,0.050079345703125
1751013442426961200,10.207961181640625,-0.9976959228515625,-0.1653594970703125,0.0492706298828125
1751013442436904200,10.217904296875,-0.9975128173828125,-0.167083740234375,0.04925537109375
1751013442446847200,10.22784716796875,-0.9965362548828125,-0.166717529296875,0.04693603515625
1751013442456790300,10.237790283203125,-0.9970703125,-0.1671142578125,0.045135498046875
1751013442466734000,10.247734130859374,-0.9980316162109375,-0.1688079833984375,0.0443572998046875
1751013442476677000,10.257677001953125,-0.9980010986328125,-0.17108154296875,0.043060302734375
1751013442486620200,10.2676201171875,-0.9975128173828125,-0.1710052490234375,0.0432586669921875
1751013442496563200,10.277563232421874,-0.994598388671875,-0.1708984375,0.044921875
1751013442506507300,10.28750732421875,-0.9951019287109375,-0.16888427734375,0.045440673828125
1751013442516450000,10.297449951171876,-0.99639892578125,-0.1666259765625,0.0462799072265625
1751013442526393000,10.30739306640625,-0.9933624267578125,-0.1662445068359375,0.04510498046875
1751013442536336100,10.317336181640625,-0.9923095703125,-0.1667022705078125,0.044586181640625
1751013442546279200,10.327279052734376,-0.9932708740234375,-0.1676788330078125,0.0446929931640625
1751013442556223200,10.33722314453125,-0.99163818359375,-0.169891357421875,0.0458221435546875
1751013442566166300,10.347166259765626,-0.991119384765625,-0.1697540283203125,0.048309326171875
1751013442576109000,10.357109130859374,-0.9918975830078125,-0.1676483154296875,0.0503692626953125
1751013442586052000,10.367052001953125,-0.9937591552734375,-0.166107177734375,0.0521392822265625
1751013442595996200,10.37699609375,-0.995025634765625,-0.167022705078125,0.0514984130859375
1751013442605939200,10.386939208984375,-0.9954681396484375,-0.16571044921875,0.0484771728515625
1751013442615882200,10.39688232421875,-0.9954986572265625,-0.1650390625,0.045989990234375
1751013442625825300,10.4068251953125,-0.9970855712890625,-0.1647796630859375,0.0474090576171875
1751013442635769000,10.41676904296875,-0.9969635009765625,-0.1660614013671875,0.0467987060546875
1751013442645712100,10.426712158203125,-0.99676513671875,-0.1663665771484375,0.04608154296875
1751013442655655200,10.4366552734375,-0.9983673095703125,-0.1668548583984375,0.046966552734375
1751013442665598200,10.44659814453125,-0.9987945556640625,-0.1698455810546875,0.0465850830078125
1751013442675541200,10.456541259765626,-0.9972991943359375,-0.1717681884765625,0.04541015625
1751013442685485000,10.466485107421875,-1.0009918212890625,-0.170379638671875,0.046539306640625
1751013442695428000,10.476427978515625,-1.0030059814453125,-0.1714019775390625,0.0473480224609375
1751013442705371100,10.48637109375,-1.00238037109375,-0.1751861572265625,0.049407958984375
1751013442715314200,10.496314208984375,-1.0029449462890625,-0.1745147705078125,0.0489349365234375
1751013442725258000,10.506258056640625,-1.0049591064453125,-0.1695709228515625,0.04718017578125
1751013442735201000,10.516200927734374,-1.005401611328125,-0.16790771484375,0.0452117919921875
1751013442745144000,10.52614404296875,-1.0035400390625,-0.1706695556640625,0.0434722900390625
1751013442755087000,10.536087158203125,-1.00067138671875,-0.1711273193359375,0.0410614013671875
1751013442765031400,10.546031494140625,-0.9984130859375,-0.1714019775390625,0.0374603271484375
1751013442774974200,10.55597412109375,-1.006317138671875,-0.1729736328125,0.036834716796875
1751013442784917000,10.5659169921875,-1.0096588134765625,-0.1766815185546875,0.0393524169921875
1751013442794860000,10.575860107421875,-1.00579833984375,-0.1813812255859375,0.0548095703125
1751013442804803000,10.585802978515625,-1.00299072265625,-0.17254638671875,0.06256103515625
1751013442814747400,10.595747314453124,-0.997772216796875,-0.1605377197265625,0.058380126953125
1751013442824690400,10.6056904296875,-0.994964599609375,-0.1598052978515625,0.0511932373046875
1751013442834633200,10.61563330078125,-0.91412353515625,-0.1590118408203125,0.062286376953125
1751013442844576000,10.625575927734374,-0.9941558837890625,-0.154998779296875,0.086090087890625
1751013442854520300,10.635520263671875,-1.0204925537109375,-0.1601715087890625,0.0935516357421875
1751013442864463400,10.64546337890625,-0.9982147216796875,-0.1741180419921875,0.0675048828125
1751013442874406400,10.655406494140625,-1.00750732421875,-0.1688690185546875,0.060882568359375
1751013442884349200,10.66534912109375,-1.0148468017578125,-0.1638946533203125,0.056488037109375
1751013442894293200,10.675293212890624,-1.018890380859375,-0.162139892578125,0.0546875
1751013442904236300,10.685236328125,-1.0217742919921875,-0.1619720458984375,0.0586395263671875
