time,seconds_elapsed,z,y,x
1751013796979902500,0.11590234375,-1.0113067626953125,-0.067901611328125,-0.052703857421875
1751013796989845500,0.125845458984375,-1.005584716796875,-0.0697174072265625,-0.0498046875
1751013796999788500,0.13578857421875,-0.9994354248046875,-0.066864013671875,-0.0531005859375
1751013797009732600,0.145732666015625,-1.0041351318359375,-0.0622711181640625,-0.05731201171875
1751013797019675400,0.15567529296875,-1.01580810546875,-0.0534210205078125,-0.05645751953125
1751013797029619700,0.16561962890625,-1.0224456787109375,-0.0489044189453125,-0.066314697265625
1751013797039562800,0.175562744140625,-1.031280517578125,-0.0489654541015625,-0.0736083984375
1751013797049506600,0.185506591796875,-1.0302581787109375,-0.0504913330078125,-0.073089599609375
1751013797059449600,0.19544970703125,-1.0300750732421875,-0.049896240234375,-0.064422607421875
1751013797069393700,0.2053935546875,-1.03265380859375,-0.0486602783203125,-0.0604400634765625
1751013797079336700,0.215336669921875,-1.0278167724609375,-0.0545501708984375,-0.0589599609375
1751013797089280500,0.225280517578125,-1.0237884521484375,-0.062530517578125,-0.0568084716796875
1751013797099223600,0.2352236328125,-1.0196533203125,-0.067596435546875,-0.0531768798828125
1751013797109167600,0.245167724609375,-1.0121917724609375,-0.0697784423828125,-0.047119140625
1751013797119110700,0.255110595703125,-1.009307861328125,-0.0727081298828125,-0.042755126953125
1751013797129054500,0.265054443359375,-1.0095367431640625,-0.0735015869140625,-0.0381622314453125
1751013797138997500,0.27499755859375,-1.005584716796875,-0.0712890625,-0.0375823974609375
1751013797148941600,0.284941650390625,-1.003448486328125,-0.0668487548828125,-0.0337982177734375
1751013797158884600,0.294884521484375,-1.0025177001953125,-0.0644073486328125,-0.034027099609375
1751013797168828400,0.304828369140625,-1.003662109375,-0.0595550537109375,-0.034759521484375
1751013797178771500,0.314771484375,-1.0052947998046875,-0.0570220947265625,-0.0349273681640625
1751013797188715800,0.3247158203125,-1.004669189453125,-0.0599212646484375,-0.0354766845703125
1751013797198658800,0.334658935546875,-1.0048370361328125,-0.0663909912109375,-0.0372314453125
1751013797208602600,0.3446025390625,-1.006622314453125,-0.069305419921875,-0.03704833984375
1751013797218545700,0.354545654296875,-1.0089263916015625,-0.068878173828125,-0.036346435546875
1751013797228489700,0.36448974609375,-1.0135040283203125,-0.069915771484375,-0.0333099365234375
1751013797238432800,0.374432861328125,-1.0086212158203125,-0.07122802734375,-0.0303955078125
1751013797248375600,0.38437548828125,-1.0070037841796875,-0.0683441162109375,-0.0270538330078125
1751013797258319600,0.394319580078125,-1.0096588134765625,-0.0641632080078125,-0.023529052734375
1751013797268262700,0.4042626953125,-1.01239013671875,-0.0627899169921875,-0.026214599609375
1751013797278206500,0.41420654296875,-1.01104736328125,-0.065216064453125,-0.02880859375
1751013797288149500,0.4241494140625,-1.0114593505859375,-0.068084716796875,-0.029449462890625
1751013797298093600,0.434093505859375,-1.01666259765625,-0.0704803466796875,-0.0319061279296875
1751013797308036600,0.44403662109375,-1.0143585205078125,-0.071319580078125,-0.033355712890625
1751013797317980400,0.45398046875,-1.0143280029296875,-0.07159423828125,-0.03338623046875
1751013797327923500,0.46392333984375,-1.01800537109375,-0.0726165771484375,-0.037689208984375
1751013797337867500,0.473867431640625,-1.0183563232421875,-0.071807861328125,-0.0382843017578125
1751013797347810600,0.483810546875,-1.0199127197265625,-0.0716552734375,-0.041473388671875
1751013797357754600,0.493754638671875,-1.01708984375,-0.0738677978515625,-0.0477294921875
1751013797367697400,0.503697509765625,-1.00848388671875,-0.0758819580078125,-0.046905517578125
1751013797377641700,0.513641845703125,-1.005401611328125,-0.0748443603515625,-0.04290771484375
1751013797387584800,0.523584716796875,-1.004791259765625,-0.07012939453125,-0.0352783203125
1751013797397528600,0.533528564453125,-1.0017852783203125,-0.0690765380859375,-0.0342864990234375
1751013797407471600,0.5434716796875,-1.0006866455078125,-0.0685882568359375,-0.0337371826171875
1751013797417415700,0.553415771484375,-1.0009613037109375,-0.069183349609375,-0.0328369140625
1751013797427358700,0.563358642578125,-1.0030975341796875,-0.0703582763671875,-0.0330963134765625
1751013797437302500,0.573302490234375,-1.0069732666015625,-0.069000244140625,-0.0336761474609375
1751013797447245600,0.58324560546875,-1.0134735107421875,-0.070587158203125,-0.042510986328125
1751013797457189600,0.593189697265625,-1.0079345703125,-0.0726318359375,-0.049041748046875
1751013797467132700,0.603132568359375,-1.005859375,-0.0690765380859375,-0.0476226806640625
1751013797477076500,0.613076416015625,-1.0037689208984375,-0.06781005859375,-0.04510498046875
1751013797487019500,0.62301953125,-1.0011138916015625,-0.0672760009765625,-0.0430145263671875
1751013797496963600,0.632963623046875,-1.0055999755859375,-0.0694732666015625,-0.04229736328125
1751013797506906600,0.64290673828125,-1.0059967041015625,-0.07598876953125,-0.0442962646484375
1751013797516850700,0.6528505859375,-1.00341796875,-0.0791473388671875,-0.042694091796875
1751013797526793500,0.66279345703125,-1.005615234375,-0.0751800537109375,-0.035491943359375
1751013797536737800,0.67273779296875,-1.0067138671875,-0.07421875,-0.0316314697265625
1751013797546680600,0.6826806640625,-1.0102996826171875,-0.0724029541015625,-0.03118896484375
1751013797556624600,0.692624755859375,-1.01397705078125,-0.06988525390625,-0.0343780517578125
1751013797566567700,0.702567626953125,-1.0170745849609375,-0.0680389404296875,-0.040130615234375
1751013797576510700,0.7125107421875,-1.019134521484375,-0.0680999755859375,-0.04132080078125
1751013797586454500,0.72245458984375,-1.021636962890625,-0.0655364990234375,-0.043060302734375
1751013797596397600,0.7323974609375,-1.023101806640625,-0.063720703125,-0.0471954345703125
1751013797606341600,0.742341552734375,-1.02703857421875,-0.06365966796875,-0.0489044189453125
1751013797616284700,0.75228466796875,-1.0290069580078125,-0.068145751953125,-0.0465087890625
1751013797626228500,0.762228515625,-1.0223236083984375,-0.075775146484375,-0.0417327880859375
1751013797636171500,0.772171630859375,-1.0136260986328125,-0.0817718505859375,-0.0358123779296875
1751013797646115600,0.782115478515625,-1.0096588134765625,-0.0833740234375,-0.0300445556640625
1751013797656058600,0.79205859375,-1.014617919921875,-0.080902099609375,-0.0283050537109375
1751013797666002400,0.80200244140625,-1.01202392578125,-0.0819549560546875,-0.0334320068359375
1751013797675945500,0.811945556640625,-1.0174102783203125,-0.084259033203125,-0.0348052978515625
1751013797685889500,0.8218896484375,-1.031951904296875,-0.089263916015625,-0.043212890625
1751013797695831600,0.83183154296875,-1.0308990478515625,-0.0944976806640625,-0.056182861328125
1751013797705775600,0.841775634765625,-1.024810791015625,-0.09710693359375,-0.0553436279296875
1751013797715718400,0.851718505859375,-1.022552490234375,-0.0965728759765625,-0.0542144775390625
1751013797725662500,0.861662353515625,-1.02008056640625,-0.0899658203125,-0.05462646484375
1751013797735605500,0.87160546875,-1.0135498046875,-0.085662841796875,-0.0528564453125
1751013797745549600,0.881549560546875,-1.0117950439453125,-0.0833740234375,-0.0460357666015625
1751013797755492400,0.891492431640625,-1.00714111328125,-0.0869140625,-0.037200927734375
1751013797765436400,0.9014365234375,-1.00006103515625,-0.0908203125,-0.0327606201171875
1751013797775379500,0.91137939453125,-0.9969482421875,-0.0945281982421875,-0.0273895263671875
1751013797785323300,0.9213232421875,-0.997589111328125,-0.0967254638671875,-0.0244903564453125
1751013797795266300,0.931266357421875,-1.004791259765625,-0.0988006591796875,-0.0236663818359375
1751013797805210400,0.94121044921875,-1.0103759765625,-0.0946197509765625,-0.0281524658203125
1751013797815153400,0.9511533203125,-1.011810302734375,-0.0932159423828125,-0.0357208251953125
1751013797825097500,0.961097412109375,-1.0117645263671875,-0.0963287353515625,-0.03961181640625
1751013797835040500,0.97104052734375,-1.0036163330078125,-0.1058349609375,-0.0425567626953125
1751013797844984600,0.980984619140625,-1.004180908203125,-0.1135406494140625,-0.04541015625
1751013797854927600,0.990927734375,-1.0109405517578125,-0.1118927001953125,-0.0487518310546875
1751013797864871400,1.000871337890625,-1.010498046875,-0.10992431640625,-0.0513763427734375
1751013797874814500,1.010814453125,-1.0052032470703125,-0.113037109375,-0.049652099609375
1751013797884758500,1.020758544921875,-1.0034332275390625,-0.115509033203125,-0.045989990234375
1751013797894701600,1.03070166015625,-1.0024261474609375,-0.1166839599609375,-0.042327880859375
1751013797904645400,1.040645263671875,-1.0015106201171875,-0.11639404296875,-0.042755126953125
1751013797914588400,1.05058837890625,-0.9997100830078125,-0.119049072265625,-0.0438995361328125
1751013797924532500,1.060532470703125,-0.9965362548828125,-0.12261962890625,-0.045867919921875
1751013797934475500,1.0704755859375,-0.9938201904296875,-0.121673583984375,-0.0428314208984375
1751013797944419300,1.08041943359375,-0.990081787109375,-0.1241455078125,-0.03839111328125
1751013797954362400,1.0903623046875,-0.98577880859375,-0.12603759765625,-0.0391387939453125
1751013797964306400,1.100306396484375,-0.9807281494140625,-0.1221771240234375,-0.0375518798828125
1751013797974249500,1.11024951171875,-0.980926513671875,-0.1135406494140625,-0.0305633544921875
1751013797984193500,1.120193603515625,-0.9823760986328125,-0.1067352294921875,-0.0219879150390625
1751013797994136600,1.130136474609375,-0.9774932861328125,-0.1056671142578125,-0.0250396728515625
1751013798004080600,1.14008056640625,-0.97454833984375,-0.106170654296875,-0.028350830078125
1751013798014023400,1.1500234375,-0.9765472412109375,-0.106536865234375,-0.029693603515625
1751013798023966500,1.159966552734375,-0.9779815673828125,-0.1071624755859375,-0.0343780517578125
1751013798033910500,1.16991064453125,-0.9840240478515625,-0.107147216796875,-0.0419769287109375
1751013798043853600,1.179853515625,-0.9939117431640625,-0.10821533203125,-0.047760009765625
1751013798053797400,1.18979736328125,-1.0051727294921875,-0.1093292236328125,-0.04901123046875
1751013798063740400,1.199740478515625,-1.0100250244140625,-0.1151580810546875,-0.0547332763671875
1751013798073684500,1.2096845703125,-1.0176544189453125,-0.1229400634765625,-0.0578765869140625
1751013798083627500,1.21962744140625,-1.0238189697265625,-0.126739501953125,-0.061126708984375
1751013798093571300,1.2295712890625,-1.029052734375,-0.12835693359375,-0.0602569580078125
1751013798103514400,1.239514404296875,-1.03045654296875,-0.1281585693359375,-0.058013916015625
1751013798113458400,1.24945849609375,-1.0246124267578125,-0.1246795654296875,-0.05706787109375
1751013798123401500,1.2594013671875,-1.0210113525390625,-0.116180419921875,-0.049407958984375
1751013798133345300,1.26934521484375,-1.021697998046875,-0.10723876953125,-0.04107666015625
1751013798143288300,1.279288330078125,-1.020050048828125,-0.1019134521484375,-0.041534423828125
1751013798153232600,1.289232666015625,-1.0147705078125,-0.1023101806640625,-0.0463714599609375
1751013798163175700,1.29917578125,-1.01055908203125,-0.1046295166015625,-0.047088623046875
1751013798173119500,1.309119384765625,-1.0101776123046875,-0.1056671142578125,-0.0508270263671875
1751013798183062500,1.3190625,-1.006927490234375,-0.1082916259765625,-0.0475921630859375
1751013798193006600,1.329006591796875,-1.000457763671875,-0.112274169921875,-0.0418548583984375
1751013798202949600,1.33894970703125,-0.9932708740234375,-0.1161956787109375,-0.038238525390625
1751013798212893400,1.3488935546875,-0.9915771484375,-0.1179962158203125,-0.0351715087890625
1751013798222836500,1.35883642578125,-0.9947509765625,-0.1165008544921875,-0.0312957763671875
1751013798232780500,1.368780517578125,-0.9966278076171875,-0.11700439453125,-0.033111572265625
1751013798242723600,1.3787236328125,-1.00018310546875,-0.1235809326171875,-0.0436553955078125
1751013798252667400,1.38866748046875,-1.004150390625,-0.1265869140625,-0.0460968017578125
1751013798262610400,1.3986103515625,-1.0080413818359375,-0.12445068359375,-0.0477752685546875
1751013798272554500,1.408554443359375,-1.0078125,-0.125274658203125,-0.0509185791015625
1751013798282497300,1.418497314453125,-0.999786376953125,-0.1284942626953125,-0.0515289306640625
1751013798292441300,1.42844140625,-1.003204345703125,-0.126617431640625,-0.04644775390625
1751013798302384400,1.43838427734375,-1.0077972412109375,-0.1240081787109375,-0.0380859375
1751013798312328700,1.44832861328125,-1.0041046142578125,-0.1267852783203125,-0.0296630859375
1751013798322271500,1.458271484375,-1.0027008056640625,-0.1334991455078125,-0.0255279541015625
1751013798332215600,1.468215576171875,-1.00592041015625,-0.135162353515625,-0.0255584716796875
1751013798342158600,1.47815869140625,-1.013519287109375,-0.1320953369140625,-0.0294952392578125
1751013798352102400,1.488102294921875,-1.022125244140625,-0.12640380859375,-0.0337677001953125
1751013798362045400,1.49804541015625,-1.0261077880859375,-0.122833251953125,-0.039825439453125
1751013798371989500,1.507989501953125,-1.0244598388671875,-0.1239013671875,-0.047332763671875
1751013798381932500,1.5179326171875,-1.023712158203125,-0.1243438720703125,-0.0492095947265625
1751013798391876400,1.52787646484375,-1.0221405029296875,-0.116973876953125,-0.0465850830078125
1751013798401819400,1.5378193359375,-1.018463134765625,-0.1053924560546875,-0.0423126220703125
1751013798411763500,1.547763427734375,-1.01190185546875,-0.1011962890625,-0.04656982421875
1751013798421706500,1.55770654296875,-1.010589599609375,-0.10333251953125,-0.043701171875
1751013798431650300,1.567650390625,-1.0023956298828125,-0.10980224609375,-0.04449462890625
1751013798441593300,1.57759326171875,-0.9940948486328125,-0.123199462890625,-0.0490264892578125
1751013798451537400,1.587537353515625,-0.9911956787109375,-0.1315765380859375,-0.0502777099609375
1751013798461480400,1.59748046875,-0.99554443359375,-0.134613037109375,-0.0542449951171875
1751013798471424500,1.607424560546875,-1.0005950927734375,-0.139892578125,-0.0587005615234375
1751013798481367600,1.617367431640625,-1.0021820068359375,-0.143951416015625,-0.0647125244140625
1751013798491311600,1.6273115234375,-1.0067138671875,-0.14447021484375,-0.0717926025390625
1751013798501254700,1.637254638671875,-1.0153350830078125,-0.1404876708984375,-0.073516845703125
1751013798511198500,1.647198486328125,-1.0240478515625,-0.12994384765625,-0.075775146484375
1751013798521141500,1.6571416015625,-1.023345947265625,-0.1153411865234375,-0.0806884765625
1751013798531085600,1.66708544921875,-1.0162200927734375,-0.1068878173828125,-0.084228515625
1751013798541028600,1.677028564453125,-1.011444091796875,-0.1072998046875,-0.0897369384765625
1751013798550972400,1.686972412109375,-1.0092620849609375,-0.11016845703125,-0.0907745361328125
1751013798560915500,1.69691552734375,-1.002593994140625,-0.1168975830078125,-0.08905029296875
1751013798570859500,1.706859619140625,-0.997222900390625,-0.13055419921875,-0.0831756591796875
1751013798580802600,1.716802490234375,-0.9900970458984375,-0.1467742919921875,-0.0756988525390625
1751013798590746400,1.726746337890625,-0.9824371337890625,-0.1648406982421875,-0.062652587890625
1751013798600689400,1.736689453125,-0.97564697265625,-0.17254638671875,-0.0567779541015625
1751013798610633500,1.746633544921875,-0.9795074462890625,-0.1632537841796875,-0.052764892578125
1751013798620576300,1.756576171875,-0.9810638427734375,-0.1501312255859375,-0.0484466552734375
1751013798630519300,1.766519287109375,-0.9808197021484375,-0.146148681640625,-0.0406646728515625
1751013798640463400,1.77646337890625,-0.9869384765625,-0.1436309814453125,-0.0405731201171875
1751013798650406400,1.786406494140625,-0.9908447265625,-0.138916015625,-0.0478973388671875
1751013798660350500,1.7963505859375,-0.9964447021484375,-0.1262359619140625,-0.0516510009765625
1751013798670293500,1.80629345703125,-1.00445556640625,-0.116302490234375,-0.058135986328125
1751013798680237600,1.816237548828125,-1.011077880859375,-0.114715576171875,-0.0610809326171875
1751013798690180400,1.826180419921875,-1.016571044921875,-0.112548828125,-0.056182861328125
1751013798700124400,1.83612451171875,-1.0197296142578125,-0.109771728515625,-0.0509185791015625
1751013798710067200,1.846067138671875,-1.0270233154296875,-0.1072998046875,-0.0508575439453125
1751013798720011500,1.856011474609375,-1.0326080322265625,-0.10211181640625,-0.0516357421875
1751013798729954600,1.86595458984375,-1.0345611572265625,-0.0963592529296875,-0.0533294677734375
1751013798739898400,1.8758984375,-1.0332183837890625,-0.09246826171875,-0.060455322265625
1751013798749841400,1.88584130859375,-1.033721923828125,-0.0913543701171875,-0.0635833740234375
1751013798759785500,1.895785400390625,-1.03460693359375,-0.0940399169921875,-0.064849853515625
1751013798769728500,1.905728515625,-1.0338134765625,-0.0998077392578125,-0.071319580078125
1751013798779672300,1.91567236328125,-1.0301055908203125,-0.11151123046875,-0.0760955810546875
1751013798789615400,1.925615478515625,-1.022857666015625,-0.121917724609375,-0.0761871337890625
1751013798799559400,1.935559326171875,-1.0153045654296875,-0.128814697265625,-0.072265625
1751013798809502500,1.94550244140625,-1.012664794921875,-0.1310577392578125,-0.068450927734375
1751013798819446300,1.9554462890625,-1.0077362060546875,-0.13134765625,-0.063140869140625
1751013798829389300,1.965389404296875,-1.001312255859375,-0.13427734375,-0.062896728515625
1751013798839333400,1.97533349609375,-0.9947357177734375,-0.1375885009765625,-0.062469482421875
1751013798849276400,1.9852763671875,-0.9927825927734375,-0.1378173828125,-0.0616302490234375
1751013798859220500,1.995220458984375,-0.989959716796875,-0.14093017578125,-0.059906005859375
1751013798869163300,2.005163330078125,-0.985137939453125,-0.1439666748046875,-0.05535888671875
1751013798879107600,2.015107666015625,-0.982330322265625,-0.1432952880859375,-0.0501556396484375
1751013798889050400,2.02505029296875,-0.9869384765625,-0.1374053955078125,-0.047210693359375
1751013798898994400,2.034994384765625,-0.9955596923828125,-0.1294403076171875,-0.0446319580078125
1751013798908937500,2.0449375,-1.004241943359375,-0.124847412109375,-0.0455322265625
1751013798918881500,2.054881591796875,-1.008636474609375,-0.122314453125,-0.0502777099609375
1751013798928824300,2.06482421875,-1.0139312744140625,-0.120452880859375,-0.0555877685546875
1751013798938768400,2.074768310546875,-1.020477294921875,-0.11859130859375,-0.0660247802734375
1751013798948711400,2.08471142578125,-1.0232391357421875,-0.1202392578125,-0.0778656005859375
1751013798958655200,2.0946552734375,-1.0216522216796875,-0.127288818359375,-0.0825958251953125
1751013798968598300,2.104598388671875,-1.01611328125,-0.1303863525390625,-0.073394775390625
1751013798978542300,2.114542236328125,-1.012847900390625,-0.1271209716796875,-0.0567779541015625
1751013798988485400,2.1244853515625,-1.0102996826171875,-0.1182861328125,-0.0395965576171875
1751013798998429200,2.13442919921875,-1.0006103515625,-0.1108856201171875,-0.022552490234375
1751013799008372200,2.144372314453125,-0.99188232421875,-0.110809326171875,-0.0149383544921875
1751013799018316300,2.15431640625,-0.9914398193359375,-0.115936279296875,-0.0170440673828125
1751013799028259300,2.16425927734375,-1.0003662109375,-0.1219482421875,-0.028656005859375
1751013799038203400,2.174203369140625,-1.0109710693359375,-0.1273956298828125,-0.042388916015625
1751013799048146400,2.184146484375,-1.013916015625,-0.132537841796875,-0.057098388671875
1751013799058090500,2.194090576171875,-1.020477294921875,-0.1323699951171875,-0.0620880126953125
1751013799068033500,2.204033447265625,-1.0266265869140625,-0.127960205078125,-0.0632476806640625
1751013799077977300,2.213977294921875,-1.0200347900390625,-0.125457763671875,-0.0639801025390625
1751013799087920400,2.22392041015625,-1.0130767822265625,-0.12408447265625,-0.06134033203125
1751013799097864400,2.233864501953125,-1.010345458984375,-0.125701904296875,-0.059600830078125
1751013799107807500,2.243807373046875,-1.0019073486328125,-0.1283721923828125,-0.058837890625
1751013799117751300,2.253751220703125,-0.99212646484375,-0.132171630859375,-0.0536041259765625
1751013799127694300,2.2636943359375,-0.9872589111328125,-0.133697509765625,-0.04833984375
1751013799137638400,2.273638427734375,-0.9873199462890625,-0.1336517333984375,-0.0452728271484375
1751013799147581400,2.28358154296875,-0.9882965087890625,-0.13507080078125,-0.041229248046875
1751013799157525200,2.293525146484375,-0.985931396484375,-0.1407623291015625,-0.0431976318359375
1751013799167468300,2.30346826171875,-0.98651123046875,-0.1463775634765625,-0.0501556396484375
1751013799177412400,2.313412353515625,-0.9887542724609375,-0.14892578125,-0.0538330078125
1751013799187355400,2.32335546875,-0.99078369140625,-0.150390625,-0.0557403564453125
1751013799197299500,2.333299560546875,-0.9893035888671875,-0.1541900634765625,-0.0565948486328125
1751013799207242500,2.343242431640625,-0.9884033203125,-0.1552886962890625,-0.057525634765625
1751013799217186600,2.3531865234375,-0.9915313720703125,-0.152740478515625,-0.06024169921875
1751013799227129300,2.36312939453125,-0.9958038330078125,-0.150848388671875,-0.0623016357421875
1751013799237073400,2.373073486328125,-1.0015106201171875,-0.14874267578125,-0.066802978515625
1751013799247016400,2.383016357421875,-1.0106658935546875,-0.14617919921875,-0.07281494140625
1751013799256960500,2.39296044921875,-1.021331787109375,-0.143768310546875,-0.083984375
1751013799266903300,2.4029033203125,-1.0249176025390625,-0.1417388916015625,-0.0969390869140625
1751013799276847400,2.412847412109375,-1.025909423828125,-0.1413421630859375,-0.104339599609375
1751013799286790400,2.422790283203125,-1.0233154296875,-0.142242431640625,-0.1034088134765625
1751013799296734200,2.432734130859375,-1.0251922607421875,-0.1371917724609375,-0.09149169921875
1751013799306677200,2.44267724609375,-1.02313232421875,-0.1319122314453125,-0.0767974853515625
1751013799316621300,2.452621337890625,-1.0106201171875,-0.134124755859375,-0.0686492919921875
1751013799326564400,2.462564453125,-1.001495361328125,-0.13592529296875,-0.06134033203125
1751013799336508200,2.472508056640625,-1.0040283203125,-0.1335601806640625,-0.0547637939453125
1751013799346451200,2.482451171875,-1.0027618408203125,-0.1308441162109375,-0.056365966796875
1751013799356395500,2.4923955078125,-0.99945068359375,-0.1282501220703125,-0.0564727783203125
1751013799366338600,2.502338623046875,-0.99798583984375,-0.1272430419921875,-0.0547943115234375
1751013799376282400,2.512282470703125,-0.995147705078125,-0.1265716552734375,-0.053955078125
1751013799386225400,2.522225341796875,-0.9950103759765625,-0.1237030029296875,-0.052703857421875
1751013799396169500,2.53216943359375,-0.997161865234375,-0.1205596923828125,-0.0498046875
1751013799406112500,2.542112548828125,-0.9946136474609375,-0.1228790283203125,-0.048858642578125
1751013799416056300,2.552056396484375,-0.992034912109375,-0.1248779296875,-0.0487823486328125
1751013799425999400,2.561999267578125,-0.9945526123046875,-0.12567138671875,-0.047943115234375
1751013799435943400,2.571943359375,-0.9947967529296875,-0.128143310546875,-0.0494842529296875
1751013799445886500,2.581886474609375,-0.992279052734375,-0.1338653564453125,-0.0537109375
1751013799455830300,2.591830322265625,-0.9892425537109375,-0.140472412109375,-0.0545654296875
1751013799465774300,2.6017744140625,-0.989166259765625,-0.1448211669921875,-0.05426025390625
1751013799475717400,2.61171728515625,-0.9868011474609375,-0.1484375,-0.054351806640625
1751013799485661400,2.621661376953125,-0.9860076904296875,-0.1513214111328125,-0.0587310791015625
1751013799495604200,2.631604248046875,-0.985107421875,-0.1558685302734375,-0.0653839111328125
1751013799505548500,2.641548583984375,-0.9758758544921875,-0.1617584228515625,-0.0716400146484375
1751013799515491600,2.65149169921875,-0.96929931640625,-0.1688232421875,-0.078399658203125
1751013799525435400,2.661435302734375,-0.9738922119140625,-0.168701171875,-0.08062744140625
1751013799535378400,2.67137841796875,-0.988922119140625,-0.156768798828125,-0.067108154296875
1751013799545322500,2.681322509765625,-0.997528076171875,-0.1533050537109375,-0.0582733154296875
1751013799555265500,2.691265625,-1.005340576171875,-0.1575164794921875,-0.060089111328125
1751013799565209300,2.701209228515625,-1.0144805908203125,-0.1611175537109375,-0.069732666015625
1751013799575152400,2.71115234375,-1.02227783203125,-0.15594482421875,-0.070068359375
1751013799585096400,2.721096435546875,-1.0255584716796875,-0.1467437744140625,-0.0688323974609375
1751013799595039500,2.73103955078125,-1.026031494140625,-0.13531494140625,-0.05804443359375
1751013799604983300,2.7409833984375,-1.0282745361328125,-0.12213134765625,-0.0477294921875
1751013799614926300,2.75092626953125,-1.0303192138671875,-0.1127166748046875,-0.0426025390625
1751013799624870400,2.760870361328125,-1.02978515625,-0.1068572998046875,-0.0410308837890625
1751013799634813200,2.770813232421875,-1.0285186767578125,-0.1038360595703125,-0.0364990234375
1751013799644757200,2.78075732421875,-1.02374267578125,-0.1058502197265625,-0.033782958984375
1751013799654700300,2.7907001953125,-1.016143798828125,-0.1103668212890625,-0.032470703125
1751013799664644400,2.800644287109375,-1.015411376953125,-0.1154632568359375,-0.032958984375
1751013799674587400,2.81058740234375,-1.012054443359375,-0.1236419677734375,-0.0340728759765625
1751013799684531500,2.820531494140625,-1.004241943359375,-0.134796142578125,-0.041107177734375
1751013799694475000,2.83047509765625,-0.9972686767578125,-0.144927978515625,-0.042877197265625
1751013799704418800,2.840418701171875,-0.9940338134765625,-0.1476287841796875,-0.0420074462890625
1751013799714361900,2.85036181640625,-0.9968719482421875,-0.147216796875,-0.0426483154296875
1751013799724306000,2.860305908203125,-0.997711181640625,-0.1464691162109375,-0.0448760986328125
1751013799734249000,2.8702490234375,-0.996673583984375,-0.14666748046875,-0.0506591796875
1751013799744192800,2.88019287109375,-1.000701904296875,-0.1407318115234375,-0.0515594482421875
1751013799754135800,2.8901357421875,-1.0059814453125,-0.1344757080078125,-0.051605224609375
1751013799764079900,2.900079833984375,-1.0076904296875,-0.1320953369140625,-0.0543060302734375
1751013799774023000,2.91002294921875,-1.0074005126953125,-0.1309356689453125,-0.0600433349609375
1751013799783966700,2.919966796875,-1.0072479248046875,-0.1332244873046875,-0.0644073486328125
1751013799793909800,2.92990966796875,-1.006927490234375,-0.1391448974609375,-0.0671844482421875
1751013799803853800,2.939853759765625,-1.0037689208984375,-0.15020751953125,-0.06890869140625
1751013799813796900,2.949796875,-1.004608154296875,-0.1549224853515625,-0.0659332275390625
1751013799823741000,2.959740966796875,-1.00982666015625,-0.14837646484375,-0.060211181640625
1751013799833683700,2.96968359375,-1.0121307373046875,-0.1400146484375,-0.0550384521484375
1751013799843628000,2.9796279296875,-1.01123046875,-0.139007568359375,-0.0561065673828125
1751013799853570800,2.98957080078125,-1.0158233642578125,-0.144561767578125,-0.06207275390625
1751013799863515000,2.999514892578125,-1.0186920166015625,-0.147491455078125,-0.061767578125
1751013799873458000,3.0094580078125,-1.014617919921875,-0.14837646484375,-0.0576934814453125
1751013799883402000,3.019402099609375,-1.0095367431640625,-0.1524658203125,-0.057373046875
1751013799893344800,3.0293447265625,-1.0039825439453125,-0.157684326171875,-0.05413818359375
1751013799903288800,3.039288818359375,-1.0022430419921875,-0.15631103515625,-0.0494842529296875
1751013799913232000,3.04923193359375,-0.998504638671875,-0.15386962890625,-0.052093505859375
1751013799923176000,3.059176025390625,-0.99249267578125,-0.1563568115234375,-0.0592498779296875
1751013799933118700,3.06911865234375,-0.9882659912109375,-0.1604156494140625,-0.0591583251953125
1751013799943062800,3.079062744140625,-0.98577880859375,-0.167755126953125,-0.065032958984375
1751013799953005800,3.089005859375,-0.9828643798828125,-0.1720123291015625,-0.065521240234375
1751013799962949600,3.09894970703125,-0.9801788330078125,-0.1749420166015625,-0.066131591796875
1751013799972892700,3.108892578125,-0.9808349609375,-0.17486572265625,-0.0641021728515625
1751013799982837000,3.1188369140625,-0.987152099609375,-0.174591064453125,-0.064727783203125
1751013799992780800,3.12878076171875,-0.990020751953125,-0.171661376953125,-0.0618896484375
1751013800002723800,3.138723876953125,-0.9888916015625,-0.1668548583984375,-0.0600128173828125
1751013800012668000,3.14866796875,-0.9897613525390625,-0.161590576171875,-0.059173583984375
1751013800022611000,3.15861083984375,-0.9960784912109375,-0.155426025390625,-0.0555419921875
1751013800032554800,3.1685546875,-0.99810791015625,-0.1526031494140625,-0.057891845703125
1751013800042497800,3.178497802734375,-0.9974212646484375,-0.1538238525390625,-0.060516357421875
1751013800052441900,3.18844189453125,-0.9998016357421875,-0.157257080078125,-0.0656890869140625
1751013800062385000,3.198385009765625,-0.9999847412109375,-0.163299560546875,-0.0660247802734375
1751013800072328700,3.20832861328125,-0.9911956787109375,-0.168792724609375,-0.0625152587890625
1751013800082271700,3.218271728515625,-0.9876861572265625,-0.166656494140625,-0.055389404296875
1751013800092215800,3.2282158203125,-0.9863433837890625,-0.1590576171875,-0.050323486328125
1751013800102158800,3.238158935546875,-0.988494873046875,-0.152557373046875,-0.0480499267578125
1751013800112102700,3.2481025390625,-0.993988037109375,-0.1501617431640625,-0.0471038818359375
1751013800122045700,3.258045654296875,-1.000244140625,-0.150787353515625,-0.0450439453125
1751013800131990000,3.267989990234375,-1.0034332275390625,-0.1523284912109375,-0.046295166015625
1751013800141933000,3.27793310546875,-1.008026123046875,-0.153350830078125,-0.0487823486328125
1751013800151876900,3.287876953125,-1.0135040283203125,-0.15911865234375,-0.056121826171875
1751013800161820000,3.29781982421875,-1.0159759521484375,-0.1622161865234375,-0.05615234375
1751013800171764000,3.307763916015625,-1.0181884765625,-0.1561279296875,-0.056060791015625
1751013800181707000,3.31770703125,-1.018157958984375,-0.1469879150390625,-0.063232421875
1751013800191650800,3.32765087890625,-1.017120361328125,-0.139923095703125,-0.0724029541015625
1751013800201593900,3.33759375,-1.0152130126953125,-0.1396331787109375,-0.0835113525390625
1751013800211538000,3.347537841796875,-1.011505126953125,-0.1443634033203125,-0.0867767333984375
1751013800221481000,3.35748095703125,-1.0034942626953125,-0.1517791748046875,-0.08599853515625
1751013800231424800,3.3674248046875,-0.9896392822265625,-0.162872314453125,-0.0746917724609375
1751013800241367800,3.377367919921875,-0.98370361328125,-0.1716156005859375,-0.0660400390625
1751013800251311900,3.387311767578125,-0.9870147705078125,-0.1753997802734375,-0.06402587890625
1751013800261255000,3.3972548828125,-0.99359130859375,-0.1749420166015625,-0.069061279296875
1751013800271198700,3.40719873046875,-1.0027008056640625,-0.1744384765625,-0.0768585205078125
1751013800281141800,3.417141845703125,-1.00885009765625,-0.1744842529296875,-0.08416748046875
1751013800291086000,3.427086181640625,-1.0136566162109375,-0.1744842529296875,-0.0899810791015625
1751013800301028600,3.437028564453125,-1.0149688720703125,-0.1739349365234375,-0.0905609130859375
1751013800310973000,3.446972900390625,-1.00384521484375,-0.17401123046875,-0.088623046875
1751013800320917000,3.4569169921875,-0.9984893798828125,-0.1762847900390625,-0.0767059326171875
1751013800330859800,3.46685986328125,-0.9968414306640625,-0.177032470703125,-0.0695037841796875
1751013800340803800,3.476803955078125,-0.9915924072265625,-0.179229736328125,-0.0727081298828125
1751013800350747000,3.486746826171875,-0.987701416015625,-0.181793212890625,-0.0729827880859375
1751013800360691000,3.49669091796875,-0.9886932373046875,-0.18328857421875,-0.0737457275390625
1751013800370633700,3.5066337890625,-0.9933013916015625,-0.185943603515625,-0.07427978515625
1751013800380577800,3.516577880859375,-0.9939727783203125,-0.1867523193359375,-0.0790557861328125
1751013800390520800,3.526520751953125,-0.9900970458984375,-0.1861724853515625,-0.079803466796875
1751013800400465000,3.53646484375,-0.992645263671875,-0.1798095703125,-0.071990966796875
1751013800410407700,3.54640771484375,-0.9969940185546875,-0.1749725341796875,-0.07269287109375
1751013800420351700,3.556351806640625,-0.9930419921875,-0.17230224609375,-0.076629638671875
1751013800430294800,3.566294677734375,-0.992431640625,-0.1654815673828125,-0.0752410888671875
1751013800440238800,3.57623876953125,-0.998321533203125,-0.1624908447265625,-0.076385498046875
1751013800450182000,3.586181884765625,-0.999176025390625,-0.1638031005859375,-0.076812744140625
1751013800460126000,3.5961259765625,-0.9967041015625,-0.16522216796875,-0.0807037353515625
1751013800470069000,3.606069091796875,-0.9967498779296875,-0.1678619384765625,-0.0803375244140625
1751013800480012800,3.6160126953125,-0.9947967529296875,-0.1674346923828125,-0.0769195556640625
1751013800489955800,3.625955810546875,-0.9885406494140625,-0.1683807373046875,-0.07373046875
1751013800499900000,3.63589990234375,-0.982147216796875,-0.1711578369140625,-0.0701904296875
1751013800509843000,3.645843017578125,-0.9830322265625,-0.172027587890625,-0.066131591796875
1751013800519786800,3.655786865234375,-0.9830169677734375,-0.1752777099609375,-0.0673065185546875
1751013800529729800,3.665729736328125,-0.9824066162109375,-0.17816162109375,-0.071136474609375
1751013800539673900,3.675673828125,-0.9864654541015625,-0.1808929443359375,-0.0776824951171875
1751013800549617000,3.685616943359375,-0.9874725341796875,-0.18865966796875,-0.0875091552734375
1751013800559560700,3.695560791015625,-0.9835357666015625,-0.1963653564453125,-0.09075927734375
1751013800569503700,3.705503662109375,-0.980926513671875,-0.2010650634765625,-0.08935546875
1751013800579447800,3.71544775390625,-0.9787445068359375,-0.1938934326171875,-0.0858154296875
1751013800589390800,3.725390869140625,-0.987060546875,-0.177093505859375,-0.0767822265625
1751013800599335000,3.7353349609375,-1.01031494140625,-0.15234375,-0.062347412109375
1751013800609279000,3.745279052734375,-1.005767822265625,-0.1667938232421875,-0.111328125
1751013800619222000,3.755221923828125,-0.9701080322265625,-0.178192138671875,-0.128204345703125
1751013800629165800,3.765165771484375,-0.9611968994140625,-0.16937255859375,-0.105010986328125
1751013800639108900,3.77510888671875,-0.982147216796875,-0.1473388671875,-0.0806884765625
1751013800649053000,3.785052978515625,-1.0045013427734375,-0.1368865966796875,-0.0650634765625
1751013800658996000,3.794995849609375,-1.0004119873046875,-0.148468017578125,-0.0648040771484375
1751013800668939800,3.804939697265625,-0.9962615966796875,-0.156585693359375,-0.0618133544921875
1751013800678882800,3.8148828125,-1.00006103515625,-0.1577911376953125,-0.0590667724609375
1751013800688827000,3.824826904296875,-1.0083770751953125,-0.1560821533203125,-0.0596466064453125
1751013800698775000,3.834775146484375,-1.0203704833984375,-0.1559906005859375,-0.064361572265625
1751013800708719000,3.844718994140625,-1.0230255126953125,-0.1577301025390625,-0.067047119140625
1751013800718662100,3.854662109375,-1.025238037109375,-0.1566162109375,-0.0745849609375
1751013800728606000,3.86460595703125,-1.0294342041015625,-0.151824951171875,-0.078704833984375
1751013800738549000,3.874549072265625,-1.0274505615234375,-0.14410400390625,-0.079071044921875
1751013800748493000,3.8844931640625,-1.0226898193359375,-0.1364593505859375,-0.0816497802734375
1751013800758435800,3.894435791015625,-1.02154541015625,-0.1352996826171875,-0.0844573974609375
1751013800768380000,3.9043798828125,-1.0178680419921875,-0.1368408203125,-0.0845794677734375
1751013800778323000,3.914322998046875,-1.01190185546875,-0.138031005859375,-0.086883544921875
1751013800788267000,3.92426708984375,-1.00372314453125,-0.143310546875,-0.0874786376953125
1751013800798209800,3.934209716796875,-0.9949188232421875,-0.1510162353515625,-0.084869384765625
1751013800808153900,3.94415380859375,-0.9915618896484375,-0.158203125,-0.0835113525390625
1751013800818097000,3.954096923828125,-0.98828125,-0.1613006591796875,-0.0825653076171875
1751013800828041000,3.964041015625,-0.990325927734375,-0.1637725830078125,-0.0794525146484375
1751013800837984000,3.97398388671875,-0.9932403564453125,-0.1654052734375,-0.076263427734375
1751013800847928000,3.983927978515625,-0.9928741455078125,-0.1653289794921875,-0.0779266357421875
1751013800857872100,3.9938720703125,-0.9949493408203125,-0.1582489013671875,-0.07928466796875
1751013800867815000,4.00381494140625,-0.9960784912109375,-0.1525421142578125,-0.0821075439453125
1751013800877759000,4.013759033203125,-0.997100830078125,-0.1505279541015625,-0.0825653076171875
1751013800887702000,4.023701904296875,-0.9944610595703125,-0.1530914306640625,-0.084503173828125
1751013800897645800,4.033645751953125,-0.990570068359375,-0.151397705078125,-0.0828704833984375
1751013800907588900,4.0435888671875,-0.9866943359375,-0.150726318359375,-0.078277587890625
1751013800917533000,4.053532958984375,-0.98162841796875,-0.1548309326171875,-0.075469970703125
1751013800927476000,4.06347607421875,-0.9790191650390625,-0.161773681640625,-0.0715484619140625
1751013800937419800,4.073419677734375,-0.9786376953125,-0.16339111328125,-0.0671234130859375
1751013800947362800,4.08336279296875,-0.9810028076171875,-0.1613922119140625,-0.0656280517578125
1751013800957307000,4.093306884765625,-0.9859771728515625,-0.15863037109375,-0.064300537109375
1751013800967250000,4.10325,-1.0023040771484375,-0.1541748046875,-0.072509765625
1751013800977194000,4.113194091796875,-1.0248870849609375,-0.1456451416015625,-0.09857177734375
1751013800987137000,4.123136962890625,-1.052947998046875,-0.137359619140625,-0.14410400390625
1751013800997081000,4.1330810546875,-1.07275390625,-0.146026611328125,-0.1692962646484375
1751013801007024000,4.143024169921875,-1.0650482177734375,-0.1602020263671875,-0.15557861328125
1751013801016968000,4.152968017578125,-1.0483551025390625,-0.1559600830078125,-0.1162109375
1751013801026911000,4.162910888671875,-1.0176544189453125,-0.1406402587890625,-0.070587158203125
1751013801036855000,4.17285498046875,-0.9967041015625,-0.1334686279296875,-0.039520263671875
1751013801046798000,4.182798095703125,-0.9844970703125,-0.1401824951171875,-0.024017333984375
1751013801056742000,4.192741943359375,-0.96868896484375,-0.152740478515625,-0.0127105712890625
1751013801066685000,4.202684814453125,-0.9622344970703125,-0.1668243408203125,-0.00616455078125
1751013801076629000,4.21262890625,-0.966583251953125,-0.177642822265625,-0.0056610107421875
1751013801086572000,4.222572021484375,-0.971649169921875,-0.1819610595703125,-0.0115509033203125
1751013801096515800,4.232515869140625,-0.9804840087890625,-0.1773681640625,-0.018218994140625
1751013801106460000,4.2424599609375,-0.9823455810546875,-0.175445556640625,-0.0348358154296875
1751013801116403000,4.25240283203125,-0.9862060546875,-0.1738128662109375,-0.0544281005859375
1751013801126347000,4.262346923828125,-0.993499755859375,-0.1702880859375,-0.063140869140625
1751013801136290000,4.2722900390625,-0.9899749755859375,-0.1695404052734375,-0.0630035400390625
1751013801146234000,4.282234130859375,-0.9886627197265625,-0.1661224365234375,-0.053558349609375
1751013801156177200,4.29217724609375,-0.9859619140625,-0.1617279052734375,-0.0416259765625
1751013801166121000,4.302120849609375,-0.9801177978515625,-0.161376953125,-0.0403594970703125
1751013801176064000,4.31206396484375,-0.983489990234375,-0.1639556884765625,-0.039581298828125
1751013801186008000,4.322008056640625,-0.9893646240234375,-0.1677398681640625,-0.04217529296875
1751013801195951000,4.331951171875,-0.9959716796875,-0.1744537353515625,-0.0496063232421875
1751013801205895000,4.34189501953125,-0.9993133544921875,-0.1857147216796875,-0.0574493408203125
1751013801215838000,4.351837890625,-1.00445556640625,-0.18927001953125,-0.0626220703125
1751013801225782000,4.361781982421875,-1.004150390625,-0.18316650390625,-0.0561981201171875
1751013801235724800,4.371724853515625,-1.002593994140625,-0.177581787109375,-0.0686187744140625
1751013801245668900,4.3816689453125,-1.0084991455078125,-0.1731719970703125,-0.0730438232421875
1751013801255612000,4.39161181640625,-1.007354736328125,-0.1639862060546875,-0.0650787353515625
1751013801265556000,4.401555908203125,-1.0058135986328125,-0.154388427734375,-0.059326171875
1751013801275498800,4.411498779296875,-1.0053253173828125,-0.1442413330078125,-0.05474853515625
1751013801285443000,4.421443115234375,-1.0074615478515625,-0.1434783935546875,-0.065155029296875
1751013801295386000,4.43138623046875,-1.0015106201171875,-0.1463165283203125,-0.089385986328125
1751013801305330000,4.441329833984375,-1.0048370361328125,-0.139190673828125,-0.0723724365234375
1751013801315273000,4.45127294921875,-1.015777587890625,-0.136627197265625,-0.0621490478515625
1751013801325217000,4.461217041015625,-1.0151824951171875,-0.1415863037109375,-0.0597991943359375
1751013801335160000,4.47116015625,-1.0060577392578125,-0.1491546630859375,-0.0626068115234375
1751013801345104000,4.481103759765625,-1.004547119140625,-0.1507110595703125,-0.0629730224609375
1751013801355047000,4.491046875,-1.0077056884765625,-0.1471405029296875,-0.0592498779296875
1751013801364991000,4.500990966796875,-1.0028076171875,-0.145538330078125,-0.0595245361328125
1751013801374934000,4.51093408203125,-0.99981689453125,-0.1414031982421875,-0.055755615234375
1751013801384877800,4.5208779296875,-1.0008544921875,-0.137939453125,-0.0524444580078125
1751013801394822000,4.53082177734375,-0.9998626708984375,-0.1329193115234375,-0.05377197265625
1751013801404765000,4.540764892578125,-0.9975128173828125,-0.131011962890625,-0.056640625
1751013801414708700,4.550708740234375,-0.995025634765625,-0.1341552734375,-0.0610809326171875
1751013801424651800,4.56065185546875,-0.9962310791015625,-0.137542724609375,-0.063720703125
1751013801434596000,4.57059619140625,-0.9971923828125,-0.1470184326171875,-0.0700225830078125
1751013801444539100,4.5805390625,-0.9924163818359375,-0.156005859375,-0.07232666015625
1751013801454483000,4.59048291015625,-0.9918212890625,-0.1568450927734375,-0.0697174072265625
1751013801464426000,4.600426025390625,-0.9945068359375,-0.155517578125,-0.0727996826171875
1751013801474370000,4.6103701171875,-0.9929046630859375,-0.1598358154296875,-0.0788421630859375
1751013801484313000,4.62031298828125,-0.9933624267578125,-0.1611785888671875,-0.0709228515625
1751013801494257000,4.6302568359375,-0.9909820556640625,-0.1596832275390625,-0.0719757080078125
1751013801504200000,4.640199951171875,-0.985595703125,-0.15521240234375,-0.075836181640625
1751013801514144000,4.65014404296875,-0.984466552734375,-0.1494293212890625,-0.0634765625
1751013801524087000,4.660087158203125,-0.9818878173828125,-0.1436004638671875,-0.0560302734375
1751013801534030800,4.67003076171875,-0.979949951171875,-0.1403045654296875,-0.05517578125
1751013801543974000,4.679973876953125,-0.98309326171875,-0.1387939453125,-0.0556640625
1751013801553918000,4.68991796875,-0.98931884765625,-0.1415252685546875,-0.0562896728515625
1751013801563861000,4.699861083984375,-0.9912261962890625,-0.146881103515625,-0.0573272705078125
1751013801573804800,4.7098046875,-0.9944915771484375,-0.14898681640625,-0.05389404296875
1751013801583747800,4.719747802734375,-1.0034027099609375,-0.1472015380859375,-0.047760009765625
1751013801593692200,4.729692138671875,-1.0048828125,-0.1483001708984375,-0.053375244140625
1751013801603635200,4.73963525390625,-1.00616455078125,-0.14141845703125,-0.0517578125
1751013801613579000,4.7495791015625,-1.0114288330078125,-0.1330108642578125,-0.054443359375
1751013801623522000,4.75952197265625,-1.0122833251953125,-0.1298370361328125,-0.05621337890625
1751013801633466000,4.769466064453125,-1.0110931396484375,-0.128662109375,-0.0536041259765625
1751013801643409000,4.779408935546875,-1.004913330078125,-0.130706787109375,-0.050079345703125
1751013801653353000,4.78935302734375,-1.00042724609375,-0.133514404296875,-0.046875
1751013801663296000,4.7992958984375,-0.9949493408203125,-0.142608642578125,-0.0430755615234375
1751013801673240000,4.809239990234375,-0.986083984375,-0.1530609130859375,-0.0413970947265625
1751013801683183900,4.819183837890625,-0.981353759765625,-0.1575164794921875,-0.0410919189453125
1751013801693121800,4.829121826171875,-0.9842071533203125,-0.1593780517578125,-0.0482177734375
1751013801703065900,4.83906591796875,-0.9930572509765625,-0.1549072265625,-0.0558929443359375
1751013801713009000,4.8490087890625,-1.002960205078125,-0.14581298828125,-0.0571441650390625
1751013801722953000,4.858952880859375,-1.0043487548828125,-0.14263916015625,-0.057342529296875
1751013801732895700,4.868895751953125,-1.0045623779296875,-0.1414337158203125,-0.0563201904296875
1751013801742839800,4.87883984375,-1.0145263671875,-0.131439208984375,-0.0517120361328125
1751013801752782800,4.888782958984375,-1.0203094482421875,-0.121826171875,-0.054443359375
1751013801762726700,4.8987265625,-1.0242919921875,-0.1148681640625,-0.05712890625
1751013801772669700,4.908669677734375,-1.0352325439453125,-0.10931396484375,-0.0633544921875
1751013801782613800,4.91861376953125,-1.037384033203125,-0.1117401123046875,-0.073272705078125
1751013801792556800,4.928556884765625,-1.0365142822265625,-0.1179962158203125,-0.0767364501953125
1751013801802500600,4.93850048828125,-1.0369720458984375,-0.1197357177734375,-0.0750732421875
1751013801812443600,4.948443603515625,-1.0337982177734375,-0.12255859375,-0.070281982421875
1751013801822387700,4.9583876953125,-1.0230560302734375,-0.1327362060546875,-0.0652008056640625
1751013801832330800,4.968330810546875,-1.0078582763671875,-0.139984130859375,-0.05767822265625
1751013801842274600,4.978274658203125,-1.00115966796875,-0.13995361328125,-0.0520172119140625
1751013801852217600,4.988217529296875,-0.998077392578125,-0.1410064697265625,-0.0433349609375
1751013801862162000,4.998161865234375,-0.989471435546875,-0.1471710205078125,-0.0433502197265625
1751013801872104700,5.008104736328125,-0.9883575439453125,-0.1518096923828125,-0.051727294921875
1751013801882048800,5.018048828125,-0.996185302734375,-0.1505126953125,-0.0587005615234375
1751013801891991800,5.02799169921875,-1.0004119873046875,-0.1520538330078125,-0.06103515625
1751013801901935900,5.037935791015625,-1.0020904541015625,-0.153656005859375,-0.0670928955078125
1751013801911879000,5.04787890625,-1.0016021728515625,-0.1515960693359375,-0.0667572021484375
1751013801921822700,5.05782275390625,-0.9996795654296875,-0.15057373046875,-0.0644378662109375
1751013801931765800,5.067765869140625,-0.9959716796875,-0.1512603759765625,-0.0598907470703125
1751013801941709800,5.077709716796875,-0.9902801513671875,-0.153350830078125,-0.055877685546875
1751013801951652900,5.08765283203125,-0.98638916015625,-0.1592559814453125,-0.0540313720703125
1751013801961596700,5.0975966796875,-0.98760986328125,-0.163299560546875,-0.0532989501953125
1751013801971539700,5.107539794921875,-0.9864654541015625,-0.1624755859375,-0.0512542724609375
1751013801981483800,5.11748388671875,-0.9857635498046875,-0.157470703125,-0.0485687255859375
1751013801991426800,5.1274267578125,-0.9882049560546875,-0.1502532958984375,-0.0500030517578125
1751013802001370600,5.13737060546875,-0.999267578125,-0.1435089111328125,-0.057769775390625
1751013802011313700,5.147313720703125,-1.0086212158203125,-0.1407470703125,-0.0670928955078125
1751013802021258000,5.157258056640625,-1.0140533447265625,-0.13885498046875,-0.0699310302734375
1751013802031200800,5.16720068359375,-1.0162811279296875,-0.1388702392578125,-0.0721588134765625
1751013802041144800,5.177144775390625,-1.014923095703125,-0.1431884765625,-0.075592041015625
1751013802051088000,5.187087890625,-1.012603759765625,-0.1519317626953125,-0.076904296875
1751013802061032000,5.197031982421875,-1.004669189453125,-0.1580657958984375,-0.072906494140625
1751013802070975700,5.206975830078125,-0.9962615966796875,-0.1568450927734375,-0.066558837890625
1751013802080918800,5.216918701171875,-0.99188232421875,-0.1539459228515625,-0.0573577880859375
1751013802090862800,5.22686279296875,-0.9922637939453125,-0.1568145751953125,-0.0531005859375
1751013802100805600,5.2368056640625,-0.9951324462890625,-0.1615447998046875,-0.0500335693359375
1751013802110749700,5.246749755859375,-0.9929046630859375,-0.1632080078125,-0.0475006103515625
1751013802120692700,5.256692626953125,-0.9923248291015625,-0.1617431640625,-0.048095703125
1751013802130636800,5.26663671875,-0.9911956787109375,-0.1602325439453125,-0.048309326171875
1751013802140579600,5.27657958984375,-0.98858642578125,-0.1584014892578125,-0.046905517578125
1751013802150523600,5.286523681640625,-0.995635986328125,-0.1538848876953125,-0.04351806640625
1751013802160466700,5.296466796875,-0.996856689453125,-0.1484832763671875,-0.0422821044921875
1751013802170410800,5.30641064453125,-0.995941162109375,-0.145233154296875,-0.042236328125
1751013802180353800,5.316353759765625,-1.0013275146484375,-0.1434173583984375,-0.0464324951171875
1751013802190297900,5.3262978515625,-1.004974365234375,-0.1430206298828125,-0.0489959716796875
1751013802200241000,5.336240966796875,-1.005218505859375,-0.1448211669921875,-0.0491180419921875
1751013802210184700,5.346184814453125,-1.006072998046875,-0.143585205078125,-0.0500030517578125
1751013802220127700,5.356127685546875,-1.0102996826171875,-0.1423492431640625,-0.0502471923828125
1751013802230071800,5.36607177734375,-1.0081024169921875,-0.1446990966796875,-0.05450439453125
1751013802240014800,5.376014892578125,-1.0040435791015625,-0.1470794677734375,-0.0517120361328125
1751013802249958700,5.385958740234375,-1.003753662109375,-0.1543426513671875,-0.049835205078125
1751013802259901700,5.395901611328125,-1.0030670166015625,-0.1646881103515625,-0.0529632568359375
1751013802269845800,5.405845703125,-1.0025482177734375,-0.1688690185546875,-0.057373046875
1751013802279788800,5.415788818359375,-1.0061187744140625,-0.16912841796875,-0.056488037109375
1751013802289732600,5.425732666015625,-1.012481689453125,-0.1679229736328125,-0.0562286376953125
1751013802299675600,5.435675537109375,-1.0106964111328125,-0.1676025390625,-0.055328369140625
1751013802309619700,5.44561962890625,-1.0067138671875,-0.1651153564453125,-0.048309326171875
1751013802319562800,5.455562744140625,-1.0081329345703125,-0.16192626953125,-0.0426483154296875
1751013802329506800,5.4655068359375,-1.008331298828125,-0.162506103515625,-0.04864501953125
1751013802339449600,5.47544970703125,-1.005859375,-0.1645660400390625,-0.0521087646484375
1751013802349394000,5.485393798828125,-1.0056915283203125,-0.167388916015625,-0.0536956787109375
1751013802359337000,5.4953369140625,-1.0055694580078125,-0.166534423828125,-0.047607421875
1751013802369280800,5.50528076171875,-1.002349853515625,-0.1626739501953125,-0.0419769287109375
1751013802379223800,5.515223876953125,-1.000579833984375,-0.159210205078125,-0.0417022705078125
1751013802389167900,5.52516796875,-1.0017242431640625,-0.15557861328125,-0.0406341552734375
1751013802399111000,5.53511083984375,-1.00152587890625,-0.1549072265625,-0.0426177978515625
1751013802409054700,5.5450546875,-0.99688720703125,-0.1580657958984375,-0.04791259765625
1751013802418997800,5.554997802734375,-0.9943084716796875,-0.1625823974609375,-0.047149658203125
1751013802428941800,5.56494189453125,-0.9914398193359375,-0.16583251953125,-0.04638671875
1751013802438884600,5.574884521484375,-0.993560791015625,-0.1665496826171875,-0.0459747314453125
1751013802448828700,5.58482861328125,-0.991455078125,-0.169647216796875,-0.049468994140625
1751013802458771700,5.594771728515625,-0.987884521484375,-0.175506591796875,-0.052276611328125
1751013802468715800,5.6047158203125,-0.9813690185546875,-0.1804962158203125,-0.04779052734375
1751013802478658600,5.614658447265625,-0.980682373046875,-0.174591064453125,-0.0413055419921875
1751013802488603000,5.624602783203125,-0.9849700927734375,-0.1654815673828125,-0.036529541015625
1751013802498545700,5.634545654296875,-0.982879638671875,-0.1601104736328125,-0.0370941162109375
1751013802508489700,5.64448974609375,-0.9848785400390625,-0.1561279296875,-0.035125732421875
1751013802518432800,5.654432861328125,-0.9938201904296875,-0.1528778076171875,-0.0289306640625
1751013802528376800,5.664376953125,-0.9996185302734375,-0.152069091796875,-0.03179931640625
1751013802538320000,5.67431982421875,-0.9988250732421875,-0.1534576416015625,-0.036102294921875
1751013802548263700,5.684263671875,-1.0022735595703125,-0.1565399169921875,-0.0396728515625
1751013802558207700,5.694207763671875,-1.002716064453125,-0.1607818603515625,-0.0411529541015625
1751013802568150800,5.70415087890625,-1.00018310546875,-0.1636962890625,-0.0435028076171875
1751013802578094800,5.7140947265625,-1.00372314453125,-0.1661834716796875,-0.046539306640625
1751013802588037600,5.72403759765625,-1.007843017578125,-0.16937255859375,-0.0462493896484375
1751013802597981700,5.733981689453125,-1.0036163330078125,-0.170379638671875,-0.04620361328125
1751013802607924700,5.7439248046875,-1.00421142578125,-0.169281005859375,-0.0439605712890625
1751013802617868500,5.75386865234375,-1.007965087890625,-0.165985107421875,-0.0435028076171875
1751013802627811600,5.7638115234375,-1.0074615478515625,-0.1645965576171875,-0.046051025390625
1751013802637756000,5.773755859375,-1.009490966796875,-0.164306640625,-0.04754638671875
1751013802647699000,5.783698974609375,-1.013671875,-0.163177490234375,-0.05035400390625
1751013802657642800,5.793642822265625,-1.014801025390625,-0.1646575927734375,-0.0584564208984375
1751013802667585800,5.803585693359375,-1.0235137939453125,-0.1678466796875,-0.066070556640625
1751013802677529900,5.81352978515625,-1.028533935546875,-0.1701507568359375,-0.0630645751953125
1751013802687473000,5.823472900390625,-1.0210113525390625,-0.1703948974609375,-0.05755615234375
1751013802697416400,5.83341650390625,-1.0115814208984375,-0.170623779296875,-0.04833984375
1751013802707359500,5.843359375,-1.0069580078125,-0.166900634765625,-0.0388641357421875
1751013802717303600,5.853303466796875,-1.0088958740234375,-0.16461181640625,-0.0355682373046875
1751013802727246600,5.86324658203125,-1.0040740966796875,-0.163665771484375,-0.026092529296875
1751013802737190400,5.8731904296875,-0.9968719482421875,-0.1669464111328125,-0.027374267578125
1751013802747133400,5.883133544921875,-0.9950714111328125,-0.1683502197265625,-0.0303802490234375
1751013802757077800,5.893077880859375,-0.9953765869140625,-0.17047119140625,-0.0376434326171875
1751013802767020800,5.903020751953125,-1.0014801025390625,-0.1702728271484375,-0.0430450439453125
1751013802776964600,5.912964599609375,-1.0029296875,-0.1720733642578125,-0.048614501953125
1751013802786907600,5.92290771484375,-1.0028228759765625,-0.1707000732421875,-0.05047607421875
1751013802796851700,5.932851806640625,-0.9991302490234375,-0.1661224365234375,-0.0474853515625
1751013802806794800,5.942794677734375,-0.9961395263671875,-0.1629791259765625,-0.0413818359375
1751013802816738600,5.952738525390625,-0.997314453125,-0.1617431640625,-0.0360565185546875
1751013802826681600,5.962681640625,-0.9927215576171875,-0.1634368896484375,-0.0365447998046875
1751013802836625700,5.972625732421875,-0.989044189453125,-0.164154052734375,-0.0365142822265625
1751013802846568700,5.982568603515625,-0.9903411865234375,-0.1638031005859375,-0.0325469970703125
1751013802856512500,5.992512451171875,-0.99176025390625,-0.16558837890625,-0.030792236328125
1751013802866455600,6.00245556640625,-0.9908447265625,-0.1686859130859375,-0.03631591796875
1751013802876399600,6.012399658203125,-0.9910430908203125,-0.1712799072265625,-0.0431365966796875
1751013802886342400,6.02234228515625,-0.99249267578125,-0.1746368408203125,-0.047454833984375
1751013802896286500,6.032286376953125,-1.0015869140625,-0.1751251220703125,-0.0458526611328125
1751013802906229500,6.0422294921875,-1.008087158203125,-0.1684417724609375,-0.04010009765625
1751013802916173800,6.052173828125,-1.0029144287109375,-0.16387939453125,-0.035736083984375
1751013802926116600,6.06211669921875,-1.0031890869140625,-0.1604461669921875,-0.0299224853515625
1751013802936060700,6.072060791015625,-1.0029754638671875,-0.155303955078125,-0.019683837890625
1751013802946003700,6.082003662109375,-1.0036163330078125,-0.1568756103515625,-0.0132293701171875
1751013802955947500,6.091947509765625,-1.0062408447265625,-0.167510986328125,-0.0185546875
1751013802965890600,6.101890625,-1.0086822509765625,-0.169403076171875,-0.0179901123046875
1751013802975834600,6.111834716796875,-1.0094146728515625,-0.1633148193359375,-0.02001953125
1751013802985777700,6.121777587890625,-1.010101318359375,-0.15887451171875,-0.024017333984375
1751013802995721500,6.131721435546875,-1.0090789794921875,-0.1581573486328125,-0.0278472900390625
1751013803005664500,6.14166455078125,-1.0069427490234375,-0.15728759765625,-0.033416748046875
1751013803015608600,6.151608642578125,-1.0033416748046875,-0.1573944091796875,-0.033538818359375
1751013803025551600,6.161551513671875,-0.99530029296875,-0.160980224609375,-0.0298309326171875
1751013803035495400,6.171495361328125,-0.9885406494140625,-0.165679931640625,-0.0223541259765625
1751013803045438500,6.1814384765625,-0.98614501953125,-0.167816162109375,-0.016021728515625
1751013803055382500,6.191382568359375,-0.9815826416015625,-0.1693267822265625,-0.0108795166015625
1751013803065325600,6.20132568359375,-0.979248046875,-0.1678009033203125,-0.0090789794921875
1751013803075269600,6.21126953125,-0.9842376708984375,-0.16656494140625,-0.011810302734375
1751013803085212700,6.221212646484375,-0.9915771484375,-0.1641845703125,-0.018463134765625
1751013803095156700,6.23115673828125,-0.997650146484375,-0.164520263671875,-0.023101806640625
1751013803105099800,6.241099853515625,-1.0040283203125,-0.1634674072265625,-0.02777099609375
1751013803115043600,6.251043701171875,-1.0068359375,-0.1603546142578125,-0.03143310546875
1751013803124986600,6.260986572265625,-1.002105712890625,-0.1604766845703125,-0.034698486328125
1751013803134930700,6.2709306640625,-0.99493408203125,-0.1630401611328125,-0.033966064453125
1751013803144873700,6.280873779296875,-0.993133544921875,-0.1661529541015625,-0.0313568115234375
1751013803154817500,6.290817626953125,-0.992156982421875,-0.1654510498046875,-0.0259552001953125
1751013803164760600,6.300760498046875,-0.987457275390625,-0.166259765625,-0.0216217041015625
1751013803174704600,6.31070458984375,-0.9841156005859375,-0.1653900146484375,-0.02197265625
1751013803184647700,6.320647705078125,-0.9850921630859375,-0.167449951171875,-0.0289306640625
1751013803194591500,6.330591552734375,-0.989990234375,-0.171295166015625,-0.043060302734375
1751013803204534500,6.340534423828125,-0.9962310791015625,-0.173370361328125,-0.051971435546875
1751013803214478600,6.350478515625,-1.0022430419921875,-0.17498779296875,-0.05914306640625
1751013803224421400,6.36042138671875,-1.0027923583984375,-0.1800689697265625,-0.0633087158203125
1751013803234365700,6.37036572265625,-1.0047607421875,-0.18365478515625,-0.0694427490234375
1751013803244309800,6.380309814453125,-1.0111541748046875,-0.18182373046875,-0.0717926025390625
1751013803254252800,6.390252685546875,-1.01025390625,-0.179595947265625,-0.0716705322265625
1751013803264195600,6.400195556640625,-1.0046844482421875,-0.1807403564453125,-0.06622314453125
1751013803274139600,6.4101396484375,-1.002655029296875,-0.1804962158203125,-0.056243896484375
1751013803284082700,6.420082763671875,-1.004241943359375,-0.178955078125,-0.0487060546875
1751013803294026500,6.430026611328125,-1.0042266845703125,-0.17840576171875,-0.0489654541015625
1751013803303970600,6.439970458984375,-1.00164794921875,-0.1794281005859375,-0.04986572265625
1751013803313913600,6.44991357421875,-1.005615234375,-0.1786041259765625,-0.05035400390625
1751013803323857700,6.459857666015625,-1.0095062255859375,-0.1814727783203125,-0.0536346435546875
1751013803333800400,6.469800537109375,-1.005645751953125,-0.18280029296875,-0.0531463623046875
1751013803343744500,6.47974462890625,-1.004150390625,-0.1809844970703125,-0.05322265625
1751013803353687600,6.4896875,-1.0035400390625,-0.1787261962890625,-0.05322265625
1751013803363631400,6.49963134765625,-1.0011138916015625,-0.1772918701171875,-0.0515899658203125
1751013803373574400,6.509574462890625,-0.99993896484375,-0.1763916015625,-0.0524139404296875
1751013803383518700,6.519518798828125,-1.001007080078125,-0.176300048828125,-0.0507965087890625
1751013803393461800,6.529461669921875,-0.9997711181640625,-0.17669677734375,-0.0467071533203125
1751013803403405600,6.539405517578125,-0.9988250732421875,-0.1776275634765625,-0.0450592041015625
1751013803413348600,6.5493486328125,-0.99658203125,-0.177703857421875,-0.0464935302734375
1751013803423292700,6.559292724609375,-0.996734619140625,-0.173309326171875,-0.04290771484375
1751013803433235700,6.569235595703125,-0.993988037109375,-0.1725616455078125,-0.046722412109375
1751013803443179500,6.579179443359375,-0.988739013671875,-0.1761932373046875,-0.048095703125
1751013803453122600,6.58912255859375,-0.991546630859375,-0.1765289306640625,-0.047088623046875
1751013803463066600,6.599066650390625,-0.9958953857421875,-0.1774139404296875,-0.050537109375
1751013803473009700,6.609009765625,-0.9973907470703125,-0.1807708740234375,-0.05560302734375
1751013803482953500,6.618953369140625,-1.001007080078125,-0.1826171875,-0.0562286376953125
1751013803492896500,6.628896484375,-0.9990386962890625,-0.1813812255859375,-0.05426025390625
1751013803502840600,6.638840576171875,-0.9983367919921875,-0.1799774169921875,-0.05096435546875
1751013803512783600,6.64878369140625,-0.9971923828125,-0.174407958984375,-0.0453338623046875
1751013803522727400,6.6587275390625,-0.9930419921875,-0.172088623046875,-0.0453643798828125
1751013803532670500,6.66867041015625,-0.9892730712890625,-0.1758270263671875,-0.045928955078125
1751013803542614800,6.67861474609375,-0.9873504638671875,-0.1788787841796875,-0.0444183349609375
1751013803552557800,6.688557861328125,-0.985809326171875,-0.181182861328125,-0.0414276123046875
1751013803562501600,6.698501708984375,-0.9867706298828125,-0.1841278076171875,-0.041748046875
1751013803572444700,6.708444580078125,-0.991607666015625,-0.1859588623046875,-0.04351806640625
1751013803582388700,6.718388671875,-0.992645263671875,-0.1902923583984375,-0.044464111328125
1751013803592331500,6.72833154296875,-0.9943695068359375,-0.1949310302734375,-0.0470428466796875
1751013803602275600,6.738275634765625,-0.996490478515625,-0.1961517333984375,-0.0471038818359375
1751013803612218600,6.748218505859375,-0.9924163818359375,-0.196136474609375,-0.04339599609375
1751013803622162700,6.75816259765625,-0.9891510009765625,-0.1941680908203125,-0.0407867431640625
1751013803632105500,6.76810546875,-0.993621826171875,-0.185394287109375,-0.035552978515625
1751013803642049500,6.778049560546875,-1.0021209716796875,-0.1764984130859375,-0.0350189208984375
1751013803651992600,6.78799267578125,-1.004608154296875,-0.1736602783203125,-0.0365753173828125
1751013803661936600,6.7979365234375,-1.005706787109375,-0.1739959716796875,-0.037261962890625
1751013803671879400,6.80787939453125,-1.006622314453125,-0.1707916259765625,-0.0339813232421875
1751013803681823500,6.817823486328125,-0.999725341796875,-0.1642303466796875,-0.031463623046875
1751013803691766500,6.8277666015625,-0.994964599609375,-0.16217041015625,-0.0322723388671875
1751013803701710600,6.837710693359375,-0.9969635009765625,-0.159912109375,-0.0307159423828125
1751013803711653600,6.847653564453125,-0.9971771240234375,-0.1607208251953125,-0.0281829833984375
1751013803721597700,6.85759765625,-0.9904632568359375,-0.1661376953125,-0.028564453125
1751013803731540700,6.867540771484375,-0.9907379150390625,-0.16943359375,-0.0274200439453125
1751013803741484500,6.877484619140625,-0.995819091796875,-0.171630859375,-0.0252532958984375
1751013803751427600,6.887427490234375,-0.996185302734375,-0.1763763427734375,-0.0270233154296875
1751013803761371600,6.89737158203125,-0.9965057373046875,-0.1780242919921875,-0.02703857421875
1751013803771314700,6.907314697265625,-1.0009307861328125,-0.1762847900390625,-0.028594970703125
1751013803781258800,6.9172587890625,-1.00396728515625,-0.17462158203125,-0.029632568359375
1751013803791201800,6.927201904296875,-1.0074005126953125,-0.172149658203125,-0.028961181640625
1751013803801145900,6.937145751953125,-1.0083160400390625,-0.171905517578125,-0.034088134765625
1751013803811089000,6.9470888671875,-1.006622314453125,-0.1721649169921875,-0.0365447998046875
1751013803821032700,6.95703271484375,-1.0055389404296875,-0.1734771728515625,-0.0384368896484375
1751013803830975700,6.966975830078125,-1.0041656494140625,-0.1791534423828125,-0.0355682373046875
1751013803840919800,6.976919921875,-1.0031585693359375,-0.1812744140625,-0.0341796875
1751013803850862800,6.98686279296875,-0.99945068359375,-0.1823577880859375,-0.0344696044921875
1751013803860806700,6.996806640625,-0.996063232421875,-0.189422607421875,-0.0360565185546875
1751013803870749700,7.006749755859375,-0.9945831298828125,-0.1919708251953125,-0.0369720458984375
1751013803880693800,7.01669384765625,-0.993743896484375,-0.18994140625,-0.041229248046875
1751013803890636800,7.02663671875,-0.9929656982421875,-0.1894073486328125,-0.042877197265625
1751013803900580600,7.03658056640625,-0.99517822265625,-0.190582275390625,-0.04583740234375
1751013803910523600,7.046523681640625,-0.995849609375,-0.1905059814453125,-0.0458526611328125
1751013803920467700,7.0564677734375,-0.9967803955078125,-0.18731689453125,-0.047576904296875
1751013803930410500,7.066410400390625,-0.9985809326171875,-0.18414306640625,-0.0473480224609375
1751013803940354800,7.076354736328125,-0.99560546875,-0.1830902099609375,-0.0431976318359375
1751013803950297900,7.0862978515625,-0.99163818359375,-0.181671142578125,-0.042938232421875
1751013803960242000,7.096241943359375,-0.9847869873046875,-0.1827239990234375,-0.0380401611328125
1751013803970184700,7.106184814453125,-0.9815826416015625,-0.182037353515625,-0.032318115234375
1751013803980128800,7.116128662109375,-0.9848175048828125,-0.1828155517578125,-0.0253143310546875
1751013803990071800,7.12607177734375,-0.991973876953125,-0.1869964599609375,-0.0225677490234375
1751013804000015600,7.136015625,-0.9925384521484375,-0.1892547607421875,-0.022216796875
1751013804009958700,7.145958740234375,-0.99249267578125,-0.191253662109375,-0.026641845703125
1751013804019902700,7.15590283203125,-0.9983673095703125,-0.1895599365234375,-0.0274505615234375
1751013804029845800,7.165845703125,-1.0027008056640625,-0.1834869384765625,-0.030517578125
1751013804039789600,7.17578955078125,-1.0023345947265625,-0.1794891357421875,-0.035888671875
1751013804049732600,7.185732666015625,-1.00030517578125,-0.1781768798828125,-0.034454345703125
1751013804059676700,7.1956767578125,-1.0029144287109375,-0.1798858642578125,-0.03497314453125
1751013804069619700,7.20561962890625,-1.00543212890625,-0.1841888427734375,-0.0335845947265625
1751013804079563500,7.2155634765625,-1.006866455078125,-0.1866607666015625,-0.0276947021484375
1751013804089506600,7.225506591796875,-1.004730224609375,-0.1911163330078125,-0.03106689453125
1751013804099451000,7.235450927734375,-1.001220703125,-0.1962432861328125,-0.0333404541015625
1751013804109394000,7.245393798828125,-0.99920654296875,-0.1943817138671875,-0.0291748046875
1751013804119337700,7.255337646484375,-0.9987945556640625,-0.19537353515625,-0.0304107666015625
1751013804129280800,7.26528076171875,-0.9966888427734375,-0.198577880859375,-0.03106689453125
1751013804139224800,7.275224853515625,-0.99566650390625,-0.2029571533203125,-0.033172607421875
1751013804149167900,7.28516796875,-0.9932708740234375,-0.207489013671875,-0.0356597900390625
1751013804159111700,7.295111572265625,-0.989013671875,-0.211517333984375,-0.0369873046875
1751013804169054700,7.3050546875,-0.9856414794921875,-0.215728759765625,-0.037445068359375
1751013804178998800,7.314998779296875,-0.985687255859375,-0.2163848876953125,-0.0378570556640625
1751013804188941800,7.32494189453125,-0.9873199462890625,-0.21630859375,-0.042633056640625
1751013804198885600,7.3348857421875,-0.9909515380859375,-0.2105865478515625,-0.047027587890625
1751013804208828700,7.34482861328125,-0.998687744140625,-0.2046356201171875,-0.047760009765625
1751013804218772700,7.354772705078125,-1.0034027099609375,-0.1957855224609375,-0.0439453125
1751013804228715800,7.3647158203125,-0.998809814453125,-0.1898193359375,-0.0468597412109375
1751013804238659600,7.37465966796875,-0.9975738525390625,-0.1875457763671875,-0.0496978759765625
1751013804248602600,7.3846025390625,-0.9964752197265625,-0.1887054443359375,-0.047607421875
1751013804258547000,7.394546875,-0.9936981201171875,-0.1915130615234375,-0.0449066162109375
1751013804268489700,7.40448974609375,-0.9874267578125,-0.1971282958984375,-0.0398712158203125
1751013804278433800,7.414433837890625,-0.9796142578125,-0.2073516845703125,-0.037872314453125
1751013804288376800,7.424376953125,-0.973602294921875,-0.216400146484375,-0.0364990234375
1751013804298321000,7.43432080078125,-0.9719085693359375,-0.21881103515625,-0.033355712890625
1751013804308263700,7.444263671875,-0.970916748046875,-0.2173919677734375,-0.0296783447265625
1751013804318207700,7.454207763671875,-0.9727630615234375,-0.2125701904296875,-0.025177001953125
1751013804328150800,7.46415087890625,-0.9799652099609375,-0.2049102783203125,-0.02496337890625
1751013804338094600,7.474094482421875,-0.982330322265625,-0.19586181640625,-0.030731201171875
1751013804348037600,7.48403759765625,-0.99072265625,-0.1875152587890625,-0.0340576171875
1751013804357981700,7.493981689453125,-0.99969482421875,-0.1836395263671875,-0.0364990234375
1751013804367924700,7.5039248046875,-1.0008697509765625,-0.18310546875,-0.0397796630859375
1751013804377868500,7.51386865234375,-0.9987030029296875,-0.1833953857421875,-0.041656494140625
1751013804387811600,7.5238115234375,-0.9950103759765625,-0.1870574951171875,-0.0410003662109375
1751013804397755600,7.533755615234375,-0.994232177734375,-0.1936492919921875,-0.040191650390625
1751013804407698700,7.54369873046875,-0.9981689453125,-0.197052001953125,-0.0385589599609375
1751013804417642800,7.553642822265625,-1.00238037109375,-0.1971588134765625,-0.0393829345703125
1751013804427585500,7.56358544921875,-1.005828857421875,-0.1972808837890625,-0.0424652099609375
1751013804437529900,7.57352978515625,-1.0106048583984375,-0.1995391845703125,-0.0464935302734375
1751013804447473000,7.583472900390625,-1.0123138427734375,-0.2006988525390625,-0.0492706298828125
1751013804457416700,7.593416748046875,-1.0111846923828125,-0.198089599609375,-0.050994873046875
1751013804467359700,7.60335986328125,-1.0120086669921875,-0.1937255859375,-0.0460052490234375
1751013804477303800,7.6133037109375,-1.007904052734375,-0.19171142578125,-0.04364013671875
1751013804487246800,7.623246826171875,-1.0041961669921875,-0.196319580078125,-0.04132080078125
1751013804497190700,7.633190673828125,-1.00335693359375,-0.1983795166015625,-0.035614013671875
1751013804507133700,7.6431337890625,-0.998809814453125,-0.2007904052734375,-0.034942626953125
1751013804517077800,7.653077880859375,-0.9911651611328125,-0.205810546875,-0.0338287353515625
1751013804527020800,7.663020751953125,-0.9908905029296875,-0.2077484130859375,-0.0328216552734375
1751013804536964600,7.672964599609375,-0.98809814453125,-0.2098846435546875,-0.037139892578125
1751013804546907600,7.68290771484375,-0.986358642578125,-0.2121734619140625,-0.04205322265625
1751013804556851700,7.692851806640625,-0.9868316650390625,-0.2131500244140625,-0.0460357666015625
1751013804566794800,7.702794677734375,-0.984893798828125,-0.2144317626953125,-0.0485382080078125
1751013804576738800,7.71273876953125,-0.979095458984375,-0.21502685546875,-0.0445404052734375
1751013804586681600,7.722681640625,-0.977203369140625,-0.21319580078125,-0.0386505126953125
1751013804596626000,7.7326259765625,-0.97662353515625,-0.215301513671875,-0.0401763916015625
1751013804606568700,7.742568603515625,-0.970428466796875,-0.216827392578125,-0.034576416015625
1751013804616512800,7.7525126953125,-0.9652862548828125,-0.2161407470703125,-0.02960205078125
1751013804626455800,7.762455810546875,-0.960235595703125,-0.21746826171875,-0.0298309326171875
1751013804636399900,7.77239990234375,-0.957183837890625,-0.215545654296875,-0.02288818359375
1751013804646342700,7.7823427734375,-0.9553375244140625,-0.217681884765625,-0.0222015380859375
1751013804656286700,7.79228662109375,-0.9499359130859375,-0.2203521728515625,-0.026824951171875
1751013804666229800,7.802229736328125,-0.9489898681640625,-0.2178497314453125,-0.0276336669921875
1751013804676173600,7.812173583984375,-0.961578369140625,-0.2127532958984375,-0.0199737548828125
1751013804686117600,7.82211767578125,-0.9757080078125,-0.2106781005859375,-0.017913818359375
1751013804696060200,7.83206005859375,-0.98529052734375,-0.214630126953125,-0.0242156982421875
1751013804706004500,7.84200439453125,-0.9942474365234375,-0.216217041015625,-0.02691650390625
1751013804715947300,7.851947265625,-0.9963531494140625,-0.2127532958984375,-0.0331573486328125
1751013804725891300,7.861891357421875,-1.0010986328125,-0.2134552001953125,-0.0398101806640625
1751013804735834400,7.87183447265625,-1.0131072998046875,-0.214141845703125,-0.0367889404296875
1751013804745778400,7.8817783203125,-1.0220947265625,-0.2124786376953125,-0.03131103515625
1751013804755721200,7.89172119140625,-1.0172119140625,-0.21044921875,-0.03265380859375
1751013804765664300,7.901664306640625,-1.018096923828125,-0.2088623046875,-0.032135009765625
1751013804775608300,7.9116083984375,-1.0234375,-0.20745849609375,-0.0298919677734375
1751013804785552400,7.921552490234375,-1.0181732177734375,-0.2090911865234375,-0.0310821533203125
1751013804795495200,7.9314951171875,-1.010498046875,-0.2132720947265625,-0.03387451171875
1751013804805439200,7.941439208984375,-1.0099945068359375,-0.2176513671875,-0.0369110107421875
1751013804815382300,7.95138232421875,-0.99969482421875,-0.2271728515625,-0.05291748046875
1751013804825325300,7.9613251953125,-0.98944091796875,-0.23052978515625,-0.054534912109375
1751013804835269000,7.97126904296875,-1.0030975341796875,-0.222259521484375,-0.031005859375
1751013804845213200,7.981213134765625,-1.0072479248046875,-0.2258758544921875,-0.0313873291015625
1751013804855156200,7.99115625,-0.9947052001953125,-0.23785400390625,-0.032257080078125
1751013804865100000,8.00110009765625,-0.9842987060546875,-0.2422332763671875,-0.0377655029296875
1751013804875043000,8.01104296875,-0.983428955078125,-0.236724853515625,-0.037445068359375
1751013804884987400,8.0209873046875,-0.9828643798828125,-0.2316741943359375,-0.033447265625
1751013804894930400,8.030930419921875,-0.98553466796875,-0.2278594970703125,-0.02734375
1751013804904874200,8.040874267578126,-0.984649658203125,-0.2277374267578125,-0.0273590087890625
1751013804914817300,8.0508173828125,-0.980804443359375,-0.2265625,-0.0294952392578125
1751013804924761300,8.06076123046875,-0.985260009765625,-0.2218017578125,-0.030303955078125
1751013804934704400,8.070704345703126,-0.9893798828125,-0.21673583984375,-0.030731201171875
1751013804944648200,8.080648193359375,-0.9870758056640625,-0.215789794921875,-0.0286102294921875
1751013804954591200,8.09059130859375,-0.9847259521484375,-0.2137603759765625,-0.0283203125
1751013804964535300,8.100535400390624,-0.98541259765625,-0.2088470458984375,-0.023712158203125
1751013804974478300,8.110478271484375,-0.9866790771484375,-0.2103424072265625,-0.0243988037109375
1751013804984422100,8.120422119140626,-0.9838409423828125,-0.2117767333984375,-0.0222015380859375
1751013804994365200,8.130365234375,-0.9850921630859375,-0.2143096923828125,-0.020751953125
1751013805004309200,8.140309326171876,-0.985198974609375,-0.216064453125,-0.017364501953125
1751013805014252300,8.150252197265624,-0.9828948974609375,-0.217559814453125,-0.0180816650390625
1751013805024196000,8.160196044921875,-0.9840240478515625,-0.2174072265625,-0.0225372314453125
1751013805034139100,8.17013916015625,-0.9884185791015625,-0.2158203125,-0.0284576416015625
1751013805044083500,8.18008349609375,-0.9929656982421875,-0.212738037109375,-0.030670166015625
1751013805054026200,8.190026123046875,-0.993988037109375,-0.2098541259765625,-0.034027099609375
1751013805063970300,8.19997021484375,-0.9961395263671875,-0.2054443359375,-0.036956787109375
1751013805073913300,8.209913330078125,-0.9972076416015625,-0.20306396484375,-0.0373382568359375
1751013805083857400,8.219857421875,-0.9995269775390625,-0.20281982421875,-0.038909912109375
1751013805093800200,8.22980029296875,-0.999786376953125,-0.20269775390625,-0.0348358154296875
1751013805103744300,8.239744140625,-0.996551513671875,-0.205047607421875,-0.0388031005859375
1751013805113687300,8.249687255859374,-0.9916839599609375,-0.2065887451171875,-0.0371856689453125
1751013805123631400,8.25963134765625,-0.988800048828125,-0.2039947509765625,-0.0311126708984375
1751013805133574100,8.26957421875,-0.9860382080078125,-0.2020263671875,-0.03228759765625
1751013805143518200,8.279518310546875,-0.988372802734375,-0.203155517578125,-0.0352935791015625
1751013805153461200,8.289461181640625,-0.99151611328125,-0.2032318115234375,-0.039306640625
1751013805163405000,8.299405029296874,-0.9947357177734375,-0.2028350830078125,-0.0467071533203125
1751013805173348000,8.30934814453125,-0.9947509765625,-0.2047882080078125,-0.048309326171875
1751013805183292200,8.319292236328126,-0.9914093017578125,-0.2061614990234375,-0.0449371337890625
1751013805193235200,8.329235107421875,-0.9906768798828125,-0.202850341796875,-0.0430908203125
1751013805203179300,8.33917919921875,-0.99383544921875,-0.1976776123046875,-0.0381927490234375
1751013805213122300,8.349122314453124,-0.98956298828125,-0.1983795166015625,-0.0343170166015625
1751013805223066400,8.35906640625,-0.9888916015625,-0.20172119140625,-0.034912109375
1751013805233009400,8.369009521484376,-0.9921112060546875,-0.2007598876953125,-0.0373382568359375
1751013805242953200,8.378953125,-0.991790771484375,-0.1976470947265625,-0.043701171875
1751013805252896300,8.388896240234375,-0.9879913330078125,-0.196563720703125,-0.0439453125
1751013805262840300,8.39884033203125,-0.98590087890625,-0.1948699951171875,-0.0411224365234375
1751013805272783400,8.408783447265625,-0.9826812744140625,-0.1957855224609375,-0.034210205078125
1751013805282727200,8.41872705078125,-0.978668212890625,-0.19873046875,-0.0318450927734375
1751013805292670200,8.428670166015625,-0.9738616943359375,-0.2025299072265625,-0.03192138671875
1751013805302614300,8.4386142578125,-0.976593017578125,-0.2026519775390625,-0.0251007080078125
1751013805312557300,8.448557373046874,-0.9809722900390625,-0.2032012939453125,-0.0243682861328125
1751013805322501000,8.458501220703125,-0.9824981689453125,-0.205352783203125,-0.0236358642578125
1751013805332444200,8.468444091796876,-0.988800048828125,-0.2022552490234375,-0.0239410400390625
1751013805342388200,8.47838818359375,-0.9974517822265625,-0.197113037109375,-0.024078369140625
1751013805352331300,8.488331298828125,-1.0017242431640625,-0.1923828125,-0.0224609375
1751013805362275300,8.498275390625,-1.0016937255859375,-0.1892547607421875,-0.022125244140625
1751013805372218400,8.50821826171875,-1.001617431640625,-0.1868743896484375,-0.0224456787109375
1751013805382162400,8.518162353515624,-1.0020904541015625,-0.1843719482421875,-0.0215606689453125
1751013805392105200,8.528105224609375,-1.004547119140625,-0.1847991943359375,-0.0205535888671875
1751013805402049300,8.53804931640625,-1.008056640625,-0.186614990234375,-0.0226287841796875
1751013805411992300,8.547992431640624,-1.0093536376953125,-0.1884613037109375,-0.0265350341796875
1751013805421936400,8.557936279296875,-1.008148193359375,-0.1906280517578125,-0.028289794921875
1751013805431879200,8.567879150390626,-1.0086517333984375,-0.189697265625,-0.03009033203125
1751013805441823200,8.5778232421875,-1.0060577392578125,-0.1873626708984375,-0.033843994140625
1751013805451766300,8.587766357421875,-1.0037078857421875,-0.1868743896484375,-0.0339202880859375
1751013805461710300,8.59771044921875,-1.005096435546875,-0.184234619140625,-0.02838134765625
1751013805471653000,8.607653076171875,-0.994171142578125,-0.1851348876953125,-0.0275115966796875
1751013805481597200,8.61759716796875,-0.9868011474609375,-0.1900177001953125,-0.0294342041015625
1751013805491540200,8.627540283203125,-0.988311767578125,-0.193817138671875,-0.0352020263671875
1751013805501484000,8.637484130859375,-0.986572265625,-0.1956634521484375,-0.039825439453125
1751013805511427000,8.647427001953124,-0.984100341796875,-0.1939239501953125,-0.0320892333984375
1751013805521370000,8.6573701171875,-0.9798431396484375,-0.1888427734375,-0.0215911865234375
1751013805531314400,8.667314453125,-0.98101806640625,-0.184906005859375,-0.01593017578125
1751013805541257500,8.677257568359375,-0.98687744140625,-0.1815948486328125,-0.0175018310546875
1751013805551201300,8.687201171875,-0.9891815185546875,-0.1822662353515625,-0.0254058837890625
1751013805561145300,8.697145263671874,-0.99267578125,-0.1802978515625,-0.0257720947265625
1751013805571088400,8.70708837890625,-0.9970703125,-0.1777191162109375,-0.0237274169921875
1751013805581031400,8.717031494140626,-0.9983673095703125,-0.1745452880859375,-0.0189971923828125
1751013805590975200,8.726975341796875,-1.0003814697265625,-0.172882080078125,-0.0167388916015625
1751013805600918300,8.736918212890625,-0.9949798583984375,-0.174224853515625,-0.0182647705078125
1751013805610862300,8.7468623046875,-0.99237060546875,-0.1724853515625,-0.0192718505859375
1751013805620805400,8.756805419921875,-0.99163818359375,-0.1661834716796875,-0.017242431640625
1751013805630749200,8.766749267578126,-0.9925384521484375,-0.1658477783203125,-0.0190582275390625
1751013805640692200,8.776692138671875,-0.994537353515625,-0.17095947265625,-0.021759033203125
1751013805650636300,8.78663623046875,-0.9998016357421875,-0.1721954345703125,-0.017333984375
1751013805660579300,8.796579345703124,-1.005218505859375,-0.1767120361328125,-0.0181732177734375
1751013805670523100,8.806523193359375,-1.0097808837890625,-0.17840576171875,-0.0181732177734375
1751013805680466200,8.816466064453126,-1.009368896484375,-0.176544189453125,-0.0186920166015625
1751013805690410500,8.826410400390625,-1.00634765625,-0.1711273193359375,-0.0150299072265625
1751013805700353000,8.83635302734375,-1.0068359375,-0.1641082763671875,-0.013427734375
1751013805710297000,8.846297119140624,-1.014984130859375,-0.15521240234375,-0.0102691650390625
1751013805720240000,8.856240234375,-1.0167694091796875,-0.1493682861328125,-0.008392333984375
1751013805730184200,8.86618408203125,-1.004425048828125,-0.152099609375,-0.0128021240234375
1751013805740127200,8.876127197265625,-1.0031280517578125,-0.1552276611328125,-0.019500732421875
1751013805750071300,8.8860712890625,-1.0165252685546875,-0.1536407470703125,-0.022705078125
1751013805760014300,8.896014404296874,-1.021820068359375,-0.1500244140625,-0.0187835693359375
1751013805769958100,8.905958251953125,-1.0193939208984375,-0.148101806640625,-0.011932373046875
1751013805779901200,8.915901123046876,-1.0283660888671875,-0.1436614990234375,-0.0018463134765625
1751013805789845200,8.92584521484375,-1.028717041015625,-0.1441192626953125,0.00152587890625
1751013805799788300,8.935788330078125,-1.0209503173828125,-0.1432037353515625,-0.0046539306640625
1751013805809732000,8.945732177734374,-1.0100250244140625,-0.144927978515625,-0.0240936279296875
1751013805819675100,8.955675048828125,-1.0085296630859375,-0.1516876220703125,-0.0414886474609375
1751013805829619200,8.965619140625,-1.0145416259765625,-0.1501922607421875,-0.04107666015625
1751013805839562200,8.975562255859375,-1.0098724365234375,-0.1512451171875,-0.030029296875
1751013805849506000,8.985506103515625,-0.9923553466796875,-0.1540985107421875,-0.0158843994140625
1751013805859449000,8.995448974609374,-0.984832763671875,-0.1564178466796875,-0.014556884765625
1751013805869393200,9.00539306640625,-0.9811553955078125,-0.15802001953125,-0.020263671875
1751013805879336200,9.015336181640626,-0.9734344482421875,-0.156768798828125,-0.019744873046875
1751013805889280300,9.0252802734375,-0.969085693359375,-0.1585235595703125,-0.0184783935546875
1751013805899223300,9.035223388671875,-0.96527099609375,-0.1623687744140625,-0.01953125
1751013805909167400,9.04516748046875,-0.96148681640625,-0.165679931640625,-0.01727294921875
1751013805919110400,9.0551103515625,-0.95928955078125,-0.1662445068359375,-0.012939453125
1751013805929054200,9.06505419921875,-0.963714599609375,-0.16668701171875,-0.0106048583984375
1751013805938997200,9.074997314453125,-0.9710235595703125,-0.1679229736328125,-0.005340576171875
1751013805948941300,9.08494140625,-0.977508544921875,-0.165924072265625,0.001617431640625
1751013805958884400,9.09488427734375,-0.9816131591796875,-0.1605987548828125,-0.006988525390625
1751013805968828200,9.104828125,-0.98931884765625,-0.1554107666015625,-0.012664794921875
1751013805978771200,9.114771240234376,-1.002716064453125,-0.1552581787109375,-0.008148193359375
1751013805988715300,9.12471533203125,-1.0021820068359375,-0.1576995849609375,-0.00555419921875
1751013805998658300,9.134658203125,-1.0012359619140625,-0.15728759765625,-0.0130767822265625
1751013806008602000,9.14460205078125,-1.0082855224609375,-0.1522674560546875,-0.01531982421875
1751013806018545200,9.154545166015625,-1.013885498046875,-0.14990234375,-0.0120697021484375
1751013806028489200,9.1644892578125,-1.0131378173828125,-0.1520538330078125,-0.0087738037109375
1751013806038432000,9.174431884765625,-1.0151214599609375,-0.1515960693359375,-0.00347900390625
1751013806048376300,9.184376220703125,-1.0211181640625,-0.1523590087890625,-0.0068817138671875
1751013806058319400,9.1943193359375,-1.0222625732421875,-0.1562652587890625,-0.0177459716796875
1751013806068263200,9.20426318359375,-1.021484375,-0.155548095703125,-0.025360107421875
1751013806078206200,9.214206298828126,-1.025665283203125,-0.155059814453125,-0.02874755859375
1751013806088150300,9.224150390625,-1.02630615234375,-0.149932861328125,-0.0320892333984375
1751013806098093300,9.23409326171875,-1.0204315185546875,-0.150604248046875,-0.0346527099609375
1751013806108037000,9.244037109375,-1.0164031982421875,-0.1506805419921875,-0.034881591796875
1751013806117980200,9.253980224609375,-1.0079803466796875,-0.1495819091796875,-0.0317230224609375
1751013806127924200,9.26392431640625,-1.0013275146484375,-0.1506805419921875,-0.02960205078125
1751013806137867300,9.2738671875,-0.996795654296875,-0.15191650390625,-0.0304107666015625
1751013806147811000,9.28381103515625,-0.992706298828125,-0.1502532958984375,-0.0262298583984375
1751013806157754000,9.293754150390624,-0.9909210205078125,-0.1499786376953125,-0.021514892578125
1751013806167698200,9.3036982421875,-0.9916839599609375,-0.1518402099609375,-0.02020263671875
1751013806177641200,9.31364111328125,-1.001129150390625,-0.153533935546875,-0.020660400390625
1751013806187585000,9.3235849609375,-1.0035552978515625,-0.154937744140625,-0.023040771484375
1751013806197528000,9.333528076171875,-1.004058837890625,-0.1530609130859375,-0.0196533203125
1751013806207472400,9.343472412109374,-1.004547119140625,-0.1499786376953125,-0.0251007080078125
1751013806217415400,9.35341552734375,-1.002685546875,-0.1454925537109375,-0.0266876220703125
1751013806227359200,9.363359130859376,-1.006591796875,-0.1403350830078125,-0.0286407470703125
1751013806237302300,9.37330224609375,-1.013824462890625,-0.1369781494140625,-0.03265380859375
1751013806247246300,9.383246337890625,-1.0132293701171875,-0.1348419189453125,-0.0308990478515625
1751013806257189400,9.393189453125,-1.0160675048828125,-0.134490966796875,-0.02978515625
1751013806267133200,9.40313330078125,-1.0170135498046875,-0.1362152099609375,-0.03045654296875
1751013806277076200,9.413076171875,-1.0128936767578125,-0.133056640625,-0.026397705078125
1751013806287020300,9.423020263671875,-1.0126800537109375,-0.1299591064453125,-0.020599365234375
1751013806296963300,9.43296337890625,-1.0081787109375,-0.13128662109375,-0.0188751220703125
1751013806306907100,9.4429072265625,-1.008270263671875,-0.1359710693359375,-0.0198211669921875
1751013806316850200,9.45285009765625,-1.00750732421875,-0.1425933837890625,-0.0196990966796875
1751013806326794200,9.462794189453126,-1.0093536376953125,-0.148101806640625,-0.0244598388671875
1751013806336737300,9.4727373046875,-1.00738525390625,-0.153045654296875,-0.030670166015625
1751013806346681000,9.48268115234375,-1.00384521484375,-0.15606689453125,-0.0339508056640625
1751013806356624100,9.4926240234375,-1.0068206787109375,-0.15362548828125,-0.0321197509765625
1751013806366568400,9.502568359375,-1.011871337890625,-0.149688720703125,-0.030364990234375
1751013806376511200,9.51251123046875,-1.0092315673828125,-0.1497344970703125,-0.039154052734375
1751013806386455300,9.522455322265625,-1.0067901611328125,-0.148712158203125,-0.0393218994140625
1751013806396398300,9.5323984375,-1.0111846923828125,-0.1414031982421875,-0.037384033203125
1751013806406342100,9.542342041015624,-1.01031494140625,-0.14263916015625,-0.039794921875
1751013806416285200,9.55228515625,-1.0070648193359375,-0.149444580078125,-0.0405120849609375
1751013806426229200,9.562229248046876,-0.9992218017578125,-0.158905029296875,-0.0371856689453125
1751013806436172300,9.57217236328125,-0.985198974609375,-0.1654052734375,-0.0330963134765625
1751013806446116000,9.5821162109375,-0.970428466796875,-0.1686859130859375,-0.0365447998046875
1751013806456059100,9.59205908203125,-0.9683074951171875,-0.1658477783203125,-0.0383453369140625
1751013806466003200,9.602003173828125,-0.9694671630859375,-0.1562957763671875,-0.045196533203125
1751013806475946200,9.6119462890625,-0.9722747802734375,-0.1506195068359375,-0.05078125
1751013806485890000,9.62189013671875,-0.9796295166015625,-0.1501312255859375,-0.0537261962890625
1751013806495833000,9.6318330078125,-0.9928131103515625,-0.1500244140625,-0.0531768798828125
1751013806505777200,9.641777099609374,-1.0116119384765625,-0.1410675048828125,-0.04425048828125
1751013806515720200,9.65172021484375,-1.022735595703125,-0.1325836181640625,-0.0384979248046875
1751013806525664300,9.661664306640626,-1.0262908935546875,-0.1294708251953125,-0.0355377197265625
1751013806535607300,9.671607177734375,-1.0286407470703125,-0.130218505859375,-0.0401763916015625
1751013806545551400,9.68155126953125,-1.033172607421875,-0.1242218017578125,-0.0398406982421875
1751013806555494400,9.691494384765624,-1.0359954833984375,-0.1177978515625,-0.0378265380859375
1751013806565438200,9.701438232421875,-1.0307464599609375,-0.11541748046875,-0.03515625
1751013806575381200,9.71138134765625,-1.026702880859375,-0.112640380859375,-0.031158447265625
1751013806585325300,9.7213251953125,-1.025482177734375,-0.11175537109375,-0.031463623046875
1751013806595268400,9.731268310546875,-1.017669677734375,-0.1143646240234375,-0.030487060546875
1751013806605212200,9.741212158203124,-1.01434326171875,-0.1181488037109375,-0.0284576416015625
1751013806615155200,9.7511552734375,-1.0121612548828125,-0.1198272705078125,-0.02752685546875
1751013806625099300,9.761099365234376,-1.0047607421875,-0.1250457763671875,-0.030517578125
1751013806635042300,9.771042236328125,-0.994384765625,-0.1312103271484375,-0.03167724609375
1751013806644986000,9.780986083984375,-0.9945831298828125,-0.1365509033203125,-0.0316925048828125
1751013806654929200,9.79092919921875,-0.993377685546875,-0.1407928466796875,-0.0312957763671875
1751013806664873200,9.800873291015625,-0.98980712890625,-0.1435089111328125,-0.03204345703125
1751013806674816300,9.810816162109376,-0.9919281005859375,-0.140472412109375,-0.031341552734375
1751013806684760300,9.82076025390625,-0.9946441650390625,-0.1352081298828125,-0.030242919921875
1751013806694703000,9.830703125,-0.9944305419921875,-0.1338043212890625,-0.0305938720703125
1751013806704647400,9.8406474609375,-0.997100830078125,-0.1318359375,-0.0317840576171875
1751013806714590200,9.850590087890625,-1.0040435791015625,-0.1327972412109375,-0.0363311767578125
1751013806724534300,9.8605341796875,-1.0042266845703125,-0.1336517333984375,-0.040863037109375
1751013806734477300,9.870477294921875,-1.0055389404296875,-0.134765625,-0.03961181640625
1751013806744421400,9.88042138671875,-1.0061492919921875,-0.1377410888671875,-0.039398193359375
1751013806754364400,9.890364501953124,-1.0057220458984375,-0.1386260986328125,-0.037994384765625
1751013806764308500,9.90030859375,-1.0060272216796875,-0.13739013671875,-0.0355224609375
1751013806774251500,9.91025146484375,-1.004119873046875,-0.14056396484375,-0.0367279052734375
1751013806784195300,9.9201953125,-1.0011138916015625,-0.1425323486328125,-0.03485107421875
1751013806794138400,9.930138427734375,-1.0007171630859375,-0.1412353515625,-0.0325775146484375
1751013806804082400,9.94008251953125,-1.00250244140625,-0.141937255859375,-0.03472900390625
1751013806814025500,9.950025390625,-1.002166748046875,-0.1427001953125,-0.0339813232421875
1751013806823969300,9.95996923828125,-1.003143310546875,-0.139617919921875,-0.0323486328125
1751013806833912300,9.969912353515625,-1.00372314453125,-0.1352996826171875,-0.0323028564453125
1751013806843856400,9.9798564453125,-1.0047149658203125,-0.134918212890625,-0.03143310546875
1751013806853799400,9.98979931640625,-1.0079498291015625,-0.1342620849609375,-0.0301055908203125
1751013806863743200,9.9997431640625,-1.0155029296875,-0.13037109375,-0.024017333984375
1751013806873686300,10.009686279296876,-1.0160064697265625,-0.130340576171875,-0.019989013671875
1751013806883630300,10.01963037109375,-0.991943359375,-0.145233154296875,-0.0280303955078125
1751013806893573400,10.029573486328125,-0.9705352783203125,-0.1702423095703125,-0.0435333251953125
1751013806903517400,10.039517333984374,-0.981689453125,-0.174224853515625,-0.0495147705078125
1751013806913460500,10.04946044921875,-1.0025482177734375,-0.1562347412109375,-0.0444488525390625
1751013806923404500,10.059404541015626,-0.9959869384765625,-0.14105224609375,-0.021331787109375
1751013806933347600,10.06934765625,-0.9706268310546875,-0.1453704833984375,0.00421142578125
1751013806943291400,10.07929150390625,-0.9706268310546875,-0.1485748291015625,0.0058746337890625
1751013806953234400,10.089234375,-0.99359130859375,-0.1417694091796875,-0.01214599609375
1751013806963178500,10.099178466796875,-1.0070037841796875,-0.1362762451171875,-0.0303192138671875
1751013806973121300,10.109121337890626,-1.011749267578125,-0.1339263916015625,-0.0257720947265625
1751013806983065300,10.1190654296875,-1.0100860595703125,-0.1339263916015625,-0.0122833251953125
1751013806993008400,10.12900830078125,-1.0125274658203125,-0.13690185546875,-0.009063720703125
1751013807002952400,10.138952392578124,-1.0171051025390625,-0.13690185546875,-0.015655517578125
1751013807012895200,10.148895263671875,-1.018035888671875,-0.1370697021484375,-0.0251617431640625
1751013807022839300,10.15883935546875,-1.01934814453125,-0.1405181884765625,-0.02545166015625
1751013807032782300,10.1687822265625,-1.01922607421875,-0.142425537109375,-0.0180206298828125
1751013807042726400,10.178726318359375,-1.01898193359375,-0.13946533203125,-0.0123443603515625
1751013807052669200,10.188669189453124,-1.015625,-0.13818359375,-0.01422119140625
1751013807062613500,10.198613525390625,-1.0135650634765625,-0.1368865966796875,-0.017730712890625
1751013807072556500,10.208556640625,-1.0160980224609375,-0.131927490234375,-0.0234832763671875
1751013807082500400,10.218500244140625,-1.021820068359375,-0.1253204345703125,-0.0286865234375
1751013807092443400,10.228443359375,-1.023895263671875,-0.12158203125,-0.03094482421875
1751013807102387500,10.238387451171874,-1.024749755859375,-0.1243133544921875,-0.0311431884765625
1751013807112330500,10.24833056640625,-1.022216796875,-0.126861572265625,-0.027374267578125
1751013807122274300,10.2582744140625,-1.0227508544921875,-0.1289215087890625,-0.0201416015625
1751013807132217300,10.26821728515625,-1.0146484375,-0.134246826171875,-0.021026611328125
1751013807142161400,10.278161376953125,-1.0080413818359375,-0.14178466796875,-0.02056884765625
1751013807152104400,10.2881044921875,-1.0052947998046875,-0.14599609375,-0.0239105224609375
1751013807162048300,10.29804833984375,-1.0041351318359375,-0.1459503173828125,-0.02734375
1751013807171991300,10.3079912109375,-1.004974365234375,-0.14251708984375,-0.0257415771484375
1751013807181935400,10.317935302734375,-1.004058837890625,-0.1366424560546875,-0.0211334228515625
1751013807191878400,10.32787841796875,-0.999755859375,-0.130889892578125,-0.0202178955078125
1751013807201822200,10.337822265625,-0.9984130859375,-0.128570556640625,-0.0199127197265625
1751013807211765200,10.34776513671875,-1.0007781982421875,-0.1287689208984375,-0.0182037353515625
1751013807221709600,10.35770947265625,-1.000823974609375,-0.13189697265625,-0.021331787109375
1751013807231652600,10.367652587890625,-0.9976806640625,-0.13885498046875,-0.0263214111328125
1751013807241595400,10.377595458984375,-0.9961090087890625,-0.14532470703125,-0.0265045166015625
1751013807251539500,10.38753955078125,-0.99652099609375,-0.1485137939453125,-0.0233306884765625
1751013807261482500,10.397482421875,-0.99481201171875,-0.150482177734375,-0.0219573974609375
1751013807271426600,10.407426513671876,-0.99224853515625,-0.149566650390625,-0.0218048095703125
1751013807281369300,10.417369384765625,-0.9920654296875,-0.145477294921875,-0.0206146240234375
1751013807291313400,10.4273134765625,-0.99530029296875,-0.14019775390625,-0.02093505859375
1751013807301256400,10.43725634765625,-0.99798583984375,-0.1385955810546875,-0.021484375
1751013807311200300,10.4472001953125,-0.9991607666015625,-0.137969970703125,-0.0238800048828125
1751013807321143300,10.457143310546876,-0.9999847412109375,-0.1381683349609375,-0.030059814453125
1751013807331087400,10.46708740234375,-0.9986419677734375,-0.1405029296875,-0.03045654296875
1751013807341030400,10.477030517578125,-0.998199462890625,-0.144866943359375,-0.0272064208984375
1751013807350974200,10.48697412109375,-1.00225830078125,-0.144012451171875,-0.0240936279296875
1751013807360917200,10.496917236328125,-1.00311279296875,-0.144500732421875,-0.0266571044921875
1751013807370861300,10.506861328125,-1.0015106201171875,-0.1473236083984375,-0.0301361083984375
1751013807380804400,10.516804443359375,-1.0014495849609375,-0.1478729248046875,-0.0314178466796875
1751013807390748400,10.52674853515625,-1.00042724609375,-0.1461639404296875,-0.028533935546875
1751013807400691200,10.536691162109374,-1.0009765625,-0.1453857421875,-0.0250701904296875
1751013807410635500,10.546635498046875,-1.0024871826171875,-0.1421966552734375,-0.023101806640625
1751013807420578600,10.55657861328125,-0.999053955078125,-0.1443634033203125,-0.0269775390625
1751013807430522400,10.5665224609375,-0.998321533203125,-0.1486968994140625,-0.02783203125
1751013807440465400,10.57646533203125,-0.99908447265625,-0.1516571044921875,-0.026947021484375
1751013807450409500,10.586409423828124,-1.0038604736328125,-0.1532135009765625,-0.026031494140625
1751013807460352500,10.5963525390625,-1.00390625,-0.1554718017578125,-0.0310211181640625
1751013807470296300,10.60629638671875,-1.005035400390625,-0.15875244140625,-0.03387451171875
1751013807480239400,10.6162392578125,-1.0086822509765625,-0.154388427734375,-0.029296875
1751013807490183400,10.626183349609375,-1.00927734375,-0.1484832763671875,-0.029022216796875
1751013807500126500,10.63612646484375,-1.0091552734375,-0.142791748046875,-0.0290679931640625
1751013807510070300,10.6460703125,-1.0106353759765625,-0.1391448974609375,-0.030853271484375
1751013807520013300,10.656013427734376,-1.0102386474609375,-0.1358795166015625,-0.030029296875
1751013807529957400,10.665957275390625,-1.00927734375,-0.1371307373046875,-0.027801513671875
1751013807539900400,10.675900390625,-1.0099639892578125,-0.1387176513671875,-0.0253448486328125
1751013807549844500,10.685844482421874,-1.0076904296875,-0.1400604248046875,-0.0307769775390625
1751013807559787300,10.695787353515625,-1.0056304931640625,-0.1432647705078125,-0.0338592529296875
1751013807569731600,10.705731689453126,-1.005218505859375,-0.1455535888671875,-0.033233642578125
1751013807579674400,10.71567431640625,-1.0028228759765625,-0.14617919921875,-0.0298309326171875
1751013807589618400,10.725618408203125,-0.997161865234375,-0.14483642578125,-0.0275726318359375
1751013807599561500,10.7355615234375,-0.993865966796875,-0.1434326171875,-0.024505615234375
1751013807609505500,10.745505615234375,-0.988189697265625,-0.1439361572265625,-0.025543212890625
1751013807619448300,10.7554482421875,-0.9804534912109375,-0.148223876953125,-0.0287933349609375
1751013807629392400,10.765392333984375,-0.976898193359375,-0.1515960693359375,-0.0281219482421875
1751013807639335400,10.77533544921875,-0.9730377197265625,-0.1520538330078125,-0.020599365234375
1751013807649279200,10.785279296875,-0.89990234375,-0.1541290283203125,-0.005645751953125
1751013807659222300,10.79522216796875,-0.9395294189453125,-0.157623291015625,0.0133819580078125
1751013807669166300,10.805166259765626,-1.0585784912109375,-0.1559600830078125,0.0080413818359375
1751013807679109400,10.815109375,-0.9963226318359375,-0.1480865478515625,-0.0246124267578125
1751013807689053200,10.82505322265625,-0.9882965087890625,-0.162078857421875,-0.050689697265625
1751013807698996500,10.83499658203125,-1.0169219970703125,-0.1659088134765625,-0.04278564453125
1751013807708940500,10.8449404296875,-1.009613037109375,-0.153900146484375,-0.0315093994140625
