time,seconds_elapsed,z,y,x
1751013413636500700,0.116500732421875,-0.99151611328125,-0.17181396484375,0.0328369140625
1751013413646443800,0.12644384765625,-0.994964599609375,-0.168975830078125,0.0340423583984375
1751013413656386800,0.13638671875,-0.9986114501953125,-0.166046142578125,0.037506103515625
1751013413666331000,0.146330810546875,-1.000885009765625,-0.1631927490234375,0.03436279296875
1751013413676274000,0.15627392578125,-0.9922943115234375,-0.1625213623046875,0.03314208984375
1751013413686216700,0.166216796875,-0.992706298828125,-0.1639862060546875,0.0279083251953125
1751013413696159700,0.17615966796875,-0.9921722412109375,-0.1649169921875,0.02215576171875
1751013413706102800,0.186102783203125,-0.9860382080078125,-0.169097900390625,0.02459716796875
1751013413716045800,0.1960458984375,-0.99383544921875,-0.168548583984375,0.0255126953125
1751013413725988900,0.20598876953125,-1.0058441162109375,-0.16680908203125,0.0340118408203125
1751013413735933000,0.215932861328125,-1.00897216796875,-0.1654815673828125,0.0471038818359375
1751013413745875700,0.225875732421875,-1.000885009765625,-0.1660919189453125,0.0485992431640625
1751013413755818800,0.23581884765625,-1.0041046142578125,-0.1660919189453125,0.0435333251953125
1751013413765761800,0.24576171875,-1.021453857421875,-0.1671295166015625,0.04296875
1751013413775704800,0.255704833984375,-1.0403900146484375,-0.170074462890625,0.0384521484375
1751013413785647900,0.26564794921875,-1.04547119140625,-0.171234130859375,0.0318603515625
1751013413795592000,0.275592041015625,-1.053192138671875,-0.1667938232421875,0.0259552001953125
1751013413805534700,0.28553466796875,-1.0495452880859375,-0.1596527099609375,0.018829345703125
1751013413815477800,0.295477783203125,-1.037445068359375,-0.1525726318359375,0.01751708984375
1751013413825420800,0.3054208984375,-1.0415496826171875,-0.15057373046875,0.01318359375
1751013413835363800,0.31536376953125,-1.0331878662109375,-0.1438446044921875,0.023162841796875
1751013413845307000,0.325306884765625,-1.0420379638671875,-0.14117431640625,0.023773193359375
1751013413855250000,0.33525,-1.0317535400390625,-0.152862548828125,0.002227783203125
1751013413865193700,0.34519384765625,-0.9927215576171875,-0.16387939453125,-0.006805419921875
1751013413875136800,0.35513671875,-0.9694366455078125,-0.1715545654296875,-0.009552001953125
1751013413885079800,0.365079833984375,-0.959564208984375,-0.18646240234375,-0.0032196044921875
1751013413895022800,0.37502294921875,-0.960113525390625,-0.1981048583984375,0.002471923828125
1751013413904966000,0.3849658203125,-0.963958740234375,-0.2070159912109375,0.0066986083984375
1751013413914909000,0.394908935546875,-0.9665374755859375,-0.2211151123046875,0.01007080078125
1751013413924852700,0.404852783203125,-0.978729248046875,-0.23443603515625,0.0159759521484375
1751013413934795800,0.414795654296875,-0.9919891357421875,-0.23223876953125,0.0250244140625
1751013413944738800,0.42473876953125,-0.997222900390625,-0.22283935546875,0.034820556640625
1751013413954681900,0.434681884765625,-1.000213623046875,-0.21185302734375,0.037109375
1751013413964625000,0.444625,-1.0044403076171875,-0.2058258056640625,0.040557861328125
1751013413974568000,0.45456787109375,-1.008026123046875,-0.201904296875,0.0381622314453125
1751013413984511000,0.464510986328125,-1.0074920654296875,-0.2046356201171875,0.047332763671875
1751013413994454800,0.474454833984375,-1.0026092529296875,-0.1994781494140625,0.05206298828125
1751013414004397800,0.484397705078125,-1.0022125244140625,-0.19586181640625,0.0511627197265625
1751013414014340900,0.4943408203125,-1.0051422119140625,-0.1996307373046875,0.0477294921875
1751013414024284000,0.504283935546875,-1.009552001953125,-0.1968231201171875,0.0428619384765625
1751013414034227000,0.51422705078125,-1.006439208984375,-0.1913604736328125,0.04327392578125
1751013414044170000,0.524169921875,-1.0115509033203125,-0.186859130859375,0.0518646240234375
1751013414054113800,0.53411376953125,-1.0247650146484375,-0.1827545166015625,0.0681610107421875
1751013414064056800,0.544056884765625,-1.02362060546875,-0.18170166015625,0.0716705322265625
1751013414074000000,0.553999755859375,-1.00457763671875,-0.19134521484375,0.052886962890625
1751013414083943000,0.56394287109375,-0.9947509765625,-0.20361328125,0.035064697265625
1751013414093886000,0.573885986328125,-0.9935455322265625,-0.21331787109375,0.02276611328125
1751013414103829000,0.5838291015625,-0.9929962158203125,-0.2201080322265625,0.0191650390625
1751013414113772800,0.593772705078125,-0.9883880615234375,-0.220977783203125,0.0221710205078125
1751013414123715800,0.6037158203125,-0.9801025390625,-0.2216949462890625,0.026580810546875
1751013414133659000,0.613658935546875,-0.9741668701171875,-0.224090576171875,0.03057861328125
1751013414143602000,0.623601806640625,-0.9716033935546875,-0.22650146484375,0.0361328125
1751013414153545000,0.633544921875,-0.9752349853515625,-0.2239837646484375,0.0473480224609375
1751013414163488000,0.643488037109375,-0.9778900146484375,-0.2194976806640625,0.0577545166015625
1751013414173431000,0.65343115234375,-0.984527587890625,-0.2146148681640625,0.062957763671875
1751013414183374800,0.663374755859375,-0.988372802734375,-0.2133636474609375,0.06585693359375
1751013414193318000,0.67331787109375,-0.982666015625,-0.2135009765625,0.056976318359375
1751013414203261000,0.683260986328125,-0.9791259765625,-0.216156005859375,0.0462799072265625
1751013414213204000,0.693203857421875,-0.9824676513671875,-0.2202606201171875,0.0420989990234375
1751013414223147000,0.70314697265625,-0.98382568359375,-0.2227020263671875,0.039459228515625
1751013414233090000,0.713090087890625,-0.9893646240234375,-0.2238616943359375,0.036376953125
1751013414243033900,0.723033935546875,-0.9944610595703125,-0.2233123779296875,0.0326690673828125
1751013414252977000,0.732976806640625,-0.9938507080078125,-0.2191619873046875,0.02996826171875
1751013414262920000,0.742919921875,-0.996368408203125,-0.2157745361328125,0.0284423828125
1751013414272863000,0.752863037109375,-1.002410888671875,-0.214080810546875,0.027923583984375
1751013414282806000,0.762805908203125,-1.003021240234375,-0.215179443359375,0.024627685546875
1751013414292749000,0.7727490234375,-0.9956207275390625,-0.217041015625,0.01556396484375
1751013414302691800,0.78269189453125,-0.9943695068359375,-0.2179718017578125,0.0066680908203125
1751013414312636000,0.792635986328125,-0.9976959228515625,-0.218780517578125,0.0050201416015625
1751013414322574300,0.80257421875,-0.998199462890625,-0.2221832275390625,0.00445556640625
1751013414332517400,0.812517333984375,-0.9934234619140625,-0.221343994140625,0.0063934326171875
1751013414342460400,0.82246044921875,-0.9945831298828125,-0.2195281982421875,0.0100555419921875
1751013414352403500,0.832403564453125,-0.992767333984375,-0.221160888671875,0.0149383544921875
1751013414362346500,0.842346435546875,-0.989013671875,-0.2215423583984375,0.0185394287109375
1751013414372290300,0.852290283203125,-0.9876556396484375,-0.22320556640625,0.022491455078125
1751013414382233300,0.8622333984375,-0.9844512939453125,-0.2263336181640625,0.020416259765625
1751013414392176400,0.87217626953125,-0.9758758544921875,-0.2277374267578125,0.0158843994140625
1751013414402119400,0.882119384765625,-0.9748382568359375,-0.2243804931640625,0.0133056640625
1751013414412062500,0.8920625,-0.9782867431640625,-0.223419189453125,0.0128631591796875
1751013414422005500,0.902005615234375,-0.9784088134765625,-0.22442626953125,0.0184478759765625
1751013414431949300,0.91194921875,-0.9765625,-0.221649169921875,0.020721435546875
1751013414441892400,0.921892333984375,-0.97412109375,-0.219879150390625,0.02471923828125
1751013414451835400,0.93183544921875,-0.9756927490234375,-0.220458984375,0.0267791748046875
1751013414461778400,0.9417783203125,-0.972869873046875,-0.220611572265625,0.02435302734375
1751013414471721500,0.951721435546875,-0.9686431884765625,-0.2213897705078125,0.0216064453125
1751013414481664500,0.96166455078125,-0.96685791015625,-0.2226409912109375,0.0202178955078125
1751013414491607600,0.971607666015625,-0.9681549072265625,-0.22247314453125,0.0174560546875
1751013414501551400,0.98155126953125,-0.9736175537109375,-0.2213897705078125,0.017425537109375
1751013414511494400,0.991494384765625,-0.9802093505859375,-0.2198028564453125,0.021392822265625
1751013414521437400,1.0014375,-0.987640380859375,-0.2164764404296875,0.0226898193359375
1751013414531380500,1.01138037109375,-0.988128662109375,-0.2125396728515625,0.0228729248046875
1751013414541323500,1.021323486328125,-0.98736572265625,-0.2100982666015625,0.018890380859375
1751013414551266300,1.031266357421875,-0.9886627197265625,-0.2111358642578125,0.0159759521484375
1751013414561210400,1.04121044921875,-0.9894561767578125,-0.2113800048828125,0.012939453125
1751013414571153400,1.0511533203125,-0.9892578125,-0.209747314453125,0.013214111328125
1751013414581096400,1.061096435546875,-0.988372802734375,-0.20745849609375,0.0136871337890625
1751013414591039500,1.07103955078125,-0.9898529052734375,-0.207733154296875,0.0140838623046875
1751013414600982500,1.080982421875,-0.9939422607421875,-0.208343505859375,0.0133514404296875
1751013414610925300,1.09092529296875,-0.9958648681640625,-0.20654296875,0.0116424560546875
1751013414620869400,1.100869384765625,-0.9929351806640625,-0.2045135498046875,0.0075225830078125
1751013414630812400,1.1108125,-0.9915008544921875,-0.2063446044921875,0.008819580078125
1751013414640755500,1.12075537109375,-0.9915618896484375,-0.2092742919921875,0.0110931396484375
1751013414650698500,1.130698486328125,-0.990692138671875,-0.2103424072265625,0.0107269287109375
1751013414660641500,1.1406416015625,-0.9903411865234375,-0.211212158203125,0.01202392578125
1751013414670584300,1.150584228515625,-0.98919677734375,-0.2134246826171875,0.0084686279296875
1751013414680528400,1.1605283203125,-0.9876251220703125,-0.2164306640625,0.0055389404296875
1751013414690471400,1.170471435546875,-0.9908294677734375,-0.21820068359375,0.0053253173828125
1751013414700414500,1.18041455078125,-0.988983154296875,-0.2188873291015625,0.00445556640625
1751013414710357500,1.190357421875,-0.9854278564453125,-0.21771240234375,0.006011962890625
1751013414720300500,1.200300537109375,-0.98785400390625,-0.2157135009765625,0.0084381103515625
1751013414730243300,1.210243408203125,-0.9888763427734375,-0.2118988037109375,0.0128936767578125
1751013414740186400,1.220186279296875,-0.987945556640625,-0.2092132568359375,0.014617919921875
1751013414750130400,1.23013037109375,-0.989776611328125,-0.208709716796875,0.0158843994140625
1751013414760073500,1.240073486328125,-0.9939117431640625,-0.20947265625,0.0150909423828125
1751013414770016500,1.2500166015625,-0.9958038330078125,-0.2108001708984375,0.01361083984375
1751013414779959600,1.25995947265625,-0.9964447021484375,-0.2120819091796875,0.0131072998046875
1751013414789902300,1.26990234375,-0.9970550537109375,-0.21185302734375,0.01080322265625
1751013414799845400,1.279845458984375,-0.9953460693359375,-0.212158203125,0.0066070556640625
1751013414809789400,1.28978955078125,-0.99420166015625,-0.2103118896484375,0.003692626953125
1751013414819732500,1.299732421875,-0.9933319091796875,-0.210052490234375,0.00396728515625
1751013414829675500,1.309675537109375,-0.995513916015625,-0.2109375,0.0050811767578125
1751013414839618600,1.31961865234375,-0.9981231689453125,-0.2092132568359375,0.005645751953125
1751013414849561300,1.329561279296875,-0.999664306640625,-0.2085418701171875,0.0047760009765625
1751013414859504400,1.33950439453125,-0.9978179931640625,-0.2109527587890625,0.005645751953125
1751013414869448400,1.349448486328125,-0.9941558837890625,-0.2106170654296875,0.00701904296875
1751013414879391500,1.3593916015625,-0.99896240234375,-0.2083740234375,0.00567626953125
1751013414889334500,1.36933447265625,-1.0030975341796875,-0.20965576171875,0.0079498291015625
1751013414899277600,1.379277587890625,-1.0003509521484375,-0.2089691162109375,0.0090179443359375
1751013414909220400,1.389220458984375,-0.99847412109375,-0.209136962890625,0.008087158203125
1751013414919163400,1.399163330078125,-0.99658203125,-0.2112274169921875,0.0096435546875
1751013414929107500,1.409107421875,-0.996917724609375,-0.212738037109375,0.010284423828125
1751013414939050500,1.419050537109375,-0.99468994140625,-0.2132720947265625,0.010772705078125
1751013414948993500,1.42899365234375,-0.992095947265625,-0.2129364013671875,0.0109710693359375
1751013414958936600,1.4389365234375,-0.9909820556640625,-0.21337890625,0.010833740234375
1751013414968879400,1.44887939453125,-0.9896087646484375,-0.213409423828125,0.00872802734375
1751013414978822400,1.458822509765625,-0.990753173828125,-0.2111663818359375,0.0069427490234375
1751013414988765400,1.468765380859375,-0.9889373779296875,-0.2109527587890625,0.0059967041015625
1751013414998709500,1.47870947265625,-0.987518310546875,-0.21392822265625,0.00555419921875
1751013415008652500,1.488652587890625,-0.988311767578125,-0.2149505615234375,0.0048675537109375
1751013415018595600,1.498595703125,-0.989227294921875,-0.21392822265625,0.0001983642578125
1751013415028538400,1.508538330078125,-0.98748779296875,-0.2154083251953125,-0.0001678466796875
1751013415038481400,1.5184814453125,-0.9911651611328125,-0.2162628173828125,0.0022430419921875
1751013415048424200,1.528424072265625,-0.9899444580078125,-0.216033935546875,0.002716064453125
1751013415058368500,1.538368408203125,-0.985443115234375,-0.215667724609375,0.0023651123046875
1751013415068311600,1.5483115234375,-0.986358642578125,-0.2131195068359375,0.0031280517578125
1751013415078254300,1.55825439453125,-0.9951629638671875,-0.211395263671875,0.00775146484375
1751013415088197400,1.568197265625,-1.001861572265625,-0.210235595703125,0.0123748779296875
1751013415098140400,1.578140380859375,-1.002288818359375,-0.21246337890625,0.0137481689453125
1751013415108083200,1.588083251953125,-1.000213623046875,-0.21533203125,0.0143890380859375
1751013415118027500,1.598027587890625,-0.9981689453125,-0.214996337890625,0.013763427734375
1751013415127970600,1.607970458984375,-1.001068115234375,-0.2145233154296875,0.013641357421875
1751013415137913300,1.617913330078125,-1.0005035400390625,-0.2161407470703125,0.0163421630859375
1751013415147856400,1.6278564453125,-0.99493408203125,-0.2167205810546875,0.02099609375
1751013415157799200,1.637799072265625,-0.99407958984375,-0.21685791015625,0.021270751953125
1751013415167742200,1.6477421875,-0.9953765869140625,-0.21661376953125,0.0206298828125
1751013415177686500,1.6576865234375,-0.9976654052734375,-0.21685791015625,0.0184783935546875
1751013415187629600,1.667629638671875,-0.999542236328125,-0.2126922607421875,0.019195556640625
1751013415197572400,1.677572265625,-0.9993438720703125,-0.2092437744140625,0.0238800048828125
1751013415207515400,1.687515380859375,-0.9993438720703125,-0.2085113525390625,0.02691650390625
1751013415217458200,1.697458251953125,-0.9991455078125,-0.2120208740234375,0.026092529296875
1751013415227401200,1.707401123046875,-0.994659423828125,-0.2199554443359375,0.02325439453125
1751013415237345500,1.717345458984375,-0.9879913330078125,-0.226043701171875,0.0233612060546875
1751013415247288600,1.72728857421875,-0.984283447265625,-0.2274322509765625,0.0220489501953125
1751013415257231400,1.7372314453125,-0.979522705078125,-0.2288665771484375,0.014739990234375
1751013415267174100,1.747174072265625,-0.972259521484375,-0.228668212890625,0.0099945068359375
1751013415277117200,1.7571171875,-0.9687652587890625,-0.2313995361328125,0.0086517333984375
1751013415287060200,1.767060302734375,-0.9663543701171875,-0.23785400390625,0.0061187744140625
1751013415297004500,1.777004638671875,-0.9727630615234375,-0.2386932373046875,0.0069427490234375
1751013415306947600,1.786947509765625,-0.9825592041015625,-0.2372589111328125,0.0070648193359375
1751013415316890400,1.796890380859375,-0.986480712890625,-0.2369842529296875,0.003875732421875
1751013415326834000,1.806833984375,-0.9943389892578125,-0.2314453125,-0.0006256103515625
1751013415336777000,1.81677685546875,-1.002410888671875,-0.227020263671875,-0.0020751953125
1751013415346720000,1.826719970703125,-1.0014495849609375,-0.2264251708984375,0.005340576171875
1751013415356664000,1.8366640625,-1.01165771484375,-0.2123870849609375,0.006927490234375
1751013415366606800,1.84660693359375,-1.0018463134765625,-0.2113494873046875,0.026214599609375
1751013415376550000,1.8565498046875,-1.0118408203125,-0.1981201171875,0.03533935546875
1751013415386493000,1.866492919921875,-1.0159149169921875,-0.1864471435546875,0.0360870361328125
1751013415396436000,1.87643603515625,-1.0179595947265625,-0.1806793212890625,0.042449951171875
1751013415406379000,1.88637890625,-1.0260009765625,-0.1724853515625,0.0444488525390625
1751013415416323000,1.896322998046875,-1.030914306640625,-0.168853759765625,0.0513153076171875
1751013415426265900,1.906265869140625,-1.0406341552734375,-0.1915283203125,0.063690185546875
1751013415436209000,1.916208984375,-1.0365753173828125,-0.2024078369140625,0.0604400634765625
1751013415446152000,1.92615185546875,-1.026031494140625,-0.2038116455078125,0.05645751953125
1751013415456095000,1.936094970703125,-1.0020599365234375,-0.2077178955078125,0.0487518310546875
1751013415466038000,1.9460380859375,-0.983428955078125,-0.20489501953125,0.0461578369140625
1751013415475981800,1.95598193359375,-0.97430419921875,-0.20166015625,0.04791259765625
1751013415485924900,1.9659248046875,-0.9687347412109375,-0.2007293701171875,0.0551910400390625
1751013415495868000,1.975867919921875,-0.9686431884765625,-0.202362060546875,0.05804443359375
1751013415505811000,1.98581103515625,-0.97186279296875,-0.204010009765625,0.0532073974609375
1751013415515754000,1.99575390625,-0.9774322509765625,-0.20098876953125,0.0474853515625
1751013415525697000,2.005697021484375,-0.978179931640625,-0.2006378173828125,0.0489654541015625
1751013415535640800,2.015640869140625,-0.9733428955078125,-0.2004852294921875,0.0516357421875
1751013415545583900,2.025583984375,-0.9651336669921875,-0.2006988525390625,0.05548095703125
1751013415555527000,2.03552685546875,-0.9551239013671875,-0.2053985595703125,0.0572357177734375
1751013415565470000,2.045469970703125,-0.946868896484375,-0.21197509765625,0.05987548828125
1751013415575413000,2.0554130859375,-0.9466705322265625,-0.2135009765625,0.06146240234375
1751013415585356000,2.06535595703125,-0.9512481689453125,-0.211029052734375,0.065155029296875
1751013415595299800,2.0752998046875,-0.9471282958984375,-0.21368408203125,0.0706787109375
1751013415605243000,2.085242919921875,-0.945587158203125,-0.2205810546875,0.074462890625
1751013415615186000,2.09518603515625,-0.94903564453125,-0.2230072021484375,0.07861328125
1751013415625129000,2.10512890625,-0.9545440673828125,-0.222320556640625,0.0863037109375
1751013415635072000,2.115072021484375,-0.9640960693359375,-0.2197265625,0.0906982421875
1751013415645015000,2.12501513671875,-0.970306396484375,-0.2217254638671875,0.0888214111328125
1751013415654958800,2.134958740234375,-0.9691314697265625,-0.224151611328125,0.0895843505859375
1751013415664902000,2.14490185546875,-0.9727020263671875,-0.2208099365234375,0.0911865234375
1751013415674845000,2.154844970703125,-0.9834747314453125,-0.2177886962890625,0.09112548828125
1751013415684788000,2.1647880859375,-0.9932708740234375,-0.21722412109375,0.0906219482421875
1751013415694731000,2.17473095703125,-1.0018310546875,-0.2139434814453125,0.0901031494140625
1751013415704674000,2.184674072265625,-1.0091400146484375,-0.2090911865234375,0.0883636474609375
1751013415714617900,2.194617919921875,-1.0133819580078125,-0.204925537109375,0.0836029052734375
1751013415724561000,2.204560791015625,-1.0136871337890625,-0.20013427734375,0.0818328857421875
1751013415734504000,2.21450390625,-1.007598876953125,-0.1966552734375,0.0805511474609375
1751013415744447000,2.224447021484375,-1.0009765625,-0.194671630859375,0.0780487060546875
1751013415754390000,2.23439013671875,-0.9969482421875,-0.194793701171875,0.0789031982421875
1751013415764333000,2.2443330078125,-0.9990234375,-0.1941375732421875,0.078948974609375
1751013415774276900,2.25427685546875,-1.00323486328125,-0.191131591796875,0.0763092041015625
1751013415784220000,2.264219970703125,-1.007293701171875,-0.1901092529296875,0.07476806640625
1751013415794163000,2.274162841796875,-1.00885009765625,-0.1905517578125,0.075164794921875
1751013415804106000,2.28410595703125,-1.006439208984375,-0.190460205078125,0.0743865966796875
1751013415814049000,2.294049072265625,-1.0037078857421875,-0.188568115234375,0.07232666015625
1751013415823992000,2.303991943359375,-1.001922607421875,-0.1867828369140625,0.06842041015625
1751013415833936000,2.313935791015625,-0.9986114501953125,-0.1839752197265625,0.0665130615234375
1751013415843879000,2.32387890625,-0.9946441650390625,-0.1831817626953125,0.06317138671875
1751013415853822000,2.333822021484375,-0.9893951416015625,-0.18212890625,0.0578765869140625
1751013415863765000,2.343764892578125,-0.986358642578125,-0.1814727783203125,0.05194091796875
1751013415873708000,2.3537080078125,-0.9852752685546875,-0.1817474365234375,0.0473175048828125
1751013415883651000,2.363651123046875,-0.9874725341796875,-0.1797637939453125,0.0456390380859375
1751013415893595000,2.373594970703125,-0.993072509765625,-0.176544189453125,0.039581298828125
1751013415903538000,2.383537841796875,-0.995330810546875,-0.1781768798828125,0.0383148193359375
1751013415913481000,2.39348095703125,-0.9997100830078125,-0.1799468994140625,0.0356903076171875
1751013415923424000,2.403424072265625,-1.0014495849609375,-0.181121826171875,0.0302886962890625
1751013415933367000,2.413366943359375,-0.9987030029296875,-0.18389892578125,0.028717041015625
1751013415943310000,2.42331005859375,-0.9949951171875,-0.186798095703125,0.0269317626953125
1751013415953254000,2.43325390625,-0.9937591552734375,-0.1849822998046875,0.02545166015625
1751013415963197000,2.443197021484375,-0.997039794921875,-0.1830291748046875,0.025787353515625
1751013415973140000,2.453139892578125,-1.0023956298828125,-0.181610107421875,0.0266265869140625
1751013415983083000,2.4630830078125,-1.002044677734375,-0.18121337890625,0.0265045166015625
1751013415993026000,2.473026123046875,-1.0006561279296875,-0.1824951171875,0.02508544921875
1751013416002969000,2.482968994140625,-0.99798583984375,-0.181610107421875,0.0283355712890625
1751013416012913000,2.492912841796875,-0.9884490966796875,-0.182037353515625,0.029052734375
1751013416022856000,2.50285595703125,-0.98248291015625,-0.18109130859375,0.0286865234375
1751013416032799000,2.512799072265625,-0.9826812744140625,-0.1777191162109375,0.0323638916015625
1751013416042742000,2.522741943359375,-0.97802734375,-0.18182373046875,0.036468505859375
1751013416052685000,2.53268505859375,-0.9721527099609375,-0.1878662109375,0.0374603271484375
1751013416062628900,2.54262890625,-0.9713287353515625,-0.1908416748046875,0.0405426025390625
1751013416072572000,2.552572021484375,-0.9734649658203125,-0.191741943359375,0.045623779296875
1751013416082515000,2.562514892578125,-0.975341796875,-0.19232177734375,0.0478057861328125
1751013416092458000,2.5724580078125,-0.9791107177734375,-0.1913909912109375,0.0503692626953125
1751013416102401000,2.582401123046875,-0.97991943359375,-0.1908111572265625,0.053192138671875
1751013416112344000,2.592343994140625,-0.979461669921875,-0.189300537109375,0.0512237548828125
1751013416122287900,2.602287841796875,-0.984466552734375,-0.18365478515625,0.0482635498046875
1751013416132231000,2.61223095703125,-0.982025146484375,-0.177032470703125,0.0489654541015625
1751013416142174000,2.622174072265625,-0.978851318359375,-0.1785430908203125,0.047393798828125
1751013416152117000,2.632116943359375,-0.9752960205078125,-0.1815948486328125,0.0449371337890625
1751013416162060000,2.64206005859375,-0.97564697265625,-0.182861328125,0.0452117919921875
1751013416172003000,2.652003173828125,-0.974700927734375,-0.1893463134765625,0.0478057861328125
1751013416181947000,2.66194677734375,-0.98358154296875,-0.1970367431640625,0.052581787109375
1751013416191890000,2.671889892578125,-0.9944610595703125,-0.1982269287109375,0.0508575439453125
1751013416201833000,2.6818330078125,-1.00128173828125,-0.1946258544921875,0.044921875
1751013416211776000,2.69177587890625,-1.0104217529296875,-0.1910858154296875,0.0389404296875
1751013416221719000,2.701718994140625,-1.0214080810546875,-0.19427490234375,0.0306396484375
1751013416231662000,2.711662109375,-1.028167724609375,-0.1941070556640625,0.02362060546875
1751013416241606000,2.72160595703125,-1.0334320068359375,-0.19171142578125,0.020660400390625
1751013416251549000,2.731548828125,-1.0399169921875,-0.19134521484375,0.0164947509765625
1751013416261492000,2.741491943359375,-1.0398101806640625,-0.1910552978515625,0.01129150390625
1751013416271435000,2.75143505859375,-1.0384521484375,-0.1903228759765625,0.005645751953125
1751013416281378000,2.7613779296875,-1.0398406982421875,-0.1901702880859375,0.005126953125
1751013416291321000,2.771321044921875,-1.0426177978515625,-0.18792724609375,0.006866455078125
1751013416301265000,2.781264892578125,-1.0392913818359375,-0.1824188232421875,0.0092010498046875
1751013416311208000,2.7912080078125,-1.031036376953125,-0.178497314453125,0.0099334716796875
1751013416321151000,2.80115087890625,-1.0232391357421875,-0.1800384521484375,0.012115478515625
1751013416331093800,2.81109375,-1.014434814453125,-0.1845245361328125,0.0139007568359375
1751013416341036800,2.821036865234375,-1.0118255615234375,-0.186492919921875,0.0197296142578125
1751013416350980900,2.83098095703125,-1.0097503662109375,-0.1871185302734375,0.0280914306640625
1751013416360923600,2.840923583984375,-1.0078277587890625,-0.1905059814453125,0.0328369140625
1751013416370866700,2.85086669921875,-1.0015411376953125,-0.193939208984375,0.0310516357421875
1751013416380809700,2.860809814453125,-0.994293212890625,-0.1932525634765625,0.027923583984375
1751013416390752800,2.870752685546875,-0.98785400390625,-0.1927337646484375,0.02789306640625
1751013416400695800,2.88069580078125,-0.98675537109375,-0.1911468505859375,0.02728271484375
1751013416410640000,2.890639892578125,-0.9851531982421875,-0.193756103515625,0.028533935546875
1751013416420582700,2.900582763671875,-0.9813690185546875,-0.19775390625,0.0338897705078125
1751013416430525700,2.910525634765625,-0.9821319580078125,-0.20147705078125,0.0332794189453125
1751013416440468700,2.92046875,-0.9832763671875,-0.20361328125,0.029541015625
1751013416450411800,2.930411865234375,-0.98638916015625,-0.208099365234375,0.0263671875
1751013416460354800,2.940354736328125,-0.9931182861328125,-0.2120513916015625,0.02294921875
1751013416470299000,2.950298828125,-0.993499755859375,-0.2164459228515625,0.01983642578125
1751013416480241700,2.96024169921875,-0.9904632568359375,-0.2219085693359375,0.02056884765625
1751013416490184700,2.970184814453125,-0.9874725341796875,-0.223236083984375,0.0194244384765625
1751013416500127700,2.980127685546875,-0.981842041015625,-0.22021484375,0.0122222900390625
1751013416510070800,2.99007080078125,-0.9763336181640625,-0.2197723388671875,0.0082244873046875
1751013416520013800,3.000013916015625,-0.9805145263671875,-0.222259521484375,0.00592041015625
1751013416529958000,3.0099580078125,-0.9864501953125,-0.228485107421875,0.0084228515625
1751013416539900700,3.019900634765625,-0.982513427734375,-0.2322845458984375,0.0117950439453125
1751013416549843700,3.02984375,-0.97930908203125,-0.232635498046875,0.00872802734375
1751013416559786800,3.039786865234375,-0.9773712158203125,-0.23486328125,-0.0005645751953125
1751013416569729800,3.049729736328125,-0.974639892578125,-0.2423248291015625,-0.006561279296875
1751013416579673900,3.059673828125,-0.9752197265625,-0.2495574951171875,-0.0089874267578125
1751013416589617000,3.069616943359375,-0.9737701416015625,-0.2563629150390625,-0.0117950439453125
1751013416599559700,3.0795595703125,-0.9679107666015625,-0.26055908203125,-0.017669677734375
1751013416609502700,3.089502685546875,-0.964385986328125,-0.2646026611328125,-0.0190582275390625
1751013416619445800,3.09944580078125,-0.9598388671875,-0.2690582275390625,-0.0170440673828125
1751013416629388800,3.109388916015625,-0.95440673828125,-0.2710113525390625,-0.0170745849609375
1751013416639332900,3.119332763671875,-0.953033447265625,-0.27227783203125,-0.0159759521484375
1751013416649276000,3.12927587890625,-0.953643798828125,-0.2714996337890625,-0.0126800537109375
1751013416659218700,3.13921875,-0.9549102783203125,-0.2698974609375,-0.011566162109375
1751013416669161700,3.14916162109375,-0.9575958251953125,-0.268310546875,-0.0069732666015625
1751013416679104800,3.159104736328125,-0.9567718505859375,-0.2701416015625,-0.007537841796875
1751013416689047800,3.1690478515625,-0.9554901123046875,-0.27105712890625,-0.0132904052734375
1751013416698991900,3.178991943359375,-0.9543609619140625,-0.269073486328125,-0.01922607421875
1751013416708934700,3.1889345703125,-0.95745849609375,-0.267486572265625,-0.0237579345703125
1751013416718877700,3.198877685546875,-0.9620513916015625,-0.2686004638671875,-0.0268096923828125
1751013416728820700,3.20882080078125,-0.9632720947265625,-0.2719573974609375,-0.0287322998046875
1751013416738763800,3.218763671875,-0.96893310546875,-0.274261474609375,-0.030548095703125
1751013416748706800,3.228706787109375,-0.97601318359375,-0.272613525390625,-0.03204345703125
1751013416758651000,3.23865087890625,-0.9786834716796875,-0.2705078125,-0.03759765625
1751013416768593700,3.24859375,-0.9783477783203125,-0.27154541015625,-0.037353515625
1751013416778536700,3.25853662109375,-0.9814605712890625,-0.2755584716796875,-0.032745361328125
1751013416788479700,3.268479736328125,-0.9805755615234375,-0.277099609375,-0.0279388427734375
1751013416798422800,3.2784228515625,-0.97650146484375,-0.2723236083984375,-0.0260772705078125
1751013416808365800,3.28836572265625,-0.974884033203125,-0.264251708984375,-0.0283966064453125
1751013416818310000,3.298309814453125,-0.97906494140625,-0.2594146728515625,-0.0272674560546875
1751013416828252700,3.308252685546875,-0.9858856201171875,-0.2578887939453125,-0.0239715576171875
1751013416838195700,3.31819580078125,-0.9866485595703125,-0.257659912109375,-0.0261688232421875
1751013416848138800,3.328138671875,-0.988006591796875,-0.2569122314453125,-0.025604248046875
1751013416858081800,3.338081787109375,-0.9907684326171875,-0.254730224609375,-0.018798828125
1751013416868025900,3.34802587890625,-0.9914703369140625,-0.254852294921875,-0.0176849365234375
1751013416877969000,3.357968994140625,-0.98675537109375,-0.2557830810546875,-0.02142333984375
1751013416887911700,3.36791162109375,-0.98773193359375,-0.2538299560546875,-0.0259246826171875
1751013416897854700,3.377854736328125,-0.9926300048828125,-0.245758056640625,-0.0209503173828125
1751013416907797800,3.3877978515625,-0.9923095703125,-0.240478515625,-0.0115966796875
1751013416917740800,3.39774072265625,-0.9841156005859375,-0.2388763427734375,-0.004974365234375
1751013416927684900,3.407684814453125,-0.9747772216796875,-0.23699951171875,-0.0018157958984375
1751013416937628000,3.4176279296875,-0.965728759765625,-0.232818603515625,-0.000640869140625
1751013416947570700,3.42757080078125,-0.9606170654296875,-0.231536865234375,0.003265380859375
1751013416957513700,3.437513671875,-0.9577789306640625,-0.23291015625,0.00750732421875
1751013416967456800,3.447456787109375,-0.9557342529296875,-0.231903076171875,0.0130767822265625
1751013416977399800,3.45739990234375,-0.956512451171875,-0.2330780029296875,0.0148773193359375
1751013416987344000,3.46734375,-0.9619140625,-0.2355194091796875,0.013427734375
1751013416997287000,3.477286865234375,-0.9647979736328125,-0.2392730712890625,0.015106201171875
1751013417007229700,3.487229736328125,-0.9650115966796875,-0.24029541015625,0.017791748046875
1751013417017172700,3.4971728515625,-0.9612274169921875,-0.2398529052734375,0.0190887451171875
1751013417027115800,3.50711572265625,-0.957427978515625,-0.238311767578125,0.0193939208984375
1751013417037058800,3.517058837890625,-0.9569854736328125,-0.2383270263671875,0.0194091796875
1751013417047003000,3.5270029296875,-0.9645233154296875,-0.235748291015625,0.02099609375
1751013417056946000,3.53694580078125,-0.9740142822265625,-0.2351226806640625,0.018096923828125
1751013417066888700,3.546888671875,-0.9837493896484375,-0.23651123046875,0.0168609619140625
1751013417076831700,3.556831787109375,-0.990966796875,-0.2408599853515625,0.01776123046875
1751013417086774800,3.56677490234375,-0.9973907470703125,-0.24066162109375,0.015655517578125
1751013417096718800,3.57671875,-1.0033721923828125,-0.239105224609375,0.0149993896484375
1751013417106662000,3.586661865234375,-1.0118408203125,-0.2353973388671875,0.0135040283203125
1751013417116605000,3.59660498046875,-1.0211029052734375,-0.2276153564453125,0.00897216796875
1751013417126547700,3.606547607421875,-1.0301513671875,-0.2179718017578125,0.0057830810546875
1751013417136490800,3.61649072265625,-1.04351806640625,-0.2143707275390625,0.0032501220703125
1751013417146433800,3.626433837890625,-1.034027099609375,-0.2149658203125,-0.0007476806640625
1751013417156377900,3.6363779296875,-1.0185546875,-0.2125396728515625,-0.003631591796875
1751013417166321000,3.64632080078125,-1.0140838623046875,-0.207275390625,-0.0025787353515625
1751013417176264000,3.656263916015625,-1.0173492431640625,-0.2024383544921875,0.00115966796875
1751013417186206700,3.666206787109375,-1.0147247314453125,-0.1976165771484375,0.0073394775390625
1751013417196149800,3.676149658203125,-1.0133056640625,-0.193634033203125,0.012908935546875
1751013417206092800,3.6860927734375,-1.0112762451171875,-0.1873321533203125,0.0178375244140625
1751013417216036900,3.696036865234375,-1.00634765625,-0.1857452392578125,0.0207672119140625
1751013417225980000,3.70597998046875,-0.9989013671875,-0.189453125,0.0222320556640625
1751013417235922700,3.715922607421875,-0.994537353515625,-0.1959381103515625,0.0185699462890625
1751013417245865700,3.72586572265625,-0.988739013671875,-0.2016754150390625,0.0152435302734375
1751013417255808800,3.735808837890625,-0.9846649169921875,-0.203338623046875,0.012542724609375
1751013417265751800,3.745751708984375,-0.9824981689453125,-0.20599365234375,0.0139923095703125
1751013417275695900,3.75569580078125,-0.9817657470703125,-0.2127685546875,0.019561767578125
1751013417285639000,3.765638916015625,-0.9764404296875,-0.220367431640625,0.0245208740234375
1751013417295581700,3.775581787109375,-0.9700469970703125,-0.227203369140625,0.032135009765625
1751013417305524700,3.785524658203125,-0.9641876220703125,-0.2314605712890625,0.0396270751953125
1751013417315467800,3.7954677734375,-0.957275390625,-0.234161376953125,0.0438995361328125
1751013417325412000,3.805412109375,-0.9566802978515625,-0.23480224609375,0.04791259765625
1751013417335355100,3.815355224609375,-0.9610443115234375,-0.2363128662109375,0.051055908203125
1751013417345298200,3.825298095703125,-0.9678955078125,-0.2381744384765625,0.056884765625
1751013417355241000,3.835240966796875,-0.9725341796875,-0.240814208984375,0.0593719482421875
1751013417365184000,3.84518408203125,-0.9796600341796875,-0.2394256591796875,0.0604095458984375
1751013417375127000,3.855126953125,-0.988861083984375,-0.2353515625,0.06182861328125
1751013417385071000,3.865071044921875,-0.99420166015625,-0.2331390380859375,0.0579376220703125
1751013417395014100,3.87501416015625,-0.993499755859375,-0.2278289794921875,0.0523681640625
1751013417404957200,3.884957275390625,-0.9961700439453125,-0.2227325439453125,0.049346923828125
1751013417414900000,3.89489990234375,-1.004150390625,-0.2184600830078125,0.045166015625
1751013417424843000,3.904843017578125,-1.0082244873046875,-0.21539306640625,0.038238525390625
1751013417434786000,3.9147861328125,-1.0100860595703125,-0.212371826171875,0.03009033203125
1751013417444730000,3.924730224609375,-1.012054443359375,-0.209197998046875,0.0203704833984375
1751013417454673200,3.934673095703125,-1.0143585205078125,-0.2064056396484375,0.011383056640625
1751013417464616000,3.944615966796875,-1.0207672119140625,-0.2032928466796875,0.00677490234375
1751013417474559000,3.95455908203125,-1.021240234375,-0.203521728515625,0.0074615478515625
1751013417484502000,3.964501953125,-1.0146331787109375,-0.2040252685546875,0.007720947265625
1751013417494445000,3.974445068359375,-1.006072998046875,-0.204437255859375,0.0060882568359375
1751013417504389000,3.98438916015625,-1.0006256103515625,-0.204498291015625,0.007659912109375
1751013417514332200,3.994332275390625,-0.996734619140625,-0.207794189453125,0.0093231201171875
1751013417524275000,4.00427490234375,-0.9925384521484375,-0.2115631103515625,0.0133209228515625
1751013417534218000,4.014218017578125,-0.984832763671875,-0.2171173095703125,0.013458251953125
1751013417544161000,4.0241611328125,-0.9769439697265625,-0.2230224609375,0.011474609375
1751013417554105000,4.03410498046875,-0.971221923828125,-0.225830078125,0.0123291015625
1751013417564048100,4.044048095703125,-0.9667510986328125,-0.2306365966796875,0.016571044921875
1751013417573991200,4.0539912109375,-0.9646759033203125,-0.236083984375,0.0204620361328125
1751013417583934000,4.063933837890625,-0.9722137451171875,-0.2335205078125,0.0245513916015625
1751013417593877000,4.073876953125,-0.9813232421875,-0.2288665771484375,0.02978515625
1751013417603820000,4.083820068359375,-0.9875335693359375,-0.22344970703125,0.02734375
1751013417613764000,4.09376416015625,-0.9947052001953125,-0.217041015625,0.022857666015625
1751013417623707100,4.10370703125,-0.997833251953125,-0.2087249755859375,0.0158843994140625
1751013417633650200,4.113650146484375,-0.9980316162109375,-0.202392578125,0.0095367431640625
1751013417643593000,4.123593017578125,-0.9935760498046875,-0.200225830078125,0.00714111328125
1751013417653536000,4.133535888671875,-0.9815216064453125,-0.20098876953125,0.0127410888671875
1751013417663479000,4.14347900390625,-0.9678955078125,-0.207305908203125,0.0240478515625
1751013417673423000,4.153423095703125,-0.9599151611328125,-0.2112884521484375,0.038909912109375
1751013417683366100,4.1633662109375,-0.9540252685546875,-0.21551513671875,0.055908203125
1751013417693309200,4.17330908203125,-0.952301025390625,-0.2225494384765625,0.072723388671875
1751013417703252000,4.183251953125,-0.963104248046875,-0.225982666015625,0.084564208984375
1751013417713195000,4.193195068359375,-0.97430419921875,-0.228118896484375,0.0886077880859375
1751013417723139000,4.20313916015625,-0.982086181640625,-0.2244415283203125,0.0951995849609375
1751013417733082000,4.21308203125,-0.993194580078125,-0.21746826171875,0.099395751953125
1751013417743025200,4.223025146484375,-1.001068115234375,-0.210723876953125,0.0970001220703125
1751013417752968200,4.23296826171875,-1.00225830078125,-0.20391845703125,0.087432861328125
1751013417762911000,4.242910888671875,-1.002838134765625,-0.1949310302734375,0.076812744140625
1751013417772854000,4.25285400390625,-1.0033111572265625,-0.186798095703125,0.06414794921875
1751013417782798000,4.262798095703125,-1.00640869140625,-0.179473876953125,0.0518798828125
1751013417792741000,4.2727412109375,-1.0133209228515625,-0.1704559326171875,0.038726806640625
1751013417802684200,4.28268408203125,-1.0112762451171875,-0.1656494140625,0.0271759033203125
1751013417812627200,4.292627197265625,-1.0019989013671875,-0.16552734375,0.0227508544921875
1751013417822570000,4.302570068359375,-0.9871826171875,-0.1721954345703125,0.02362060546875
1751013417832513000,4.312512939453125,-0.9690704345703125,-0.1808013916015625,0.0244903564453125
1751013417842457000,4.32245703125,-0.9573822021484375,-0.1896820068359375,0.0259246826171875
1751013417852400000,4.332400146484375,-0.93670654296875,-0.195648193359375,0.022735595703125
1751013417862343200,4.34234326171875,-0.9234619140625,-0.1920013427734375,0.015625
1751013417872286200,4.3522861328125,-0.9319305419921875,-0.185791015625,0.009063720703125
1751013417882229000,4.36222900390625,-0.9474945068359375,-0.1893768310546875,0.007049560546875
1751013417892172000,4.372172119140625,-0.9629669189453125,-0.1944427490234375,0.0060272216796875
1751013417902116000,4.3821162109375,-0.9808197021484375,-0.1922149658203125,0.00933837890625
1751013417912059100,4.39205908203125,-0.99798583984375,-0.1953125,0.010833740234375
1751013417922002200,4.402002197265625,-1.0028228759765625,-0.1993560791015625,0.007843017578125
1751013417931945000,4.411945068359375,-1.007354736328125,-0.1917572021484375,0.00567626953125
1751013417941888000,4.421887939453125,-1.0083160400390625,-0.1804351806640625,0.0034027099609375
1751013417951832000,4.43183203125,-1.0150146484375,-0.1753082275390625,0.003173828125
1751013417961775000,4.441775146484375,-1.0277862548828125,-0.174041748046875,0.0028228759765625
1751013417971718100,4.45171826171875,-1.0357818603515625,-0.174163818359375,0.0050201416015625
1751013417981661200,4.4616611328125,-1.039276123046875,-0.1768035888671875,0.0068817138671875
1751013417991604000,4.47160400390625,-1.0387725830078125,-0.1783294677734375,0.00823974609375
1751013418001547000,4.481547119140625,-1.0406341552734375,-0.1805572509765625,0.0118255615234375
1751013418011491000,4.491490966796875,-1.04205322265625,-0.183685302734375,0.0122833251953125
1751013418021434000,4.50143408203125,-1.038238525390625,-0.1885223388671875,0.01129150390625
1751013418031377200,4.511377197265625,-1.0304107666015625,-0.1949462890625,0.009429931640625
1751013418041320200,4.5213203125,-1.0211944580078125,-0.2017974853515625,0.012176513671875
1751013418051263000,4.531262939453125,-1.0079345703125,-0.210906982421875,0.014068603515625
1751013418061206000,4.5412060546875,-0.9915771484375,-0.2177276611328125,0.01202392578125
1751013418071150000,4.551150146484375,-0.978851318359375,-0.2219390869140625,0.0120849609375
1751013418081093000,4.561093017578125,-0.9725189208984375,-0.2262420654296875,0.016357421875
1751013418091036200,4.5710361328125,-0.967803955078125,-0.2278900146484375,0.022308349609375
1751013418100979200,4.580979248046875,-0.969512939453125,-0.2243194580078125,0.0313262939453125
1751013418110922000,4.590921875,-0.973663330078125,-0.2176361083984375,0.0396881103515625
1751013418120866000,4.600865966796875,-0.97662353515625,-0.2098541259765625,0.04852294921875
1751013418130809000,4.61080908203125,-0.9863739013671875,-0.2061309814453125,0.0539398193359375
1751013418140752100,4.620752197265625,-0.9934539794921875,-0.2017974853515625,0.049041748046875
1751013418150695200,4.630695068359375,-0.9962921142578125,-0.1982574462890625,0.0372314453125
1751013418160638200,4.64063818359375,-0.99676513671875,-0.19622802734375,0.030517578125
1751013418170581000,4.6505810546875,-0.99639892578125,-0.1959228515625,0.0305023193359375
1751013418180525000,4.660525146484375,-0.9956512451171875,-0.1932220458984375,0.0281982421875
1751013418190468000,4.670468017578125,-1.0006103515625,-0.1901397705078125,0.02630615234375
1751013418200411100,4.6804111328125,-1.008148193359375,-0.188446044921875,0.0242156982421875
1751013418210354200,4.690354248046875,-1.0155792236328125,-0.1906585693359375,0.024017333984375
1751013418220297200,4.700297119140625,-1.0190582275390625,-0.1944427490234375,0.02630615234375
1751013418230240000,4.710239990234375,-1.0199432373046875,-0.19427490234375,0.034149169921875
1751013418240184000,4.72018408203125,-1.0230712890625,-0.19158935546875,0.040374755859375
1751013418250127000,4.730127197265625,-1.0287628173828125,-0.1881866455078125,0.0388641357421875
1751013418260070100,4.740070068359375,-1.0253143310546875,-0.18707275390625,0.03350830078125
1751013418270013200,4.75001318359375,-1.019805908203125,-0.186309814453125,0.030670166015625
1751013418279956200,4.759956298828125,-1.0163421630859375,-0.1843414306640625,0.0355987548828125
1751013418289900000,4.769900146484375,-1.01190185546875,-0.1849822998046875,0.0391082763671875
1751013418299843000,4.779843017578125,-1.0085906982421875,-0.18548583984375,0.03668212890625
1751013418309786000,4.7897861328125,-1.0088653564453125,-0.185943603515625,0.0308837890625
1751013418319729200,4.799729248046875,-1.0119476318359375,-0.1880645751953125,0.0256805419921875
1751013418329675500,4.809675537109375,-1.01702880859375,-0.1921234130859375,0.02166748046875
1751013418339618600,4.81961865234375,-1.020538330078125,-0.193756103515625,0.019989013671875
1751013418349562400,4.829562255859375,-1.0172271728515625,-0.1947479248046875,0.0185546875
1751013418359505400,4.83950537109375,-1.0108184814453125,-0.195953369140625,0.015655517578125
1751013418369448400,4.849448486328125,-1.0037994384765625,-0.1942138671875,0.0134124755859375
1751013418379391500,4.8593916015625,-0.999114990234375,-0.192901611328125,0.0145416259765625
1751013418389334500,4.86933447265625,-0.99700927734375,-0.1922149658203125,0.01708984375
1751013418399277600,4.879277587890625,-0.9973297119140625,-0.192718505859375,0.01934814453125
1751013418409221400,4.889221435546875,-0.9969024658203125,-0.193603515625,0.02288818359375
1751013418419164400,4.899164306640625,-0.9921875,-0.1944122314453125,0.0219879150390625
1751013418429107500,4.909107421875,-0.991851806640625,-0.1949462890625,0.0193023681640625
1751013418439050500,4.919050537109375,-0.994415283203125,-0.1936798095703125,0.0218048095703125
1751013418448993500,4.92899365234375,-0.9970855712890625,-0.1921234130859375,0.0261993408203125
1751013418458936600,4.9389365234375,-0.9944000244140625,-0.190582275390625,0.0312042236328125
1751013418468880400,4.94888037109375,-0.988616943359375,-0.1900787353515625,0.0356903076171875
1751013418478823400,4.958823486328125,-0.9915008544921875,-0.1878509521484375,0.03485107421875
1751013418488766500,4.968766357421875,-0.9919891357421875,-0.1869964599609375,0.037445068359375
1751013418498709500,4.97870947265625,-0.98712158203125,-0.18621826171875,0.0409393310546875
1751013418508652500,4.988652587890625,-0.98809814453125,-0.18414306640625,0.04144287109375
1751013418518596400,4.998596435546875,-0.99432373046875,-0.184295654296875,0.0443267822265625
1751013418528539400,5.008539306640625,-0.9966888427734375,-0.185089111328125,0.044189453125
1751013418538482400,5.018482421875,-1.0028533935546875,-0.1844024658203125,0.044281005859375
1751013418548425500,5.028425537109375,-1.0105743408203125,-0.1837921142578125,0.045196533203125
1751013418558368500,5.038368408203125,-1.0147857666015625,-0.1811370849609375,0.048583984375
1751013418568311600,5.0483115234375,-1.0131683349609375,-0.1795806884765625,0.0492401123046875
1751013418578255400,5.05825537109375,-1.0115966796875,-0.1775360107421875,0.0479583740234375
1751013418588198400,5.068198486328125,-1.0092315673828125,-0.1762542724609375,0.0490570068359375
1751013418598141400,5.078141357421875,-1.0062408447265625,-0.17681884765625,0.0513916015625
1751013418608084500,5.08808447265625,-1.00152587890625,-0.1773223876953125,0.0570831298828125
1751013418618027500,5.098027587890625,-0.9971771240234375,-0.1796417236328125,0.0600738525390625
1751013418627970600,5.107970458984375,-0.9986724853515625,-0.180328369140625,0.059051513671875
1751013418637914400,5.117914306640625,-0.9979400634765625,-0.18292236328125,0.05816650390625
1751013418647857400,5.127857421875,-0.9999542236328125,-0.18450927734375,0.060089111328125
1751013418657800400,5.137800537109375,-0.99835205078125,-0.1862030029296875,0.0622100830078125
1751013418667743500,5.147743408203125,-0.9945831298828125,-0.187774658203125,0.06475830078125
1751013418677686500,5.1576865234375,-0.9907073974609375,-0.18682861328125,0.0670318603515625
1751013418687630300,5.16763037109375,-0.988739013671875,-0.1847381591796875,0.0696258544921875
1751013418697573400,5.177573486328125,-0.9861907958984375,-0.18280029296875,0.0706329345703125
1751013418707516400,5.187516357421875,-0.9910125732421875,-0.183807373046875,0.06976318359375
1751013418717459500,5.19745947265625,-0.988311767578125,-0.1890716552734375,0.0661773681640625
1751013418727402500,5.207402587890625,-0.9761199951171875,-0.1859588623046875,0.0712890625
1751013418737345500,5.217345458984375,-0.9739837646484375,-0.182159423828125,0.073272705078125
1751013418747289300,5.227289306640625,-0.976318359375,-0.1845855712890625,0.0750732421875
1751013418757232400,5.237232421875,-0.976898193359375,-0.1868133544921875,0.0793914794921875
1751013418767175400,5.247175537109375,-0.9801177978515625,-0.182769775390625,0.0777740478515625
1751013418777118500,5.257118408203125,-0.9839019775390625,-0.18011474609375,0.0749053955078125
1751013418787061500,5.2670615234375,-0.9852752685546875,-0.181976318359375,0.0748443603515625
1751013418797004500,5.277004638671875,-0.9838409423828125,-0.184173583984375,0.0767364501953125
1751013418806948400,5.2869482421875,-0.98358154296875,-0.183258056640625,0.0767822265625
1751013418816891400,5.296891357421875,-0.98541259765625,-0.1815948486328125,0.075775146484375
1751013418826834400,5.30683447265625,-0.989105224609375,-0.183837890625,0.07452392578125
1751013418836777500,5.316777587890625,-0.990570068359375,-0.1847991943359375,0.0722808837890625
1751013418846720500,5.326720458984375,-0.9933013916015625,-0.180908203125,0.070831298828125
1751013418856664300,5.336664306640625,-0.99713134765625,-0.1809844970703125,0.0722503662109375
1751013418866607400,5.346607421875,-0.9994354248046875,-0.1833953857421875,0.06878662109375
1751013418876550400,5.35655029296875,-0.997589111328125,-0.18328857421875,0.0674896240234375
1751013418886493400,5.366493408203125,-0.9935760498046875,-0.1802978515625,0.0709075927734375
1751013418896436500,5.3764365234375,-0.9921875,-0.175140380859375,0.0752716064453125
1751013418906379500,5.386379638671875,-0.9874725341796875,-0.17083740234375,0.07916259765625
1751013418916323300,5.3963232421875,-0.9897308349609375,-0.1697998046875,0.080169677734375
1751013418926266400,5.406266357421875,-0.9904327392578125,-0.16998291015625,0.0790557861328125
1751013418936209400,5.41620947265625,-0.9854888916015625,-0.1670989990234375,0.07861328125
1751013418946152400,5.42615234375,-0.9875030517578125,-0.1651763916015625,0.0706939697265625
1751013418956095500,5.436095458984375,-0.9902496337890625,-0.167572021484375,0.0708465576171875
1751013418966039300,5.446039306640625,-0.9909210205078125,-0.17230224609375,0.073699951171875
1751013418975982300,5.455982421875,-0.9880218505859375,-0.175628662109375,0.0755615234375
1751013418985925400,5.46592529296875,-0.986602783203125,-0.1758575439453125,0.075958251953125
1751013418995868400,5.475868408203125,-0.983673095703125,-0.17437744140625,0.0764007568359375
1751013419005811500,5.4858115234375,-0.98468017578125,-0.176116943359375,0.0745697021484375
1751013419015754500,5.49575439453125,-0.9867401123046875,-0.17962646484375,0.074859619140625
1751013419025698300,5.5056982421875,-0.9866485595703125,-0.1812286376953125,0.074676513671875
1751013419035641300,5.515641357421875,-0.987701416015625,-0.1817626953125,0.0758056640625
1751013419045584400,5.52558447265625,-0.9835662841796875,-0.183074951171875,0.076873779296875
1751013419055527400,5.53552734375,-0.9821624755859375,-0.1841278076171875,0.0746307373046875
1751013419065470500,5.545470458984375,-0.988616943359375,-0.1828765869140625,0.0724639892578125
1751013419075413500,5.55541357421875,-0.99237060546875,-0.1834259033203125,0.07177734375
1751013419085357300,5.565357421875,-0.9954986572265625,-0.186553955078125,0.0716094970703125
1751013419095300400,5.57530029296875,-0.9980926513671875,-0.188262939453125,0.0718231201171875
1751013419105243400,5.585243408203125,-0.99652099609375,-0.188995361328125,0.072723388671875
1751013419115186400,5.5951865234375,-0.995635986328125,-0.1872711181640625,0.070709228515625
1751013419125129500,5.60512939453125,-0.99365234375,-0.185028076171875,0.0673675537109375
1751013419135072500,5.615072509765625,-0.991363525390625,-0.1853179931640625,0.0693817138671875
1751013419145016300,5.625016357421875,-0.991058349609375,-0.1855926513671875,0.0733489990234375
1751013419154959400,5.63495947265625,-0.9929962158203125,-0.18328857421875,0.0741729736328125
1751013419164902400,5.64490234375,-0.9951171875,-0.182647705078125,0.07501220703125
1751013419174845400,5.654845458984375,-0.9937286376953125,-0.183929443359375,0.0766143798828125
1751013419184788500,5.66478857421875,-0.9914398193359375,-0.1832275390625,0.0749359130859375
1751013419194732500,5.674732666015625,-0.99102783203125,-0.1804656982421875,0.0740814208984375
1751013419204675300,5.68467529296875,-0.9925689697265625,-0.1798858642578125,0.0754241943359375
1751013419214618400,5.694618408203125,-0.9947662353515625,-0.1778106689453125,0.0729827880859375
1751013419224561400,5.7045615234375,-0.9987945556640625,-0.1764373779296875,0.0705413818359375
1751013419234504400,5.71450439453125,-0.99688720703125,-0.178192138671875,0.0698394775390625
1751013419244447500,5.724447509765625,-0.9938201904296875,-0.1777801513671875,0.069915771484375
1751013419254391600,5.7343916015625,-0.9935150146484375,-0.1765289306640625,0.0699462890625
1751013419264334300,5.744334228515625,-0.9968719482421875,-0.1744537353515625,0.07208251953125
1751013419274277400,5.75427734375,-1.000274658203125,-0.1743316650390625,0.074249267578125
1751013419284220400,5.764220458984375,-0.9989013671875,-0.175628662109375,0.07073974609375
1751013419294163500,5.77416357421875,-0.9964599609375,-0.1783599853515625,0.0682830810546875
1751013419304106500,5.7841064453125,-0.994476318359375,-0.1808013916015625,0.06866455078125
1751013419314050600,5.794050537109375,-0.9902191162109375,-0.1831512451171875,0.07012939453125
1751013419323993300,5.803993408203125,-0.9869842529296875,-0.1850433349609375,0.071319580078125
1751013419333932800,5.813932861328125,-0.984466552734375,-0.186981201171875,0.0733489990234375
1751013419343875800,5.823875732421875,-0.9819183349609375,-0.1886444091796875,0.073333740234375
1751013419353819000,5.83381884765625,-0.9824371337890625,-0.1876220703125,0.07257080078125
1751013419363763000,5.843762939453125,-0.983612060546875,-0.1870574951171875,0.073333740234375
1751013419373706000,5.8537060546875,-0.9875335693359375,-0.187347412109375,0.071044921875
1751013419383648800,5.863648681640625,-0.9931640625,-0.1896514892578125,0.0680389404296875
1751013419393591800,5.873591796875,-0.995147705078125,-0.191650390625,0.067779541015625
1751013419403534800,5.883534912109375,-0.996856689453125,-0.1916046142578125,0.0668182373046875
1751013419413478000,5.893477783203125,-0.9969635009765625,-0.189666748046875,0.0680084228515625
1751013419423422000,5.903421875,-0.995147705078125,-0.1883392333984375,0.0695648193359375
1751013419433365000,5.913364990234375,-0.9923248291015625,-0.1866455078125,0.07037353515625
1751013419443307800,5.923307861328125,-0.9947967529296875,-0.1856231689453125,0.07220458984375
1751013419453250800,5.933250732421875,-0.9968414306640625,-0.1862945556640625,0.0765838623046875
1751013419463193900,5.94319384765625,-0.9999237060546875,-0.1855621337890625,0.0790252685546875
1751013419473138000,5.953137939453125,-1.004119873046875,-0.182769775390625,0.0780181884765625
1751013419483081000,5.9630810546875,-1.0097198486328125,-0.179656982421875,0.0757293701171875
1751013419493024000,5.97302392578125,-1.013885498046875,-0.179412841796875,0.0724639892578125
1751013419502966800,5.982966796875,-1.0166015625,-0.177825927734375,0.07098388671875
1751013419512909800,5.992909912109375,-1.013427734375,-0.174957275390625,0.0733489990234375
1751013419522852900,6.002852783203125,-1.01080322265625,-0.1747283935546875,0.077484130859375
1751013419532797000,6.012796875,-1.005126953125,-0.1766204833984375,0.0785369873046875
1751013419542740000,6.022739990234375,-0.99884033203125,-0.17889404296875,0.0814361572265625
1751013419552682800,6.032682861328125,-0.9965057373046875,-0.1798858642578125,0.084716796875
1751013419562625800,6.042625732421875,-0.99407958984375,-0.181304931640625,0.08856201171875
1751013419572568800,6.05256884765625,-0.99017333984375,-0.18377685546875,0.0878753662109375
1751013419582511900,6.062511962890625,-0.988555908203125,-0.186614990234375,0.086822509765625
1751013419592456000,6.0724560546875,-0.987518310546875,-0.188873291015625,0.087249755859375
1751013419602399000,6.08239892578125,-0.987274169921875,-0.1897125244140625,0.0857086181640625
1751013419612341800,6.092341796875,-0.9862823486328125,-0.188385009765625,0.0806732177734375
1751013419622284800,6.102284912109375,-0.9901580810546875,-0.187225341796875,0.079986572265625
1751013419632227800,6.112227783203125,-0.9947509765625,-0.1873321533203125,0.0765838623046875
1751013419642172000,6.122171875,-0.99822998046875,-0.186798095703125,0.0719146728515625
1751013419652115000,6.132114990234375,-0.9981842041015625,-0.189483642578125,0.0765228271484375
1751013419662058000,6.14205810546875,-0.9962158203125,-0.190338134765625,0.0762786865234375
1751013419672000800,6.152000732421875,-0.9918060302734375,-0.1906890869140625,0.0714263916015625
1751013419681943800,6.16194384765625,-0.9917144775390625,-0.1914825439453125,0.06854248046875
1751013419691886800,6.171886962890625,-0.9978790283203125,-0.1904144287109375,0.07098388671875
1751013419701831000,6.181830810546875,-0.9996185302734375,-0.1916046142578125,0.0733489990234375
1751013419711774000,6.19177392578125,-0.997314453125,-0.191680908203125,0.0766448974609375
1751013419721717000,6.201717041015625,-0.9945220947265625,-0.190643310546875,0.07781982421875
1751013419731659800,6.21165966796875,-0.9940185546875,-0.1909942626953125,0.0791473388671875
1751013419741602800,6.221602783203125,-0.9913177490234375,-0.19366455078125,0.0804595947265625
1751013419751545900,6.2315458984375,-0.988616943359375,-0.1912994384765625,0.0801849365234375
1751013419761490000,6.241489990234375,-0.98809814453125,-0.1873016357421875,0.0828857421875
1751013419771433000,6.251432861328125,-0.99005126953125,-0.1858367919921875,0.0836334228515625
1751013419781376000,6.2613759765625,-0.9910125732421875,-0.1867828369140625,0.081878662109375
1751013419791318800,6.27131884765625,-0.994232177734375,-0.185211181640625,0.0816802978515625
1751013419801261800,6.28126171875,-0.9959869384765625,-0.183624267578125,0.0818939208984375
1751013419811206000,6.291205810546875,-0.99609375,-0.185089111328125,0.081878662109375
1751013419821149000,6.30114892578125,-0.9916839599609375,-0.1883087158203125,0.083465576171875
1751013419831092000,6.311092041015625,-0.9892578125,-0.1900634765625,0.083038330078125
1751013419841035000,6.321034912109375,-0.98858642578125,-0.188812255859375,0.0822601318359375
1751013419850977800,6.330977783203125,-0.994171142578125,-0.1881103515625,0.0851898193359375
1751013419860920800,6.3409208984375,-0.9977569580078125,-0.1892852783203125,0.08612060546875
1751013419870865000,6.350864990234375,-0.9957275390625,-0.191131591796875,0.0848388671875
1751013419880808000,6.360807861328125,-0.988037109375,-0.1917266845703125,0.0814208984375
1751013419890751000,6.3707509765625,-0.982513427734375,-0.1901702880859375,0.0785980224609375
1751013419900694000,6.380694091796875,-0.9835662841796875,-0.189239501953125,0.0807952880859375
1751013419910636800,6.39063671875,-0.98822021484375,-0.1905517578125,0.0820465087890625
1751013419920580900,6.400580810546875,-0.98846435546875,-0.1897430419921875,0.08306884765625
1751013419930524000,6.41052392578125,-0.9870452880859375,-0.1898956298828125,0.0793914794921875
1751013419940467000,6.420467041015625,-0.9925689697265625,-0.187835693359375,0.075927734375
1751013419950410000,6.430409912109375,-1.002899169921875,-0.18438720703125,0.0764617919921875
1751013419960353000,6.44035302734375,-1.010986328125,-0.1824798583984375,0.073699951171875
1751013419970295800,6.4502958984375,-1.0139007568359375,-0.18035888671875,0.0711212158203125
1751013419980240000,6.460239990234375,-1.014373779296875,-0.1800079345703125,0.072021484375
1751013419990183000,6.470182861328125,-1.012420654296875,-0.1790618896484375,0.0682220458984375
1751013420000126000,6.4801259765625,-1.008087158203125,-0.179351806640625,0.0681915283203125
1751013420010069000,6.490069091796875,-1.0043792724609375,-0.180145263671875,0.0703277587890625
1751013420020011800,6.50001171875,-1.002838134765625,-0.1799774169921875,0.07086181640625
1751013420029955800,6.509955810546875,-1.0057525634765625,-0.176849365234375,0.0680694580078125
1751013420039899000,6.51989892578125,-1.02008056640625,-0.171051025390625,0.0671539306640625
1751013420049842000,6.529842041015625,-1.031219482421875,-0.16925048828125,0.0677032470703125
1751013420059785000,6.539784912109375,-1.03363037109375,-0.1734771728515625,0.0670166015625
1751013420069728000,6.54972802734375,-1.0343475341796875,-0.17816162109375,0.06134033203125
1751013420079670800,6.5596708984375,-1.0317535400390625,-0.1720123291015625,0.059722900390625
1751013420089614800,6.56961474609375,-1.039520263671875,-0.1732635498046875,0.0567169189453125
1751013420099558000,6.579557861328125,-1.02972412109375,-0.1793212890625,0.048858642578125
1751013420109501000,6.5895009765625,-1.0231475830078125,-0.1804656982421875,0.0433807373046875
1751013420119444000,6.59944384765625,-1.0091552734375,-0.1821136474609375,0.0373687744140625
1751013420129387000,6.609386962890625,-0.99761962890625,-0.18798828125,0.0311126708984375
1751013420139330800,6.619330810546875,-0.992919921875,-0.193389892578125,0.0321807861328125
1751013420149273900,6.62927392578125,-0.98602294921875,-0.19964599609375,0.0327911376953125
1751013420159217000,6.639216796875,-0.97833251953125,-0.20477294921875,0.0289306640625
1751013420169160000,6.649159912109375,-0.9742431640625,-0.2073516845703125,0.0276947021484375
1751013420179103000,6.65910302734375,-0.9738616943359375,-0.21234130859375,0.0315093994140625
1751013420189046000,6.6690458984375,-0.9709014892578125,-0.2173309326171875,0.0310516357421875
1751013420198989800,6.67898974609375,-0.9639739990234375,-0.2216949462890625,0.0298004150390625
1751013420208932900,6.688932861328125,-0.958984375,-0.224884033203125,0.028106689453125
1751013420218876000,6.6988759765625,-0.9540557861328125,-0.2277374267578125,0.0241546630859375
1751013420228819000,6.70881884765625,-0.9500579833984375,-0.2279052734375,0.02459716796875
1751013420238762000,6.718761962890625,-0.9486083984375,-0.2283782958984375,0.03009033203125
1751013420248705800,6.728705810546875,-0.9502410888671875,-0.229156494140625,0.03228759765625
1751013420258648800,6.73864892578125,-0.9508056640625,-0.22900390625,0.032867431640625
1751013420268591900,6.748591796875,-0.9557647705078125,-0.226226806640625,0.033721923828125
1751013420278535000,6.758534912109375,-0.962921142578125,-0.2236328125,0.0326690673828125
1751013420288478000,6.76847802734375,-0.96185302734375,-0.224212646484375,0.0307769775390625
1751013420298421000,6.7784208984375,-0.9542236328125,-0.2232208251953125,0.0297088623046875
1751013420308364800,6.78836474609375,-0.9482269287109375,-0.2180328369140625,0.028564453125
1751013420318307800,6.798307861328125,-0.9583740234375,-0.2170257568359375,0.03057861328125
1751013420328251000,6.8082509765625,-0.9629974365234375,-0.224151611328125,0.0312652587890625
1751013420338197800,6.81819775390625,-0.960205078125,-0.2222442626953125,0.03594970703125
1751013420348140800,6.828140869140625,-0.96612548828125,-0.2189483642578125,0.03753662109375
1751013420358084600,6.838084716796875,-0.9681243896484375,-0.2198638916015625,0.0418243408203125
1751013420368027600,6.848027587890625,-0.9705352783203125,-0.2189483642578125,0.0425872802734375
1751013420377970700,6.857970703125,-0.9716949462890625,-0.215301513671875,0.0437774658203125
1751013420387913700,6.867913818359375,-0.9727630615234375,-0.21185302734375,0.0467376708984375
1751013420397856800,6.877856689453125,-0.9781036376953125,-0.2072906494140625,0.0499267578125
1751013420407799800,6.8877998046875,-0.987823486328125,-0.2033538818359375,0.049407958984375
1751013420417743600,6.89774365234375,-0.9908599853515625,-0.201416015625,0.0448150634765625
1751013420427686700,6.907686767578125,-0.991668701171875,-0.198577880859375,0.0435638427734375
1751013420437629700,6.917629638671875,-0.9911041259765625,-0.1951446533203125,0.0452117919921875
1751013420447572700,6.92757275390625,-0.988861083984375,-0.1948089599609375,0.044189453125
1751013420457515800,6.937515869140625,-0.9899139404296875,-0.1957244873046875,0.0437469482421875
1751013420467459600,6.94745947265625,-0.991119384765625,-0.1964263916015625,0.0421600341796875
1751013420477402600,6.957402587890625,-0.995635986328125,-0.1954803466796875,0.0400238037109375
1751013420487345700,6.967345703125,-1.000885009765625,-0.195098876953125,0.040435791015625
1751013420497288700,6.977288818359375,-1.0063629150390625,-0.1953887939453125,0.0413055419921875
1751013420507231700,6.987231689453125,-1.0091705322265625,-0.1929931640625,0.0437774658203125
1751013420517174800,6.9971748046875,-1.013702392578125,-0.189483642578125,0.041748046875
1751013420527118600,7.00711865234375,-1.01055908203125,-0.1891021728515625,0.0368804931640625
1751013420537061600,7.0170615234375,-1.010223388671875,-0.1896820068359375,0.0385284423828125
1751013420547004700,7.027004638671875,-1.01104736328125,-0.1891021728515625,0.0429840087890625
1751013420556947700,7.03694775390625,-1.00872802734375,-0.1880950927734375,0.0441131591796875
1751013420566890800,7.046890869140625,-1.004547119140625,-0.187103271484375,0.04400634765625
1751013420576834600,7.05683447265625,-1.0031280517578125,-0.18463134765625,0.0422515869140625
1751013420586777600,7.066777587890625,-1.004730224609375,-0.183990478515625,0.04046630859375
1751013420596720600,7.076720703125,-1.007843017578125,-0.184234619140625,0.0408477783203125
1751013420606663700,7.08666357421875,-1.00958251953125,-0.18511962890625,0.0438079833984375
1751013420616606700,7.096606689453125,-1.0116729736328125,-0.1843719482421875,0.0449371337890625
1751013420626549800,7.1065498046875,-1.01025390625,-0.18267822265625,0.0431671142578125
1751013420636493600,7.11649365234375,-1.0067138671875,-0.1820220947265625,0.0395660400390625
1751013420646436600,7.1264365234375,-1.006500244140625,-0.179656982421875,0.0363006591796875
1751013420656379600,7.136379638671875,-1.0070953369140625,-0.178802490234375,0.039215087890625
1751013420666322700,7.14632275390625,-1.001708984375,-0.179534912109375,0.0406646728515625
1751013420676265700,7.156265625,-0.99871826171875,-0.1763916015625,0.0394744873046875
1751013420686209800,7.166209716796875,-0.9992523193359375,-0.1745452880859375,0.039886474609375
1751013420696152600,7.176152587890625,-0.998748779296875,-0.173553466796875,0.04156494140625
1751013420706095600,7.186095703125,-0.9970703125,-0.1725311279296875,0.0433197021484375
1751013420716038700,7.19603857421875,-0.997161865234375,-0.169189453125,0.0424957275390625
1751013420725981700,7.205981689453125,-0.9993133544921875,-0.1640625,0.0466766357421875
1751013420735924700,7.2159248046875,-0.9993133544921875,-0.1619873046875,0.0478668212890625
1751013420745868800,7.225868896484375,-0.9993896484375,-0.1619415283203125,0.0469818115234375
1751013420755811600,7.2358115234375,-0.997222900390625,-0.1614227294921875,0.0480194091796875
1751013420765754600,7.245754638671875,-0.9944610595703125,-0.1591339111328125,0.04730224609375
1751013420775697700,7.25569775390625,-0.99139404296875,-0.157684326171875,0.0456695556640625
1751013420785640700,7.265640625,-0.9908447265625,-0.1578826904296875,0.0468902587890625
1751013420795584800,7.275584716796875,-0.9927215576171875,-0.1555023193359375,0.05096435546875
1751013420805527800,7.28552783203125,-0.9934539794921875,-0.15374755859375,0.05633544921875
1751013420815470600,7.295470703125,-0.9941253662109375,-0.152984619140625,0.05511474609375
1751013420825413600,7.30541357421875,-0.9956512451171875,-0.152679443359375,0.0538482666015625
1751013420835356700,7.315356689453125,-0.9968719482421875,-0.1543731689453125,0.0513458251953125
1751013420845300700,7.32530078125,-0.9990692138671875,-0.1546173095703125,0.0497589111328125
1751013420855243800,7.335243896484375,-1.0029449462890625,-0.153350830078125,0.05010986328125
1751013420865186800,7.345186767578125,-1.006988525390625,-0.154022216796875,0.0502166748046875
1751013420875129600,7.355129638671875,-1.0119171142578125,-0.1544952392578125,0.04913330078125
1751013420885072600,7.36507275390625,-1.008331298828125,-0.15625,0.047027587890625
1751013420895015700,7.375015625,-1.002197265625,-0.154205322265625,0.04290771484375
1751013420904959700,7.384959716796875,-1.0027313232421875,-0.152801513671875,0.03948974609375
1751013420914902800,7.39490283203125,-1.0080108642578125,-0.1541748046875,0.0395050048828125
1751013420924845600,7.404845458984375,-1.0117950439453125,-0.1563873291015625,0.04248046875
1751013420934788600,7.41478857421875,-1.009429931640625,-0.158111572265625,0.042694091796875
1751013420944731600,7.424731689453125,-1.00689697265625,-0.1562347412109375,0.043701171875
1751013420954675700,7.43467578125,-1.0059967041015625,-0.1559295654296875,0.04217529296875
1751013420964618800,7.44461865234375,-1.0098724365234375,-0.1586761474609375,0.04327392578125
1751013420974561800,7.454561767578125,-1.015594482421875,-0.15972900390625,0.043701171875
1751013420984504600,7.464504638671875,-1.01055908203125,-0.15966796875,0.041839599609375
1751013420994447600,7.474447509765625,-1.0094146728515625,-0.15838623046875,0.0397491455078125
1751013421004391700,7.4843916015625,-1.006256103515625,-0.1585693359375,0.03826904296875
1751013421014334700,7.494334716796875,-1.0024261474609375,-0.158172607421875,0.0388946533203125
1751013421024277800,7.50427783203125,-1.0013427734375,-0.15679931640625,0.041656494140625
1751013421034220800,7.514220703125,-0.9984130859375,-0.15655517578125,0.041229248046875
1751013421044163600,7.52416357421875,-0.9971160888671875,-0.158416748046875,0.0392913818359375
1751013421054106600,7.534106689453125,-1.0006256103515625,-0.16009521484375,0.0386962890625
1751013421064050700,7.54405078125,-1.0059814453125,-0.1610565185546875,0.0364227294921875
1751013421073993700,7.55399365234375,-1.006256103515625,-0.1626129150390625,0.035552978515625
1751013421083936800,7.563936767578125,-1.007049560546875,-0.161285400390625,0.035919189453125
1751013421093879800,7.5738798828125,-1.0115814208984375,-0.164215087890625,0.0365142822265625
1751013421103822600,7.583822509765625,-1.007476806640625,-0.1658935546875,0.034698486328125
1751013421113766700,7.5937666015625,-1.00146484375,-0.1663055419921875,0.0316162109375
1751013421123709700,7.603709716796875,-0.9978485107421875,-0.1671295166015625,0.0305328369140625
1751013421133652700,7.61365283203125,-0.999359130859375,-0.1681671142578125,0.028839111328125
1751013421143595800,7.623595703125,-0.998779296875,-0.17144775390625,0.0264129638671875
1751013421153538800,7.633538818359375,-0.9993743896484375,-0.1736907958984375,0.02392578125
1751013421163482600,7.643482666015625,-1.000274658203125,-0.17620849609375,0.022552490234375
1751013421173425700,7.65342578125,-1.0037384033203125,-0.17535400390625,0.0235443115234375
1751013421183368700,7.66336865234375,-1.005615234375,-0.17303466796875,0.02484130859375
1751013421193311700,7.673311767578125,-1.0050506591796875,-0.1703033447265625,0.0239715576171875
1751013421203254800,7.6832548828125,-1.0055389404296875,-0.1698455810546875,0.01629638671875
1751013421213197800,7.69319775390625,-1.00445556640625,-0.1707763671875,0.013916015625
1751013421223141600,7.7031416015625,-1.00482177734375,-0.1724395751953125,0.0153045654296875
1751013421233084700,7.713084716796875,-1.004974365234375,-0.1738128662109375,0.0181121826171875
1751013421243027700,7.72302783203125,-1.003631591796875,-0.1749114990234375,0.0180206298828125
1751013421252970800,7.732970703125,-1.0005645751953125,-0.1748809814453125,0.017822265625
1751013421262913800,7.742913818359375,-1.0031890869140625,-0.1719818115234375,0.0195770263671875
1751013421272857600,7.752857666015625,-1.006744384765625,-0.16815185546875,0.022247314453125
1751013421282800600,7.762800537109375,-1.00787353515625,-0.1645965576171875,0.0224761962890625
1751013421292743700,7.77274365234375,-1.0054168701171875,-0.1647796630859375,0.0199737548828125
1751013421302686700,7.782686767578125,-1.0041961669921875,-0.1658477783203125,0.02099609375
1751013421312629800,7.792629638671875,-1.004974365234375,-0.1673736572265625,0.0222320556640625
1751013421322573600,7.802573486328125,-1.002105712890625,-0.170166015625,0.023681640625
1751013421332512800,7.8125126953125,-1.000640869140625,-0.174713134765625,0.0265960693359375
1751013421342455800,7.822455810546875,-0.9923095703125,-0.17645263671875,0.0264434814453125
1751013421352398800,7.83239892578125,-0.9880828857421875,-0.1764984130859375,0.0301055908203125
1751013421362342000,7.842341796875,-0.9958953857421875,-0.1806640625,0.0312957763671875
1751013421372285000,7.852284912109375,-0.995758056640625,-0.1849212646484375,0.0347442626953125
1751013421382228700,7.862228759765625,-0.997467041015625,-0.1842498779296875,0.0369110107421875
1751013421392171800,7.872171875,-0.997772216796875,-0.1828460693359375,0.038238525390625
1751013421402114800,7.88211474609375,-0.9951934814453125,-0.184661865234375,0.040069580078125
1751013421412057900,7.892057861328125,-0.9925994873046875,-0.1870574951171875,0.038604736328125
1751013421422001000,7.9020009765625,-0.9929962158203125,-0.185394287109375,0.0383758544921875
1751013421431945000,7.911945068359375,-0.9917144775390625,-0.183807373046875,0.040008544921875
1751013421441887700,7.9218876953125,-0.9927978515625,-0.1815032958984375,0.041107177734375
1751013421451830800,7.931830810546875,-0.9962615966796875,-0.1780548095703125,0.043121337890625
1751013421461773800,7.94177392578125,-0.99371337890625,-0.176361083984375,0.0461578369140625
1751013421471716900,7.951716796875,-0.993682861328125,-0.1736907958984375,0.045135498046875
1751013421481661000,7.961660888671875,-0.9947509765625,-0.17059326171875,0.0469512939453125
1751013421491604000,7.97160400390625,-0.9930419921875,-0.1705474853515625,0.0492095947265625
1751013421501546800,7.981546630859375,-0.990386962890625,-0.1738128662109375,0.047515869140625
1751013421511489800,7.99148974609375,-0.9863739013671875,-0.178497314453125,0.046905517578125
1751013421521432800,8.001432861328125,-0.9823760986328125,-0.179107666015625,0.0491485595703125
1751013421531377000,8.011376953125,-0.9804840087890625,-0.1799163818359375,0.051422119140625
1751013421541320000,8.02131982421875,-0.9815826416015625,-0.1804656982421875,0.050201416015625
1751013421551263000,8.031262939453125,-0.983978271484375,-0.180145263671875,0.04754638671875
1751013421561205800,8.041205810546876,-0.9873809814453125,-0.179656982421875,0.0451202392578125
1751013421571148800,8.051148681640624,-0.9928436279296875,-0.1800689697265625,0.04412841796875
1751013421581091800,8.061091796875,-0.9949493408203125,-0.1820068359375,0.0438690185546875
1751013421591036000,8.071035888671876,-0.9926910400390625,-0.1854705810546875,0.042022705078125
1751013421600979000,8.08097900390625,-0.9938812255859375,-0.1877593994140625,0.03955078125
1751013421610922000,8.090921875,-0.99700927734375,-0.1869964599609375,0.037628173828125
1751013421620864800,8.10086474609375,-1.00128173828125,-0.185791015625,0.0359649658203125
1751013421630807800,8.110807861328125,-1.0038909912109375,-0.18841552734375,0.03460693359375
1751013421640751900,8.120751953125,-0.9979095458984375,-0.1914825439453125,0.0359039306640625
1751013421650695000,8.13069482421875,-0.9952239990234375,-0.189605712890625,0.0339508056640625
1751013421660638000,8.140637939453125,-0.994842529296875,-0.1878509521484375,0.03643798828125
1751013421670580700,8.150580810546876,-0.9933319091796875,-0.1889190673828125,0.037567138671875
1751013421680523800,8.160523681640624,-0.99261474609375,-0.19097900390625,0.03692626953125
1751013421690467800,8.1704677734375,-0.9897308349609375,-0.191619873046875,0.0391998291015625
1751013421700411000,8.180410888671876,-0.986785888671875,-0.194122314453125,0.041961669921875
1751013421710354000,8.19035400390625,-0.9827728271484375,-0.1956024169921875,0.0402069091796875
1751013421720297000,8.200296875,-0.9796600341796875,-0.195770263671875,0.0390472412109375
1751013421730239700,8.21023974609375,-0.9815826416015625,-0.194122314453125,0.041900634765625
1751013421740183800,8.220183837890625,-0.986328125,-0.190460205078125,0.0421142578125
1751013421750126800,8.230126953125,-0.9871063232421875,-0.18975830078125,0.041259765625
1751013421760070000,8.24006982421875,-0.98870849609375,-0.18939208984375,0.0401458740234375
1751013421770013000,8.250012939453125,-0.9910736083984375,-0.1902313232421875,0.0370635986328125
1751013421779956000,8.2599560546875,-0.993011474609375,-0.1905670166015625,0.035980224609375
1751013421789899800,8.269899658203125,-0.995758056640625,-0.1897125244140625,0.0365447998046875
1751013421799842800,8.2798427734375,-0.9916229248046875,-0.1879119873046875,0.0368499755859375
1751013421809785900,8.289785888671876,-0.988128662109375,-0.1870880126953125,0.038909912109375
1751013421819729000,8.29972900390625,-0.989593505859375,-0.186431884765625,0.0406494140625
1751013421829672000,8.309671875,-0.991424560546875,-0.1858062744140625,0.04168701171875
1751013421839615000,8.319614990234374,-0.9921417236328125,-0.185150146484375,0.0404510498046875
1751013421849558800,8.329558837890625,-0.9966888427734375,-0.1843414306640625,0.0381317138671875
1751013421859501800,8.339501708984375,-0.9993133544921875,-0.18585205078125,0.0377960205078125
1751013421869444900,8.34944482421875,-0.997589111328125,-0.1893310546875,0.035797119140625
1751013421879388000,8.359387939453125,-0.9975738525390625,-0.189605712890625,0.0371856689453125
1751013421889331000,8.3693310546875,-0.9990692138671875,-0.1889801025390625,0.0381622314453125
1751013421899274800,8.379274658203125,-0.99542236328125,-0.188690185546875,0.0374908447265625
1751013421909217800,8.3892177734375,-0.988555908203125,-0.1878662109375,0.0344390869140625
1751013421919160800,8.399160888671876,-0.989990234375,-0.1848297119140625,0.0359344482421875
1751013421929104000,8.409103759765625,-0.9920501708984375,-0.1843719482421875,0.038055419921875
1751013421939047000,8.419046875,-0.992218017578125,-0.1859283447265625,0.0402069091796875
1751013421948990700,8.42899072265625,-0.99322509765625,-0.184967041015625,0.0414581298828125
1751013421958933800,8.438933837890625,-0.9949493408203125,-0.1809539794921875,0.0402069091796875
1751013421968876800,8.448876708984375,-0.9938812255859375,-0.1779327392578125,0.037841796875
1751013421978819800,8.45881982421875,-0.993896484375,-0.1755523681640625,0.0386810302734375
1751013421988763000,8.468762939453125,-0.992767333984375,-0.17266845703125,0.0385589599609375
1751013421998707000,8.47870703125,-0.990203857421875,-0.169830322265625,0.0379791259765625
1751013422008649700,8.488649658203125,-0.9845123291015625,-0.1685791015625,0.0391387939453125
1751013422018592800,8.4985927734375,-0.991668701171875,-0.1719818115234375,0.0366363525390625
1751013422028535800,8.508535888671876,-0.9884796142578125,-0.1758575439453125,0.0364227294921875
1751013422038478800,8.518478759765625,-0.9870147705078125,-0.1725616455078125,0.034820556640625
1751013422048423000,8.5284228515625,-0.9947967529296875,-0.1721649169921875,0.0335235595703125
1751013422058365700,8.53836572265625,-1.00103759765625,-0.1752471923828125,0.0330352783203125
1751013422068308700,8.548308837890625,-1.0029144287109375,-0.178619384765625,0.03009033203125
1751013422078251800,8.558251708984375,-1.002288818359375,-0.17694091796875,0.0268707275390625
1751013422088194800,8.56819482421875,-1.0052642822265625,-0.1746826171875,0.0307769775390625
1751013422098137900,8.578137939453125,-1.0136260986328125,-0.17535400390625,0.029266357421875
1751013422108082000,8.58808203125,-1.0121307373046875,-0.1750946044921875,0.0248565673828125
1751013422118024700,8.598024658203125,-1.0084381103515625,-0.173828125,0.023529052734375
1751013422127967700,8.6079677734375,-1.0093841552734375,-0.1736907958984375,0.022491455078125
1751013422137910800,8.617910888671876,-1.011810302734375,-0.1771240234375,0.018096923828125
1751013422147853800,8.627853759765625,-1.0123443603515625,-0.1805267333984375,0.029022216796875
1751013422157798000,8.6377978515625,-1.011199951171875,-0.1804962158203125,0.031982421875
1751013422167741000,8.647740966796874,-1.0127410888671875,-0.1827392578125,0.0313873291015625
1751013422177683700,8.65768359375,-1.0141754150390625,-0.183380126953125,0.0286407470703125
1751013422187626800,8.667626708984375,-1.01068115234375,-0.1812591552734375,0.0276641845703125
1751013422197569800,8.67756982421875,-1.0066070556640625,-0.179351806640625,0.0275726318359375
1751013422207513900,8.687513916015625,-1.0038909912109375,-0.1780242919921875,0.0263214111328125
1751013422217457000,8.697456787109376,-1.0015411376953125,-0.1768951416015625,0.0238800048828125
1751013422227400000,8.70739990234375,-1.00048828125,-0.17706298828125,0.0288543701171875
1751013422237342700,8.7173427734375,-0.9993438720703125,-0.1766815185546875,0.0314178466796875
1751013422247285800,8.72728564453125,-0.998565673828125,-0.1742706298828125,0.03399658203125
1751013422257229800,8.737229736328125,-0.9949798583984375,-0.1720428466796875,0.036224365234375
1751013422267172900,8.7471728515625,-0.9944610595703125,-0.1701202392578125,0.0338287353515625
1751013422277116000,8.757115966796874,-0.999053955078125,-0.1669921875,0.03778076171875
1751013422287059000,8.767058837890625,-1.001495361328125,-0.1684417724609375,0.04156494140625
1751013422297001700,8.777001708984375,-1.0032196044921875,-0.16986083984375,0.040924072265625
1751013422306944800,8.78694482421875,-1.001739501953125,-0.1713409423828125,0.0397491455078125
1751013422316888800,8.796888916015625,-1.0002593994140625,-0.1716461181640625,0.0375823974609375
1751013422326831900,8.806831787109376,-1.0006561279296875,-0.171661376953125,0.03497314453125
1751013422336775400,8.816775390625,-1.000274658203125,-0.1707763671875,0.035125732421875
1751013422346718200,8.82671826171875,-1.00469970703125,-0.1697998046875,0.034271240234375
1751013422356661200,8.8366611328125,-1.0065155029296875,-0.1672210693359375,0.0437774658203125
1751013422366605300,8.846605224609375,-1.007598876953125,-0.1724090576171875,0.0464019775390625
1751013422376548400,8.85654833984375,-1.008636474609375,-0.1726837158203125,0.0395965576171875
1751013422386491400,8.866491455078124,-1.0146331787109375,-0.1692962646484375,0.0420379638671875
1751013422396434400,8.876434326171875,-1.0091094970703125,-0.1663818359375,0.0491180419921875
1751013422406377200,8.886377197265626,-1.006317138671875,-0.16400146484375,0.05218505859375
1751013422416321300,8.8963212890625,-1.0029144287109375,-0.1613922119140625,0.052093505859375
1751013422426264300,8.906264404296875,-0.9981842041015625,-0.1599884033203125,0.055145263671875
1751013422436207400,8.916207275390626,-0.9962310791015625,-0.1613311767578125,0.0546875
1751013422446150400,8.926150390625,-0.9945220947265625,-0.1612548828125,0.0527801513671875
1751013422456093200,8.93609326171875,-0.9907684326171875,-0.15948486328125,0.054931640625
1751013422466037200,8.946037353515624,-0.9869384765625,-0.1573486328125,0.0594329833984375
1751013422475980300,8.955980224609375,-0.983551025390625,-0.1574859619140625,0.062591552734375
1751013422485923300,8.96592333984375,-0.9864501953125,-0.159454345703125,0.064666748046875
1751013422495866400,8.975866455078124,-0.9901885986328125,-0.161376953125,0.0670166015625
1751013422505809400,8.985809326171875,-0.994140625,-0.16241455078125,0.068878173828125
1751013422515753200,8.995753173828126,-0.9970855712890625,-0.163055419921875,0.0730133056640625
1751013422525696300,9.0056962890625,-1.0016937255859375,-0.164886474609375,0.0708770751953125
1751013422535639300,9.015639404296875,-1.00238037109375,-0.167144775390625,0.06463623046875
1751013422545582300,9.025582275390626,-1.0002288818359375,-0.1671905517578125,0.06158447265625
1751013422555525400,9.035525390625,-1.0006103515625,-0.166015625,0.058807373046875
1751013422565469200,9.04546923828125,-1.0019683837890625,-0.1639404296875,0.05712890625
1751013422575412200,9.055412109375,-1.00018310546875,-0.1642303466796875,0.05902099609375
1751013422585355300,9.065355224609375,-0.996246337890625,-0.1634521484375,0.0610809326171875
1751013422595298300,9.07529833984375,-0.9921417236328125,-0.1595916748046875,0.058441162109375
1751013422605241300,9.085241455078124,-0.985687255859375,-0.1602935791015625,0.06207275390625
1751013422615184400,9.095184326171875,-0.9778289794921875,-0.1613006591796875,0.0626220703125
1751013422625128200,9.105128173828126,-0.9767608642578125,-0.163055419921875,0.0573577880859375
1751013422635071200,9.1150712890625,-0.97637939453125,-0.163116455078125,0.0511627197265625
1751013422645014300,9.12501416015625,-0.976898193359375,-0.1626434326171875,0.0463104248046875
1751013422654957300,9.134957275390626,-0.97784423828125,-0.1627349853515625,0.044830322265625
1751013422664900400,9.144900390625,-0.97894287109375,-0.16436767578125,0.049713134765625
1751013422674844200,9.15484423828125,-0.981781005859375,-0.1717681884765625,0.054473876953125
1751013422684787200,9.164787109375,-0.9761810302734375,-0.1776580810546875,0.0590362548828125
1751013422694730200,9.174730224609375,-0.969024658203125,-0.1791229248046875,0.0618133544921875
1751013422704673300,9.18467333984375,-0.9670867919921875,-0.1793212890625,0.0658111572265625
1751013422714616300,9.1946162109375,-0.976287841796875,-0.1793060302734375,0.0681610107421875
1751013422724560400,9.204560302734375,-0.98345947265625,-0.177490234375,0.0667266845703125
1751013422734503200,9.214503173828126,-0.9837646484375,-0.174713134765625,0.0645599365234375
1751013422744446200,9.2244462890625,-0.9861907958984375,-0.1708221435546875,0.063720703125
1751013422754389200,9.23438916015625,-0.98974609375,-0.16912841796875,0.0633087158203125
1751013422764332300,9.244332275390626,-0.992706298828125,-0.1693572998046875,0.0615692138671875
1751013422774276400,9.2542763671875,-0.992462158203125,-0.16925048828125,0.05853271484375
1751013422784219400,9.264219482421876,-0.9929046630859375,-0.1639404296875,0.06036376953125
1751013422794162200,9.274162109375,-0.993499755859375,-0.1586761474609375,0.0597991943359375
1751013422804105200,9.284105224609375,-0.995880126953125,-0.1581878662109375,0.062774658203125
1751013422814048300,9.29404833984375,-0.9994964599609375,-0.15960693359375,0.064544677734375
1751013422823992300,9.303992431640625,-1.0026702880859375,-0.16204833984375,0.06256103515625
1751013422833935400,9.313935302734375,-1.00347900390625,-0.1615753173828125,0.0602264404296875
1751013422843878100,9.323878173828126,-1.00775146484375,-0.1611328125,0.0567474365234375
1751013422853821200,9.3338212890625,-1.0125579833984375,-0.1597900390625,0.0550384521484375
1751013422863764200,9.34376416015625,-1.0100860595703125,-0.1573028564453125,0.0587310791015625
1751013422873708300,9.353708251953124,-1.0036773681640625,-0.1537017822265625,0.0575103759765625
1751013422883651300,9.3636513671875,-0.9987640380859375,-0.151702880859375,0.053863525390625
1751013422893594400,9.373594482421876,-0.997161865234375,-0.1531524658203125,0.0553436279296875
1751013422903537200,9.383537109375,-0.9980316162109375,-0.158233642578125,0.06097412109375
1751013422913480200,9.393480224609375,-0.997406005859375,-0.161712646484375,0.0670166015625
1751013422923424300,9.40342431640625,-0.9925994873046875,-0.165130615234375,0.068634033203125
1751013422933367300,9.4133671875,-0.9918670654296875,-0.1671142578125,0.0672454833984375
1751013422943310300,9.423310302734375,-0.99700927734375,-0.1640625,0.0646514892578125
1751013422953253400,9.43325341796875,-1.003936767578125,-0.1573486328125,0.0637969970703125
1751013422963196200,9.443196044921875,-1.0045928955078125,-0.1551055908203125,0.0622711181640625
1751013422973140200,9.45314013671875,-1.00311279296875,-0.1545867919921875,0.061767578125
1751013422983083300,9.463083251953124,-1.0004730224609375,-0.1526641845703125,0.061309814453125
1751013422993026300,9.4730263671875,-0.9984588623046875,-0.154327392578125,0.05755615234375
1751013423002969300,9.48296923828125,-0.99700927734375,-0.157501220703125,0.0569305419921875
1751013423012912400,9.492912353515624,-0.9980010986328125,-0.1597747802734375,0.0598602294921875
1751013423022855200,9.502855224609375,-1.0046844482421875,-0.160736083984375,0.0647430419921875
1751013423032799200,9.51279931640625,-1.0096435546875,-0.162139892578125,0.0693511962890625
1751013423042742300,9.5227421875,-1.0061492919921875,-0.1580047607421875,0.07421875
1751013423052685300,9.532685302734375,-1.0117034912109375,-0.1497650146484375,0.07843017578125
1751013423062628400,9.54262841796875,-1.01361083984375,-0.14312744140625,0.0788421630859375
1751013423072571400,9.5525712890625,-1.01336669921875,-0.143096923828125,0.0751953125
1751013423082515200,9.56251513671875,-1.0114593505859375,-0.1448516845703125,0.06890869140625
1751013423092458200,9.572458251953124,-1.0166168212890625,-0.1435699462890625,0.0654144287109375
1751013423102401300,9.5824013671875,-1.0246124267578125,-0.14459228515625,0.063446044921875
1751013423112344300,9.59234423828125,-1.0320587158203125,-0.1487579345703125,0.065093994140625
1751013423122287400,9.602287353515624,-1.0377655029296875,-0.153564453125,0.0649566650390625
1751013423132231200,9.612231201171875,-1.0414886474609375,-0.1591949462890625,0.064849853515625
1751013423142174200,9.62217431640625,-1.0403289794921875,-0.163543701171875,0.0639495849609375
1751013423152117200,9.6321171875,-1.035369873046875,-0.1664886474609375,0.0608673095703125
1751013423162060300,9.642060302734375,-1.0286407470703125,-0.170166015625,0.0515899658203125
1751013423172003300,9.65200341796875,-1.02398681640625,-0.170074462890625,0.0461273193359375
1751013423181947100,9.661947021484375,-1.022216796875,-0.16632080078125,0.0475311279296875
1751013423191890200,9.67189013671875,-1.0212860107421875,-0.16522216796875,0.0512847900390625
1751013423201833200,9.681833251953124,-1.01568603515625,-0.1666107177734375,0.05194091796875
1751013423211776300,9.6917763671875,-1.006683349609375,-0.166534423828125,0.04833984375
1751013423221719300,9.70171923828125,-0.9996795654296875,-0.161895751953125,0.0459136962890625
1751013423231663000,9.7116630859375,-0.9958953857421875,-0.1602325439453125,0.0493621826171875
1751013423241606100,9.721606201171875,-0.9905548095703125,-0.1635284423828125,0.05487060546875
1751013423251549200,9.731549072265626,-0.98919677734375,-0.1658477783203125,0.0545806884765625
1751013423261492200,9.7414921875,-0.9951324462890625,-0.16802978515625,0.0537261962890625
1751013423271435300,9.751435302734375,-0.9980010986328125,-0.171356201171875,0.050872802734375
1751013423281379300,9.76137939453125,-0.997802734375,-0.1737518310546875,0.0517578125
1751013423291322000,9.771322021484375,-0.9962615966796875,-0.1775054931640625,0.0537261962890625
1751013423301265200,9.78126513671875,-0.99591064453125,-0.181915283203125,0.059722900390625
1751013423311208200,9.791208251953124,-0.9956207275390625,-0.184173583984375,0.061798095703125
1751013423321151200,9.801151123046875,-0.9931793212890625,-0.182769775390625,0.057708740234375
1751013423331095300,9.81109521484375,-0.992919921875,-0.18182373046875,0.055511474609375
1751013423341041400,9.82104150390625,-0.99407958984375,-0.180419921875,0.058929443359375
1751013423350984400,9.830984375,-0.9936065673828125,-0.1770477294921875,0.065032958984375
1751013423360927200,9.84092724609375,-0.996551513671875,-0.1759033203125,0.0659027099609375
1751013423370870300,9.850870361328125,-0.9927825927734375,-0.175140380859375,0.0665435791015625
1751013423380814300,9.860814453125,-0.9934844970703125,-0.174591064453125,0.0683441162109375
1751013423390757400,9.87075732421875,-0.9969024658203125,-0.1744384765625,0.06842041015625
1751013423400700400,9.880700439453125,-0.9914093017578125,-0.1728363037109375,0.0702362060546875
1751013423410643500,9.8906435546875,-0.9973297119140625,-0.1652679443359375,0.0649261474609375
1751013423420586200,9.900586181640625,-1.005615234375,-0.1623077392578125,0.0652923583984375
1751013423430529000,9.910529052734375,-1.00335693359375,-0.164306640625,0.067108154296875
1751013423440473300,9.920473388671875,-0.9977874755859375,-0.163116455078125,0.06787109375
1751013423450416400,9.93041650390625,-0.99456787109375,-0.1594085693359375,0.06341552734375
1751013423460359400,9.940359375,-0.9953765869140625,-0.15899658203125,0.0597686767578125
1751013423470302500,9.950302490234375,-0.99102783203125,-0.162811279296875,0.059173583984375
1751013423480245200,9.960245361328125,-0.983367919921875,-0.1630401611328125,0.059234619140625
1751013423490189300,9.970189208984374,-0.9819183349609375,-0.1618499755859375,0.06097412109375
1751013423500132400,9.98013232421875,-0.98101806640625,-0.1614532470703125,0.0647735595703125
1751013423510075400,9.990075439453125,-0.980712890625,-0.1616973876953125,0.06463623046875
1751013423520018400,10.000018310546874,-0.981536865234375,-0.16278076171875,0.063140869140625
1751013423529961500,10.00996142578125,-0.9794769287109375,-0.1671905517578125,0.0622711181640625
1751013423539905300,10.0199052734375,-0.9805145263671875,-0.1699981689453125,0.063720703125
1751013423549848300,10.029848388671875,-0.984100341796875,-0.1699066162109375,0.06689453125
1751013423559791400,10.039791259765625,-0.989288330078125,-0.172760009765625,0.070037841796875
1751013423569734400,10.049734375,-0.98828125,-0.175811767578125,0.0703125
1751013423579677400,10.059677490234375,-0.9827728271484375,-0.17315673828125,0.078521728515625
1751013423589621200,10.069621337890625,-0.976348876953125,-0.16754150390625,0.0729217529296875
1751013423599564300,10.079564208984374,-0.9825897216796875,-0.168304443359375,0.0780029296875
1751013423609507300,10.08950732421875,-0.9841461181640625,-0.1748199462890625,0.07537841796875
1751013423619450400,10.099450439453125,-0.985565185546875,-0.172271728515625,0.073455810546875
1751013423629393400,10.109393310546874,-0.990142822265625,-0.1709442138671875,0.06597900390625
1751013423639337200,10.119337158203125,-0.9931640625,-0.172515869140625,0.050079345703125
1751013423649280300,10.1292802734375,-1.0015869140625,-0.1747894287109375,0.0460662841796875
1751013423659223300,10.139223388671875,-1.0087127685546875,-0.1741790771484375,0.0462646484375
1751013423669166300,10.149166259765625,-1.0140838623046875,-0.1711883544921875,0.0428466796875
1751013423679109400,10.159109375,-1.02044677734375,-0.1741180419921875,0.03704833984375
1751013423689053200,10.16905322265625,-1.0205535888671875,-0.1781005859375,0.03314208984375
1751013423698996200,10.178996337890625,-1.0168609619140625,-0.17718505859375,0.0381927490234375
1751013423708939300,10.188939208984374,-1.0096282958984375,-0.1772308349609375,0.046478271484375
1751013423718882300,10.19888232421875,-1.004608154296875,-0.1823577880859375,0.0521697998046875
1751013423728825300,10.208825439453125,-1.0054473876953125,-0.18585205078125,0.052154541015625
1751013423738769400,10.218769287109374,-1.006622314453125,-0.19183349609375,0.0517120361328125
1751013423748712200,10.228712158203125,-1.0056304931640625,-0.19647216796875,0.0541229248046875
1751013423758655200,10.2386552734375,-1.0052642822265625,-0.1966705322265625,0.05450439453125
1751013423768598300,10.248598388671875,-1.004058837890625,-0.1961212158203125,0.0553741455078125
1751013423778541300,10.258541259765625,-1.0003204345703125,-0.1970977783203125,0.0552978515625
1751013423788485400,10.2684853515625,-0.987030029296875,-0.1976165771484375,0.053009033203125
1751013423798428400,10.278428466796875,-0.976898193359375,-0.1973876953125,0.05535888671875
1751013423808371200,10.28837109375,-0.971282958984375,-0.1971282958984375,0.05657958984375
1751013423818314200,10.298314208984374,-0.97320556640625,-0.1979827880859375,0.0583343505859375
1751013423828257300,10.30825732421875,-0.9749755859375,-0.197479248046875,0.05963134765625
1751013423838200300,10.318200439453125,-0.976226806640625,-0.1898345947265625,0.0622711181640625
1751013423848144400,10.328144287109374,-0.97808837890625,-0.18768310546875,0.0644073486328125
1751013423858087400,10.33808740234375,-0.9807891845703125,-0.1895599365234375,0.06304931640625
1751013423868030200,10.3480302734375,-0.986328125,-0.1912078857421875,0.0594482421875
1751013423877973200,10.35797314453125,-0.9935302734375,-0.191986083984375,0.05743408203125
1751013423887916300,10.367916259765625,-0.99871826171875,-0.1905059814453125,0.056671142578125
1751013423897860400,10.3778603515625,-1.0009918212890625,-0.1884765625,0.0537872314453125
1751013423907803400,10.387803466796875,-0.99810791015625,-0.1866912841796875,0.048248291015625
1751013423917746400,10.397746337890625,-0.995819091796875,-0.185302734375,0.0465850830078125
1751013423927689200,10.407689208984374,-0.9968109130859375,-0.1866912841796875,0.0493927001953125
1751013423937632300,10.41763232421875,-0.9962921142578125,-0.18634033203125,0.0516815185546875
1751013423947576300,10.427576416015626,-0.9969329833984375,-0.1876983642578125,0.05609130859375
1751013423957519400,10.437519287109374,-1.00030517578125,-0.1857757568359375,0.054962158203125
1751013423967462400,10.44746240234375,-1.002960205078125,-0.1867218017578125,0.05377197265625
1751013423977405200,10.4574052734375,-1.001373291015625,-0.1902618408203125,0.0527496337890625
1751013423987348200,10.46734814453125,-0.9967041015625,-0.1882171630859375,0.0491790771484375
1751013423997292300,10.477292236328125,-1.00286865234375,-0.185302734375,0.0488739013671875
1751013424007235300,10.4872353515625,-1.0049285888671875,-0.184844970703125,0.050323486328125
1751013424017178400,10.497178466796875,-0.999755859375,-0.1835479736328125,0.0501708984375
1751013424027121400,10.507121337890625,-0.992584228515625,-0.179595947265625,0.0489044189453125
1751013424037064200,10.517064208984374,-0.9945831298828125,-0.174285888671875,0.04730224609375
1751013424047008300,10.52700830078125,-0.997711181640625,-0.1732025146484375,0.0460205078125
1751013424056951300,10.536951416015626,-0.9982147216796875,-0.1751708984375,0.0460357666015625
1751013424066894300,10.546894287109374,-1.00030517578125,-0.1771240234375,0.047943115234375
1751013424076837400,10.55683740234375,-1.001617431640625,-0.1785430908203125,0.0433197021484375
1751013424086780400,10.566780517578126,-1.005340576171875,-0.181365966796875,0.03387451171875
1751013424096724200,10.57672412109375,-1.010101318359375,-0.1828460693359375,0.032623291015625
1751013424106667300,10.586667236328125,-1.017486572265625,-0.181060791015625,0.03753662109375
1751013424116610300,10.5966103515625,-0.997314453125,-0.1814727783203125,0.0347747802734375
1751013424126553300,10.60655322265625,-0.8609771728515625,-0.173187255859375,0.0599365234375
1751013424136496400,10.616496337890625,-0.9438018798828125,-0.1729583740234375,0.0943145751953125
1751013424146440200,10.626440185546874,-1.00445556640625,-0.1789093017578125,0.0921478271484375
1751013424156383200,10.63638330078125,-1.0007781982421875,-0.1906280517578125,0.04547119140625
1751013424166326300,10.646326171875,-1.0062713623046875,-0.1832122802734375,0.0454559326171875
1751013424176269300,10.656269287109374,-1.0046539306640625,-0.182464599609375,0.0468597412109375
1751013424186212400,10.66621240234375,-1.01739501953125,-0.1896514892578125,0.0432281494140625
1751013424196156200,10.67615625,-1.02374267578125,-0.19183349609375,0.032379150390625
1751013424206099200,10.68609912109375,-1.0238037109375,-0.19268798828125,0.0230712890625
1751013424216042200,10.696042236328125,-1.04229736328125,-0.19622802734375,0.0195770263671875
1751013424225985300,10.7059853515625,-1.0463409423828125,-0.195404052734375,0.028289794921875
1751013424235928300,10.71592822265625,-1.02618408203125,-0.1853790283203125,0.0490570068359375
