time,seconds_elapsed,z,y,x
1751013820212692500,0.1206923828125,-0.9977569580078125,-0.1519012451171875,-0.033447265625
1751013820222636800,0.13063671875,-0.9915771484375,-0.1590576171875,-0.031463623046875
1751013820232579600,0.14057958984375,-0.9929962158203125,-0.159454345703125,-0.0277252197265625
1751013820242522600,0.150522705078125,-0.994781494140625,-0.1555328369140625,-0.021453857421875
1751013820252466700,0.160466796875,-0.99468994140625,-0.1555633544921875,-0.022735595703125
1751013820262409700,0.17040966796875,-0.997955322265625,-0.1502838134765625,-0.017974853515625
1751013820272353500,0.180353515625,-1.0042266845703125,-0.1421356201171875,-0.0153656005859375
1751013820282296600,0.190296630859375,-1.0061798095703125,-0.1364593505859375,-0.01910400390625
1751013820292240600,0.20024072265625,-1.011444091796875,-0.13555908203125,-0.0220184326171875
1751013820302183700,0.21018359375,-1.017364501953125,-0.1317291259765625,-0.0227813720703125
1751013820312127500,0.22012744140625,-1.0199737548828125,-0.130859375,-0.0291900634765625
1751013820322070500,0.230070556640625,-1.01824951171875,-0.135009765625,-0.0335845947265625
1751013820332013600,0.240013671875,-1.0189971923828125,-0.1384735107421875,-0.034149169921875
1751013820341957600,0.24995751953125,-1.019012451171875,-0.142486572265625,-0.032470703125
1751013820351900700,0.259900634765625,-1.0126800537109375,-0.147735595703125,-0.033966064453125
1751013820361844500,0.269844482421875,-1.0095062255859375,-0.1493682861328125,-0.0307159423828125
1751013820371787500,0.27978759765625,-1.008941650390625,-0.1481781005859375,-0.023834228515625
1751013820381731600,0.289731689453125,-1.0088348388671875,-0.1482086181640625,-0.0257568359375
1751013820391674600,0.299674560546875,-1.0068511962890625,-0.14654541015625,-0.0219573974609375
1751013820401617400,0.309617431640625,-1.008514404296875,-0.1415557861328125,-0.0196380615234375
1751013820411561700,0.319561767578125,-1.0080413818359375,-0.1407623291015625,-0.0211639404296875
1751013820421504500,0.32950439453125,-1.0061187744140625,-0.1439361572265625,-0.0250701904296875
1751013820431448600,0.339448486328125,-1.0067138671875,-0.145172119140625,-0.026397705078125
1751013820441391600,0.3493916015625,-1.0077972412109375,-0.14764404296875,-0.02471923828125
1751013820451335700,0.359335693359375,-1.0082244873046875,-0.1516876220703125,-0.0245208740234375
1751013820461278700,0.36927880859375,-1.00244140625,-0.154632568359375,-0.0234375
1751013820471222500,0.379222412109375,-0.999114990234375,-0.1561431884765625,-0.0220947265625
1751013820481165600,0.38916552734375,-0.9953155517578125,-0.156982421875,-0.0207672119140625
1751013820491108600,0.399108642578125,-0.9921417236328125,-0.1560516357421875,-0.0209503173828125
1751013820501052700,0.409052734375,-0.9884490966796875,-0.1552581787109375,-0.019989013671875
1751013820510995700,0.41899560546875,-0.983184814453125,-0.15545654296875,-0.018341064453125
1751013820520939500,0.428939453125,-0.9856414794921875,-0.1530914306640625,-0.0145721435546875
1751013820530882600,0.438882568359375,-0.995025634765625,-0.15252685546875,-0.01361083984375
1751013820540826600,0.44882666015625,-0.99407958984375,-0.154815673828125,-0.0101165771484375
1751013820550769700,0.458769775390625,-0.9886932373046875,-0.1535186767578125,-0.012420654296875
1751013820560713500,0.46871337890625,-0.997467041015625,-0.147369384765625,-0.0098876953125
1751013820570656500,0.478656494140625,-1.0074005126953125,-0.1484375,-0.0068359375
1751013820580599600,0.488599609375,-1.0100555419921875,-0.150604248046875,-0.012359619140625
1751013820590543600,0.498543701171875,-1.007110595703125,-0.1554718017578125,-0.017059326171875
1751013820600486400,0.508486328125,-1.0082550048828125,-0.15850830078125,-0.021392822265625
1751013820610430700,0.5184306640625,-1.0045928955078125,-0.160400390625,-0.0176544189453125
1751013820620373800,0.528373779296875,-0.9987030029296875,-0.1621856689453125,-0.0110321044921875
1751013820630317600,0.538317626953125,-0.9946746826171875,-0.1583709716796875,-0.0085296630859375
1751013820640260600,0.548260498046875,-0.99237060546875,-0.1515655517578125,-0.004730224609375
1751013820650204700,0.55820458984375,-0.9934844970703125,-0.148345947265625,-0.0070037841796875
1751013820660147700,0.568147705078125,-1.0001068115234375,-0.149566650390625,-0.0095367431640625
1751013820670091500,0.578091552734375,-1.0061492919921875,-0.15185546875,-0.0101318359375
1751013820680034600,0.58803466796875,-1.00958251953125,-0.1544189453125,-0.009552001953125
1751013820689977600,0.5979775390625,-1.0121307373046875,-0.1604461669921875,-0.0104827880859375
1751013820699921700,0.607921630859375,-1.0160675048828125,-0.1649322509765625,-0.010345458984375
1751013820709864700,0.61786474609375,-1.01641845703125,-0.1678924560546875,-0.0089569091796875
1751013820719808500,0.62780859375,-1.01123046875,-0.170166015625,-0.0108489990234375
1751013820729751600,0.63775146484375,-1.010772705078125,-0.1669921875,-0.0101470947265625
1751013820739695600,0.647695556640625,-1.01544189453125,-0.1583709716796875,-0.0064697265625
1751013820749638700,0.657638671875,-1.0102691650390625,-0.1537933349609375,0.00030517578125
1751013820759581400,0.66758154296875,-1.0088348388671875,-0.1492156982421875,0.0044403076171875
1751013820769525500,0.677525390625,-1.0171661376953125,-0.1400146484375,0.0165252685546875
1751013820779468500,0.687468505859375,-1.01318359375,-0.1352386474609375,0.028076171875
1751013820789412600,0.69741259765625,-0.9826507568359375,-0.1512603759765625,0.0186614990234375
1751013820799355400,0.70735546875,-0.9655914306640625,-0.1766815185546875,-0.0086669921875
1751013820809299700,0.7172998046875,-0.9837799072265625,-0.1906585693359375,-0.0399169921875
1751013820819242800,0.72724267578125,-1.012847900390625,-0.190765380859375,-0.0601043701171875
1751013820829186600,0.7371865234375,-1.0248260498046875,-0.1739501953125,-0.0526123046875
1751013820839129600,0.747129638671875,-1.015411376953125,-0.1597137451171875,-0.0224456787109375
1751013820849072600,0.75707275390625,-0.994598388671875,-0.160858154296875,0.0172576904296875
1751013820859016700,0.7670166015625,-0.9620208740234375,-0.177215576171875,0.0429229736328125
1751013820868959700,0.776959716796875,-0.94891357421875,-0.185821533203125,0.0388031005859375
1751013820878903600,0.786903564453125,-0.970703125,-0.17742919921875,0.0219879150390625
1751013820888846600,0.7968466796875,-0.989044189453125,-0.1693115234375,0.0019073486328125
1751013820898790700,0.806790771484375,-0.9852447509765625,-0.17352294921875,-0.0105133056640625
1751013820908733700,0.816733642578125,-0.987335205078125,-0.174407958984375,-0.00872802734375
1751013820918677500,0.826677490234375,-0.998779296875,-0.1698760986328125,-0.0030670166015625
1751013820928620500,0.83662060546875,-1.002471923828125,-0.166229248046875,-0.0041656494140625
1751013820938563600,0.8465634765625,-0.998077392578125,-0.1670684814453125,-0.011016845703125
1751013820948507600,0.856507568359375,-0.99273681640625,-0.1698455810546875,-0.0184478759765625
1751013820958450400,0.866450439453125,-0.9948577880859375,-0.1721343994140625,-0.0235748291015625
1751013820968394500,0.87639453125,-0.99969482421875,-0.1731414794921875,-0.0256195068359375
1751013820978337500,0.886337646484375,-0.9966583251953125,-0.1734619140625,-0.0207672119140625
1751013820988281600,0.896281494140625,-0.98876953125,-0.176605224609375,-0.0122833251953125
1751013820998224400,0.906224365234375,-0.986419677734375,-0.1815185546875,-0.0064849853515625
1751013821008168700,0.916168701171875,-0.9889068603515625,-0.1847381591796875,-0.008453369140625
1751013821018111700,0.92611181640625,-0.99493408203125,-0.1826934814453125,-0.013397216796875
1751013821028054800,0.9360546875,-1.0023956298828125,-0.1817169189453125,-0.024627685546875
1751013821037998600,0.94599853515625,-1.0026092529296875,-0.1841888427734375,-0.027435302734375
1751013821047941600,0.955941650390625,-0.9981689453125,-0.1877593994140625,-0.0202484130859375
1751013821057885700,0.9658857421875,-0.995819091796875,-0.186004638671875,-0.019744873046875
1751013821067828700,0.975828857421875,-0.9800262451171875,-0.191192626953125,-0.022186279296875
1751013821077772500,0.9857724609375,-0.9885711669921875,-0.1877288818359375,-0.0145263671875
1751013821087715600,0.995715576171875,-1.0084991455078125,-0.1805419921875,-0.0103302001953125
1751013821097659600,1.00565966796875,-0.99359130859375,-0.1852264404296875,-0.024627685546875
1751013821107602700,1.015602783203125,-0.98492431640625,-0.1929779052734375,-0.0320892333984375
1751013821117545700,1.025545654296875,-0.9987030029296875,-0.18896484375,-0.023834228515625
1751013821127489500,1.035489501953125,-1.00762939453125,-0.182373046875,-0.0152740478515625
1751013821137432600,1.0454326171875,-1.005035400390625,-0.1829071044921875,-0.007781982421875
1751013821147376600,1.055376708984375,-1.0019378662109375,-0.18646240234375,-0.0069580078125
1751013821157319400,1.0653193359375,-1.0160980224609375,-0.1793212890625,0.00079345703125
1751013821167263500,1.075263427734375,-1.0139923095703125,-0.1668243408203125,0.0087127685546875
1751013821177206500,1.08520654296875,-1.00225830078125,-0.1646270751953125,0.0109710693359375
1751013821187150600,1.095150634765625,-1.0084075927734375,-0.16949462890625,0.0042877197265625
1751013821197093600,1.10509375,-1.0173797607421875,-0.170440673828125,-0.0015869140625
1751013821207036700,1.11503662109375,-1.013214111328125,-0.1715850830078125,-0.0096893310546875
1751013821216980700,1.124980712890625,-1.0095672607421875,-0.1743011474609375,-0.0077362060546875
1751013821226923800,1.134923828125,-1.0055084228515625,-0.180023193359375,-0.0055694580078125
1751013821236867600,1.14486767578125,-1.0085296630859375,-0.1828765869140625,-0.0041656494140625
1751013821246810600,1.154810546875,-1.0142822265625,-0.1782684326171875,0.0041656494140625
1751013821256754700,1.164754638671875,-1.0166778564453125,-0.165924072265625,0.0170745849609375
1751013821266697700,1.17469775390625,-1.0155487060546875,-0.163177490234375,0.024383544921875
1751013821276640800,1.184640869140625,-1.0191650390625,-0.1707916259765625,0.017669677734375
1751013821286584600,1.19458447265625,-1.0144805908203125,-0.1822967529296875,-0.0226287841796875
1751013821296527600,1.204527587890625,-0.9873046875,-0.2043609619140625,-0.0565032958984375
1751013821306471700,1.2144716796875,-0.9770660400390625,-0.217041015625,-0.0684051513671875
1751013821316414700,1.224414794921875,-0.9790802001953125,-0.2146148681640625,-0.0623626708984375
1751013821326358500,1.234358642578125,-0.9898681640625,-0.1985015869140625,-0.03875732421875
1751013821336301600,1.244301513671875,-0.98114013671875,-0.1822509765625,0.004425048828125
1751013821346245600,1.25424560546875,-0.9530029296875,-0.1798095703125,0.0413818359375
1751013821356188400,1.2641884765625,-0.9337005615234375,-0.1831817626953125,0.0613250732421875
1751013821366131500,1.27413134765625,-0.9333038330078125,-0.1839599609375,0.0590972900390625
1751013821376075500,1.284075439453125,-0.9474334716796875,-0.1838836669921875,0.0419158935546875
1751013821386018600,1.2940185546875,-0.9646759033203125,-0.18304443359375,0.0247802734375
1751013821395962600,1.303962646484375,-0.9767608642578125,-0.1787109375,0.011749267578125
1751013821405905700,1.31390576171875,-0.988433837890625,-0.17529296875,0.001678466796875
1751013821415849700,1.323849609375,-0.995819091796875,-0.1726226806640625,-0.0030975341796875
1751013821425792800,1.333792724609375,-1.0017242431640625,-0.1676177978515625,-0.0115966796875
1751013821435736600,1.343736572265625,-1.0092926025390625,-0.16259765625,-0.01837158203125
1751013821445679600,1.3536796875,-1.008819580078125,-0.1552734375,-0.01824951171875
1751013821455622700,1.36362255859375,-1.0081939697265625,-0.1490020751953125,-0.0155792236328125
1751013821465566700,1.373566650390625,-1.0074005126953125,-0.1467437744140625,-0.0117034912109375
1751013821475509800,1.383509765625,-1.010467529296875,-0.1463775634765625,-0.006683349609375
1751013821485453600,1.39345361328125,-1.0098724365234375,-0.1487579345703125,-0.00579833984375
1751013821495396600,1.403396728515625,-1.0133056640625,-0.15313720703125,-0.006805419921875
1751013821505340700,1.413340576171875,-1.01812744140625,-0.1569366455078125,-0.00616455078125
1751013821515283700,1.42328369140625,-1.012115478515625,-0.1594696044921875,-0.0031280517578125
1751013821525227500,1.4332275390625,-1.007568359375,-0.161041259765625,0.0003204345703125
1751013821535170600,1.443170654296875,-1.010101318359375,-0.158966064453125,0.0003204345703125
1751013821545113600,1.453113525390625,-1.015289306640625,-0.1556396484375,-0.000457763671875
1751013821555057400,1.463057373046875,-1.018157958984375,-0.149322509765625,0.0008087158203125
1751013821565000400,1.47300048828125,-1.0192413330078125,-0.1466217041015625,-0.0005340576171875
1751013821574944500,1.482944580078125,-1.01666259765625,-0.1470794677734375,-0.0027313232421875
1751013821584887600,1.492887451171875,-1.0181121826171875,-0.147796630859375,-0.003387451171875
1751013821594831600,1.50283154296875,-1.0166778564453125,-0.1506500244140625,-0.004425048828125
1751013821604774700,1.512774658203125,-1.01153564453125,-0.154022216796875,-0.0016632080078125
1751013821614717700,1.5227177734375,-1.006500244140625,-0.1610107421875,-0.002349853515625
1751013821624661800,1.532661865234375,-1.00048828125,-0.16717529296875,-0.0046234130859375
1751013821634604800,1.542604736328125,-0.9940338134765625,-0.173126220703125,-0.0048980712890625
1751013821644548600,1.552548583984375,-0.9902801513671875,-0.17578125,-0.0030670166015625
1751013821654491600,1.56249169921875,-0.9910888671875,-0.175872802734375,0.0008087158203125
1751013821664435700,1.572435791015625,-0.99420166015625,-0.177001953125,0.0046234130859375
1751013821674378800,1.582378662109375,-0.9904022216796875,-0.17724609375,0.00689697265625
1751013821684322600,1.592322509765625,-0.98846435546875,-0.1771087646484375,-0.0009307861328125
1751013821694265600,1.602265625,-0.9896240234375,-0.178009033203125,-0.010894775390625
1751013821704208600,1.612208740234375,-0.9902191162109375,-0.181610107421875,-0.01873779296875
1751013821714152700,1.622152587890625,-0.9891204833984375,-0.18487548828125,-0.023651123046875
1751013821724095700,1.632095703125,-0.98944091796875,-0.1868438720703125,-0.022491455078125
1751013821734039800,1.642039794921875,-0.9927978515625,-0.1858978271484375,-0.0172271728515625
1751013821743982800,1.65198291015625,-0.996978759765625,-0.181365966796875,-0.006591796875
1751013821753926700,1.6619267578125,-1.001373291015625,-0.1788787841796875,0.0079803466796875
1751013821763869700,1.67186962890625,-1.005126953125,-0.1767578125,0.0147552490234375
1751013821773813800,1.681813720703125,-1.00921630859375,-0.172943115234375,0.0173797607421875
1751013821783756800,1.6917568359375,-1.0097808837890625,-0.167022705078125,0.011474609375
1751013821793699800,1.701699951171875,-1.0151519775390625,-0.1583099365234375,0.0050811767578125
1751013821803643600,1.7116435546875,-1.0204925537109375,-0.150970458984375,0.001220703125
1751013821813586700,1.721586669921875,-1.0232086181640625,-0.1494598388671875,-0.00030517578125
1751013821823530800,1.73153076171875,-1.02337646484375,-0.1506500244140625,-0.001708984375
1751013821833473800,1.741473876953125,-1.0233001708984375,-0.1519622802734375,-0.0018157958984375
1751013821843417600,1.75141748046875,-1.0225830078125,-0.15106201171875,-0.0006256103515625
1751013821853360600,1.761360595703125,-1.0183563232421875,-0.1544952392578125,-0.000030517578125
1751013821863305000,1.771304931640625,-1.0117645263671875,-0.1611175537109375,0.0008392333984375
1751013821873247700,1.781247802734375,-1.0049591064453125,-0.16839599609375,0.0023345947265625
1751013821883190500,1.7911904296875,-0.9987640380859375,-0.174530029296875,0.0045318603515625
1751013821893134800,1.801134765625,-0.9945526123046875,-0.175689697265625,0.00201416015625
1751013821903078000,1.811077880859375,-0.9964599609375,-0.1776275634765625,-0.000396728515625
1751013821913021700,1.821021728515625,-0.9962158203125,-0.1781768798828125,-0.0032196044921875
1751013821922964700,1.83096484375,-0.9989471435546875,-0.1797943115234375,-0.0055389404296875
1751013821932908800,1.84090869140625,-0.9974365234375,-0.1817626953125,-0.0056610107421875
1751013821942851800,1.850851806640625,-0.9937286376953125,-0.1791229248046875,-0.003875732421875
1751013821952795600,1.860795654296875,-0.9941864013671875,-0.173614501953125,-0.00103759765625
1751013821962738700,1.87073876953125,-0.99456787109375,-0.169403076171875,0.0041046142578125
1751013821972681700,1.880681640625,-0.9922332763671875,-0.1658782958984375,0.0067138671875
1751013821982625800,1.890625732421875,-0.98883056640625,-0.163543701171875,0.0063934326171875
1751013821992568800,1.90056884765625,-0.9897308349609375,-0.163726806640625,0.0046539306640625
1751013822002512600,1.9105126953125,-0.989105224609375,-0.1645355224609375,0.0028839111328125
1751013822012455700,1.92045556640625,-0.9925689697265625,-0.1651153564453125,0.0035400390625
1751013822022399700,1.930399658203125,-0.9972686767578125,-0.16973876953125,0.0025787353515625
1751013822032342800,1.9403427734375,-0.99951171875,-0.17572021484375,0.0003662109375
1751013822042285600,1.95028564453125,-0.99456787109375,-0.178131103515625,0.0039825439453125
1751013822052229600,1.960229736328125,-0.990478515625,-0.1738128662109375,0.0103302001953125
1751013822062172700,1.970172607421875,-0.9924468994140625,-0.1668548583984375,0.0145416259765625
1751013822072116700,1.98011669921875,-0.9964752197265625,-0.15802001953125,0.0148468017578125
1751013822082059500,1.9900595703125,-1.001373291015625,-0.1520538330078125,0.0117950439453125
1751013822092003800,2.00000390625,-1.00665283203125,-0.14495849609375,0.0104522705078125
1751013822101947000,2.00994677734375,-1.0074462890625,-0.14129638671875,0.008941650390625
1751013822111890700,2.019890625,-1.0111083984375,-0.141632080078125,0.003753662109375
1751013822121833700,2.029833740234375,-1.0145721435546875,-0.14361572265625,0.001190185546875
1751013822131776800,2.03977685546875,-1.0165863037109375,-0.1454315185546875,-0.0017547607421875
1751013822141720800,2.049720947265625,-1.0152740478515625,-0.1472625732421875,-0.002044677734375
1751013822151663900,2.059663818359375,-1.013092041015625,-0.148529052734375,0.0008392333984375
1751013822161607700,2.069607666015625,-1.01385498046875,-0.1492919921875,0.0030670166015625
1751013822171550700,2.07955078125,-1.0121002197265625,-0.148681640625,0.004669189453125
1751013822181494800,2.089494873046875,-1.011962890625,-0.14984130859375,0.0015869140625
1751013822191437800,2.099437744140625,-1.011077880859375,-0.1510772705078125,-0.0012359619140625
1751013822201380600,2.109380615234375,-1.01251220703125,-0.15106201171875,-0.0061187744140625
1751013822211324700,2.11932470703125,-1.01654052734375,-0.15045166015625,-0.0052490234375
1751013822221267700,2.129267822265625,-1.0151824951171875,-0.14959716796875,-0.000518798828125
1751013822231211800,2.139211669921875,-1.0119476318359375,-0.149871826171875,-0.0055084228515625
1751013822241154600,2.149154541015625,-1.016265869140625,-0.1484527587890625,-0.0128936767578125
1751013822251098600,2.1590986328125,-1.02099609375,-0.14727783203125,-0.019683837890625
1751013822261041700,2.169041748046875,-1.0123748779296875,-0.1460113525390625,-0.0217742919921875
1751013822270985700,2.17898583984375,-1.005767822265625,-0.1436004638671875,-0.0167694091796875
1751013822280928800,2.1889287109375,-1.001495361328125,-0.14276123046875,-0.0110015869140625
1751013822290871800,2.198871826171875,-0.9972991943359375,-0.1439971923828125,-0.0077667236328125
1751013822300816000,2.20881591796875,-0.995697021484375,-0.1455535888671875,-0.0063629150390625
1751013822310759000,2.218759033203125,-0.9923095703125,-0.1500396728515625,-0.008575439453125
1751013822320702700,2.22870263671875,-0.9916839599609375,-0.1508026123046875,-0.0045928955078125
1751013822330645800,2.238645751953125,-0.995025634765625,-0.1503753662109375,-0.0009918212890625
1751013822340589800,2.24858984375,-0.9943695068359375,-0.1485748291015625,-0.0045318603515625
1751013822350532900,2.258532958984375,-0.9916534423828125,-0.1444854736328125,-0.0068359375
1751013822360476000,2.268475830078125,-0.992584228515625,-0.1407470703125,-0.0077667236328125
1751013822370419700,2.278419677734375,-0.9955291748046875,-0.137420654296875,-0.0059356689453125
1751013822380362800,2.28836279296875,-0.999755859375,-0.13427734375,-0.005218505859375
1751013822390306800,2.298306884765625,-1.003631591796875,-0.1312255859375,-0.006134033203125
1751013822400249600,2.30824951171875,-1.0078277587890625,-0.1296844482421875,-0.00433349609375
1751013822410193700,2.318193603515625,-1.006011962890625,-0.1305389404296875,-0.005645751953125
1751013822420136700,2.32813671875,-1.0054931640625,-0.1293792724609375,-0.0029449462890625
1751013822430080800,2.338080810546875,-1.0058441162109375,-0.1280670166015625,-0.00189208984375
1751013822440023600,2.3480234375,-1.0032501220703125,-0.128875732421875,-0.0011749267578125
1751013822449966600,2.357966552734375,-1.007080078125,-0.12982177734375,-0.0007171630859375
1751013822459910700,2.36791064453125,-1.0140228271484375,-0.130126953125,-0.0032196044921875
1751013822469853700,2.377853759765625,-1.0158538818359375,-0.1326446533203125,-0.008697509765625
1751013822479797800,2.3877978515625,-1.0137939453125,-0.1331024169921875,-0.012237548828125
1751013822489740800,2.39774072265625,-1.0137176513671875,-0.1295623779296875,-0.0097808837890625
1751013822499684900,2.407684814453125,-1.0154571533203125,-0.1252899169921875,-0.0061798095703125
1751013822509628000,2.4176279296875,-1.0129547119140625,-0.1256256103515625,-0.00531005859375
1751013822519571700,2.42757177734375,-1.0075225830078125,-0.1290435791015625,-0.0068817138671875
1751013822529514800,2.4375146484375,-1.004608154296875,-0.1318206787109375,-0.00506591796875
1751013822539457800,2.447457763671875,-1.0025177001953125,-0.1353607177734375,-0.0059661865234375
1751013822549401900,2.45740185546875,-0.9971466064453125,-0.13641357421875,-0.0030059814453125
1751013822559345000,2.467344970703125,-0.991912841796875,-0.1369171142578125,0.00018310546875
1751013822569288700,2.477288818359375,-0.99346923828125,-0.1353759765625,-0.00054931640625
1751013822579231700,2.487231689453125,-0.99761962890625,-0.1342926025390625,-0.0025177001953125
1751013822589175800,2.49717578125,-0.9952392578125,-0.1357879638671875,-0.0048828125
1751013822599118600,2.50711865234375,-1.0004425048828125,-0.1349639892578125,-0.00592041015625
1751013822609061600,2.5170615234375,-1.0073394775390625,-0.1309661865234375,-0.0059051513671875
1751013822619005700,2.527005615234375,-1.002410888671875,-0.1336212158203125,-0.0080413818359375
1751013822628948700,2.53694873046875,-1.002349853515625,-0.1334991455078125,-0.006805419921875
1751013822638892500,2.546892578125,-1.0067138671875,-0.1286163330078125,-0.003082275390625
1751013822648835600,2.556835693359375,-1.00567626953125,-0.1288909912109375,-0.0000152587890625
1751013822658779600,2.566779541015625,-1.004913330078125,-0.1290130615234375,0.002471923828125
1751013822668722700,2.57672265625,-1.0062255859375,-0.1304168701171875,-0.000701904296875
1751013822678666800,2.586666748046875,-1.0050811767578125,-0.1334381103515625,-0.0055999755859375
1751013822688609800,2.59660986328125,-1.002655029296875,-0.1344757080078125,-0.007598876953125
1751013822698552800,2.606552734375,-0.9999542236328125,-0.1359710693359375,-0.0051422119140625
1751013822708497000,2.616496826171875,-0.9950714111328125,-0.140869140625,-0.0039825439453125
1751013822718443500,2.626443603515625,-0.9907073974609375,-0.1450653076171875,-0.00128173828125
1751013822728387600,2.6363876953125,-0.9901123046875,-0.147247314453125,0.0017242431640625
1751013822738330600,2.64633056640625,-0.99725341796875,-0.14459228515625,0.0046234130859375
1751013822748274700,2.656274658203125,-1.004547119140625,-0.1425018310546875,0.0021820068359375
1751013822758217500,2.666217529296875,-1.0045318603515625,-0.1446685791015625,-0.006317138671875
1751013822768160500,2.676160400390625,-1.0056915283203125,-0.14154052734375,-0.00616455078125
1751013822778104600,2.6861044921875,-1.0103759765625,-0.1361541748046875,-0.005126953125
1751013822788047600,2.696047607421875,-1.0120086669921875,-0.134429931640625,-0.009521484375
1751013822797991400,2.705991455078125,-1.0116424560546875,-0.1331024169921875,-0.0117950439453125
1751013822807934500,2.7159345703125,-1.0134735107421875,-0.1309814453125,-0.0085296630859375
1751013822817878500,2.72587841796875,-1.0148773193359375,-0.1291961669921875,-0.0084075927734375
1751013822827821600,2.735821533203125,-1.011962890625,-0.131561279296875,-0.0087432861328125
1751013822837765400,2.745765380859375,-1.00787353515625,-0.134552001953125,-0.0051727294921875
1751013822847708400,2.75570849609375,-1.008575439453125,-0.1358489990234375,-0.001495361328125
1751013822857651500,2.7656513671875,-1.00665283203125,-0.13787841796875,-0.000030517578125
1751013822867595500,2.775595458984375,-1.0024261474609375,-0.14202880859375,0.0004119873046875
1751013822877538600,2.78553857421875,-1.0040740966796875,-0.1435089111328125,-0.0004119873046875
1751013822887482400,2.795482421875,-1.006591796875,-0.1439666748046875,-0.0016326904296875
1751013822897425400,2.80542529296875,-1.0049591064453125,-0.1466827392578125,-0.0033416748046875
1751013822907369500,2.815369384765625,-1.0053558349609375,-0.14556884765625,-0.0093841552734375
1751013822917312300,2.825312255859375,-1.009185791015625,-0.1385955810546875,-0.00848388671875
1751013822927255300,2.83525537109375,-1.0091094970703125,-0.1328887939453125,-0.0075836181640625
1751013822937199600,2.84519970703125,-1.009063720703125,-0.1312408447265625,-0.0087738037109375
1751013822947142700,2.855142578125,-1.007476806640625,-0.1295166015625,-0.0072174072265625
1751013822957086500,2.86508642578125,-1.003692626953125,-0.128814697265625,-0.0035858154296875
1751013822967029500,2.875029541015625,-1.0028533935546875,-0.131805419921875,0.0015716552734375
1751013822976973600,2.8849736328125,-0.999298095703125,-0.135589599609375,0.001190185546875
1751013822986916600,2.89491650390625,-0.99530029296875,-0.139678955078125,0.0008544921875
1751013822996860400,2.9048603515625,-0.9962158203125,-0.1418304443359375,0.001556396484375
1751013823006803500,2.914803466796875,-0.998992919921875,-0.14239501953125,-0.000518798828125
1751013823016746500,2.92474658203125,-0.9978790283203125,-0.142974853515625,-0.0029449462890625
1751013823026690600,2.934690673828125,-0.9984130859375,-0.1409454345703125,-0.002471923828125
1751013823036633600,2.944633544921875,-1.0017242431640625,-0.138519287109375,-0.0012664794921875
1751013823046577400,2.954577392578125,-1.0025177001953125,-0.1385955810546875,-0.0038909912109375
1751013823056520400,2.9645205078125,-1.0043182373046875,-0.142578125,-0.0052947998046875
1751013823066464500,2.974464599609375,-1.003662109375,-0.148223876953125,-0.0030364990234375
1751013823076407600,2.984407470703125,-1.00262451171875,-0.14862060546875,0.001220703125
1751013823086350300,2.994350341796875,-1.0045318603515625,-0.1498565673828125,0.0006866455078125
1751013823096294400,3.00429443359375,-1.0042877197265625,-0.151702880859375,-0.0001678466796875
1751013823106237400,3.014237548828125,-1.0017547607421875,-0.151397705078125,0.001983642578125
1751013823116181200,3.02418115234375,-1.0034942626953125,-0.1489410400390625,0.0009613037109375
1751013823126124300,3.034124267578125,-1.0067138671875,-0.1425323486328125,0.0000762939453125
1751013823136068600,3.044068603515625,-1.0072174072265625,-0.13909912109375,-0.0005645751953125
1751013823146011600,3.05401171875,-1.0074005126953125,-0.1389007568359375,0.0018310546875
1751013823155955500,3.06395556640625,-1.009429931640625,-0.1367034912109375,0.00494384765625
1751013823165898500,3.0738984375,-1.01043701171875,-0.136627197265625,0.0034027099609375
1751013823175841500,3.083841552734375,-1.0093994140625,-0.1370391845703125,0.00384521484375
1751013823185785600,3.09378564453125,-1.00897216796875,-0.1392669677734375,0.0020599365234375
1751013823195728600,3.103728759765625,-1.00958251953125,-0.1410980224609375,-0.002349853515625
1751013823205672400,3.11367236328125,-1.00634765625,-0.1424407958984375,-0.0020294189453125
1751013823215615500,3.123615478515625,-1.0068206787109375,-0.1426544189453125,-0.0008087158203125
1751013823225559600,3.1335595703125,-1.008880615234375,-0.14300537109375,-0.004180908203125
1751013823235502600,3.143502685546875,-1.0020599365234375,-0.1417694091796875,-0.0076446533203125
1751013823245445400,3.1534453125,-1.0004425048828125,-0.139068603515625,-0.0058135986328125
1751013823255389400,3.163389404296875,-1.002197265625,-0.1375579833984375,-0.0054931640625
1751013823265332500,3.17333251953125,-0.9998626708984375,-0.1397247314453125,-0.010162353515625
1751013823275276500,3.183276611328125,-0.998260498046875,-0.1442718505859375,-0.009307861328125
1751013823285219300,3.19321923828125,-0.9988555908203125,-0.1461944580078125,-0.0069122314453125
1751013823295163400,3.203163330078125,-1.0017852783203125,-0.14837646484375,-0.004669189453125
1751013823305106400,3.2131064453125,-1.0053863525390625,-0.1486053466796875,-0.003753662109375
1751013823315050500,3.223050537109375,-1.00579833984375,-0.151031494140625,-0.0025482177734375
1751013823324993300,3.2329931640625,-1.00323486328125,-0.14971923828125,-0.0028839111328125
1751013823334936300,3.242936279296875,-1.0083160400390625,-0.1442108154296875,0.0006561279296875
1751013823344880600,3.252880615234375,-1.0136260986328125,-0.1387786865234375,0.0007781982421875
1751013823354823700,3.26282373046875,-1.013946533203125,-0.1389617919921875,-0.0020599365234375
1751013823364767500,3.272767578125,-1.0086669921875,-0.141510009765625,-0.00775146484375
1751013823374710500,3.28271044921875,-1.004608154296875,-0.143310546875,-0.006683349609375
1751013823384654600,3.292654541015625,-1.0013580322265625,-0.1446990966796875,-0.004150390625
1751013823394597600,3.30259765625,-0.998291015625,-0.1447296142578125,-0.00115966796875
1751013823404540400,3.31254052734375,-0.9925079345703125,-0.1481781005859375,0.0066986083984375
1751013823414484500,3.322484375,-0.994537353515625,-0.1515960693359375,0.013641357421875
1751013823424427500,3.332427490234375,-0.9924163818359375,-0.152008056640625,0.01702880859375
1751013823434371600,3.34237158203125,-0.9958038330078125,-0.15460205078125,0.011322021484375
1751013823444314400,3.352314453125,-1.0060577392578125,-0.155426025390625,0.0041351318359375
1751013823454258400,3.362258544921875,-1.0135650634765625,-0.152252197265625,0.00103759765625
1751013823464201500,3.372201416015625,-1.0117340087890625,-0.152557373046875,-0.0000152587890625
1751013823474145500,3.3821455078125,-1.0087432861328125,-0.1527252197265625,-0.00189208984375
1751013823484088300,3.39208837890625,-1.0103607177734375,-0.149200439453125,-0.00030517578125
1751013823494031400,3.40203125,-1.005889892578125,-0.1460723876953125,0.0035858154296875
1751013823503975400,3.411975341796875,-0.9990386962890625,-0.148468017578125,0.005859375
1751013823513918500,3.42191845703125,-0.9982147216796875,-0.150421142578125,0.0091400146484375
1751013823523862500,3.431862548828125,-0.9999847412109375,-0.1525421142578125,0.0081939697265625
1751013823533805600,3.4418056640625,-0.999298095703125,-0.157012939453125,0.007293701171875
1751013823543749600,3.45174951171875,-0.998931884765625,-0.1599273681640625,0.00714111328125
1751013823553692700,3.461692626953125,-1.0033721923828125,-0.1585693359375,0.0069732666015625
1751013823563635700,3.4716357421875,-1.00439453125,-0.1560821533203125,0.0057830810546875
1751013823573579500,3.48157958984375,-1.0049591064453125,-0.1563873291015625,0.0045166015625
1751013823583522600,3.4915224609375,-1.0109100341796875,-0.155059814453125,0.0005035400390625
1751013823593466600,3.501466552734375,-1.0112152099609375,-0.1506805419921875,-0.00213623046875
1751013823603409400,3.511409423828125,-1.0088043212890625,-0.15130615234375,-0.003997802734375
1751013823613353500,3.521353515625,-1.00439453125,-0.15374755859375,-0.00396728515625
1751013823623296500,3.531296630859375,-1.002899169921875,-0.1548004150390625,-0.000274658203125
1751013823633240600,3.541240478515625,-1.00030517578125,-0.1585540771484375,0.005462646484375
1751013823643183400,3.551183349609375,-0.99847412109375,-0.163116455078125,0.0112762451171875
1751013823653126400,3.56112646484375,-1.000335693359375,-0.1653594970703125,0.0132293701171875
1751013823663070500,3.571070556640625,-0.99761962890625,-0.162567138671875,0.0130615234375
1751013823673013500,3.581013427734375,-0.9971923828125,-0.160308837890625,0.013519287109375
1751013823682957300,3.590957275390625,-1.002105712890625,-0.157379150390625,0.0119476318359375
1751013823692900400,3.600900390625,-1.005767822265625,-0.15301513671875,0.007965087890625
1751013823702844400,3.610844482421875,-1.006988525390625,-0.1504058837890625,0.0044403076171875
1751013823712787500,3.620787353515625,-1.00909423828125,-0.1512451171875,-0.002838134765625
1751013823722728700,3.630728759765625,-1.009246826171875,-0.15167236328125,-0.00250244140625
1751013823732671700,3.640671630859375,-1.0118408203125,-0.15081787109375,-0.000579833984375
1751013823742614800,3.65061474609375,-1.010589599609375,-0.1531219482421875,0.0003814697265625
1751013823752558600,3.66055859375,-1.010498046875,-0.153106689453125,0.0024871826171875
1751013823762501600,3.670501708984375,-1.01043701171875,-0.15087890625,0.0016937255859375
1751013823772445700,3.68044580078125,-1.0093536376953125,-0.14910888671875,-0.0018310546875
1751013823782388700,3.690388671875,-1.004302978515625,-0.1483001708984375,-0.003631591796875
1751013823792332500,3.70033251953125,-0.99951171875,-0.1487884521484375,-0.001708984375
1751013823802275600,3.710275634765625,-0.999053955078125,-0.146942138671875,-0.000274658203125
1751013823812218600,3.720218505859375,-1.0018310546875,-0.1461639404296875,-0.0010833740234375
1751013823822162700,3.73016259765625,-0.998443603515625,-0.1500701904296875,-0.0034942626953125
1751013823832105700,3.740105712890625,-0.9933013916015625,-0.1537628173828125,-0.0021209716796875
1751013823842049500,3.750049560546875,-0.99395751953125,-0.1510772705078125,0.00091552734375
1751013823851992600,3.75999267578125,-0.9956207275390625,-0.1486968994140625,0.00323486328125
1751013823861936600,3.7699365234375,-0.994781494140625,-0.149383544921875,0.002227783203125
1751013823871879700,3.779879638671875,-0.9945220947265625,-0.1493988037109375,0.004119873046875
1751013823881823500,3.789823486328125,-0.9967803955078125,-0.147430419921875,0.0073699951171875
1751013823891766500,3.7997666015625,-0.9988250732421875,-0.144866943359375,0.009185791015625
1751013823901709600,3.80970947265625,-0.9987335205078125,-0.14306640625,0.007843017578125
1751013823911653600,3.819653564453125,-1.00006103515625,-0.1441802978515625,0.0076141357421875
1751013823921596700,3.8295966796875,-0.9996337890625,-0.1448516845703125,0.00567626953125
1751013823931540700,3.839540771484375,-0.9989166259765625,-0.146820068359375,0.0063629150390625
1751013823941483800,3.84948388671875,-0.998291015625,-0.1491546630859375,0.0080413818359375
1751013823951427600,3.859427490234375,-0.9944915771484375,-0.1505889892578125,0.008148193359375
1751013823961370600,3.86937060546875,-0.98858642578125,-0.1514739990234375,0.009124755859375
1751013823971314700,3.879314697265625,-0.9850616455078125,-0.153076171875,0.01019287109375
1751013823981257700,3.8892578125,-0.987701416015625,-0.1558380126953125,0.0070343017578125
1751013823991200800,3.89920068359375,-0.98876953125,-0.1587066650390625,0.001861572265625
1751013824001144600,3.90914453125,-0.98956298828125,-0.1616973876953125,0.00244140625
1751013824011087600,3.919087646484375,-0.99603271484375,-0.1612701416015625,0.0068511962890625
1751013824021031700,3.92903173828125,-1.000091552734375,-0.1611480712890625,0.005279541015625
1751013824030974700,3.938974609375,-1.001617431640625,-0.1597137451171875,-0.0020904541015625
1751013824040918500,3.94891845703125,-1.00146484375,-0.1590423583984375,-0.003875732421875
1751013824050861600,3.958861572265625,-1.0047760009765625,-0.1580352783203125,-0.0053253173828125
1751013824060805600,3.9688056640625,-1.006591796875,-0.1567840576171875,-0.0070648193359375
1751013824070748700,3.978748779296875,-1.0038604736328125,-0.1600341796875,-0.0085906982421875
1751013824080691500,3.98869140625,-1.0025787353515625,-0.1623077392578125,-0.0076446533203125
1751013824090635500,3.998635498046875,-1.0034332275390625,-0.1625213623046875,-0.0016326904296875
1751013824100578600,4.00857861328125,-1.0026397705078125,-0.164154052734375,0.0008697509765625
1751013824110522600,4.018522705078125,-1.004608154296875,-0.1633453369140625,-0.0001068115234375
1751013824120465700,4.028465576171875,-1.0106964111328125,-0.159820556640625,0.0013427734375
1751013824130409700,4.03840966796875,-1.014739990234375,-0.1576690673828125,-0.0023193359375
1751013824140352800,4.048352783203125,-1.015655517578125,-0.1582183837890625,-0.0098419189453125
1751013824150295800,4.0582958984375,-1.0167694091796875,-0.157012939453125,-0.01007080078125
1751013824160239600,4.068239501953125,-1.019989013671875,-0.15625,-0.009979248046875
1751013824170182700,4.0781826171875,-1.01934814453125,-0.1576385498046875,-0.013427734375
1751013824180126700,4.088126708984375,-1.012969970703125,-0.16070556640625,-0.013885498046875
1751013824190069800,4.09806982421875,-1.0094451904296875,-0.1610260009765625,-0.0134735107421875
1751013824200013600,4.108013671875,-1.0071258544921875,-0.16162109375,-0.0117340087890625
1751013824209956600,4.11795654296875,-1.0030975341796875,-0.16424560546875,-0.0079345703125
1751013824219900700,4.127900634765625,-0.9974822998046875,-0.1669158935546875,-0.00885009765625
1751013824229843700,4.13784375,-0.9947662353515625,-0.1663818359375,-0.0088958740234375
1751013824239786800,4.147786865234375,-0.9980316162109375,-0.1632080078125,-0.0067291259765625
1751013824249730600,4.15773046875,-0.9985809326171875,-0.164520263671875,-0.0061492919921875
1751013824259673600,4.167673583984375,-1.000457763671875,-0.162872314453125,-0.004791259765625
1751013824269617700,4.17761767578125,-1.002685546875,-0.157379150390625,-0.0084686279296875
1751013824279560400,4.187560546875,-1.0058135986328125,-0.1529388427734375,-0.00872802734375
1751013824289504800,4.1975048828125,-1.0060882568359375,-0.1544036865234375,-0.0089569091796875
1751013824299447800,4.20744775390625,-1.0044403076171875,-0.153472900390625,-0.007171630859375
1751013824309391600,4.2173916015625,-1.002166748046875,-0.1528778076171875,-0.0055084228515625
1751013824319334700,4.227334716796875,-0.9973602294921875,-0.15618896484375,-0.004364013671875
1751013824329277700,4.237277587890625,-0.99462890625,-0.1613311767578125,-0.0020599365234375
1751013824339221800,4.2472216796875,-0.99566650390625,-0.1648101806640625,-0.001708984375
1751013824349164800,4.257164794921875,-0.99127197265625,-0.16583251953125,-0.00341796875
1751013824359108600,4.267108642578125,-0.9873046875,-0.16400146484375,-0.0037994384765625
1751013824369051600,4.2770517578125,-0.99053955078125,-0.16278076171875,-0.0069122314453125
1751013824378995700,4.28699560546875,-0.99298095703125,-0.162078857421875,-0.0081787109375
1751013824388938800,4.296938720703125,-0.99322509765625,-0.160552978515625,-0.0115509033203125
1751013824398882600,4.306882568359375,-0.9959716796875,-0.157684326171875,-0.0153350830078125
1751013824408825600,4.31682568359375,-0.998077392578125,-0.1546173095703125,-0.015380859375
1751013824418768600,4.3267685546875,-0.998626708984375,-0.1550750732421875,-0.0098419189453125
1751013824428712700,4.336712646484375,-0.99676513671875,-0.1584625244140625,-0.00439453125
1751013824438655500,4.346655517578125,-0.9983367919921875,-0.16131591796875,-0.0023345947265625
1751013824448599600,4.356599609375,-0.99853515625,-0.161956787109375,-0.0006256103515625
1751013824458542600,4.36654248046875,-0.9953155517578125,-0.1651611328125,-0.000213623046875
1751013824468486700,4.376486572265625,-0.9919281005859375,-0.1672821044921875,0.00341796875
1751013824478429400,4.386429443359375,-0.990234375,-0.1673126220703125,0.0052947998046875
1751013824488373800,4.396373779296875,-0.988800048828125,-0.164337158203125,0.00927734375
1751013824498316800,4.40631689453125,-0.9881439208984375,-0.1629180908203125,0.0101318359375
1751013824508259800,4.416259765625,-0.9935760498046875,-0.16119384765625,0.0072784423828125
1751013824518203600,4.42620361328125,-0.9997406005859375,-0.159423828125,0.003692626953125
1751013824528146700,4.436146728515625,-1.009368896484375,-0.1584014892578125,-0.00396728515625
1751013824538090800,4.4460908203125,-1.018646240234375,-0.15716552734375,-0.010650634765625
1751013824548033800,4.45603369140625,-1.0228118896484375,-0.1575164794921875,-0.0192108154296875
1751013824557977600,4.4659775390625,-1.0221099853515625,-0.1564178466796875,-0.0254974365234375
1751013824567920600,4.475920654296875,-1.0193634033203125,-0.156524658203125,-0.02703857421875
1751013824577864700,4.48586474609375,-1.0169830322265625,-0.1557464599609375,-0.023651123046875
1751013824587807700,4.495807861328125,-1.0128936767578125,-0.1586761474609375,-0.0241851806640625
1751013824597750800,4.505750732421875,-1.009735107421875,-0.1622772216796875,-0.024017333984375
1751013824607694600,4.515694580078125,-1.0071258544921875,-0.162353515625,-0.021148681640625
1751013824617637600,4.5256376953125,-1.0034637451171875,-0.1642608642578125,-0.0226593017578125
1751013824627581700,4.535581787109375,-0.999176025390625,-0.16693115234375,-0.02490234375
1751013824637524500,4.5455244140625,-0.9967498779296875,-0.16839599609375,-0.0258026123046875
1751013824647468500,4.555468505859375,-0.9954833984375,-0.1687469482421875,-0.0266876220703125
1751013824657411600,4.56541162109375,-0.992462158203125,-0.1720428466796875,-0.026580810546875
1751013824667355600,4.575355712890625,-0.98883056640625,-0.1728363037109375,-0.0256805419921875
1751013824677298400,4.58529833984375,-0.9906158447265625,-0.1722259521484375,-0.0217132568359375
1751013824687241500,4.595241455078125,-0.9911346435546875,-0.17352294921875,-0.015533447265625
1751013824697185800,4.605185791015625,-0.9911346435546875,-0.17340087890625,-0.013458251953125
1751013824707128800,4.61512890625,-0.9937286376953125,-0.171142578125,-0.01019287109375
1751013824717073200,4.6250732421875,-0.9945526123046875,-0.166259765625,-0.0078887939453125
1751013824727016200,4.63501611328125,-0.9973602294921875,-0.162933349609375,-0.0029296875
1751013824736960300,4.644960205078125,-0.999969482421875,-0.1614227294921875,-0.0011138916015625
1751013824746903300,4.6549033203125,-1.0037384033203125,-0.1606292724609375,-0.00408935546875
1751013824756847000,4.66484716796875,-1.0091400146484375,-0.161041259765625,-0.0104827880859375
1751013824766790100,4.6747900390625,-1.0118560791015625,-0.1603851318359375,-0.012847900390625
1751013824776733200,4.684733154296875,-1.0138702392578125,-0.15704345703125,-0.0144500732421875
1751013824786677200,4.69467724609375,-1.0163116455078125,-0.15350341796875,-0.0184326171875
1751013824796620000,4.7046201171875,-1.0192108154296875,-0.1503753662109375,-0.0209808349609375
1751013824806564000,4.714564208984375,-1.0201263427734375,-0.1483917236328125,-0.020904541015625
1751013824816507100,4.724507080078125,-1.0187835693359375,-0.1471099853515625,-0.019012451171875
1751013824826451000,4.734450927734375,-1.0135650634765625,-0.1489105224609375,-0.0193328857421875
1751013824836394000,4.74439404296875,-1.007965087890625,-0.149505615234375,-0.018951416015625
1751013824846338000,4.754338134765625,-0.99749755859375,-0.151702880859375,-0.0150146484375
1751013824856281000,4.764281005859375,-0.983367919921875,-0.158843994140625,-0.0055694580078125
1751013824866224000,4.77422412109375,-0.97332763671875,-0.16937255859375,0.0039215087890625
1751013824876168000,4.78416796875,-0.9668731689453125,-0.1791534423828125,0.010772705078125
1751013824886111000,4.794111083984375,-0.9679718017578125,-0.1845855712890625,0.013092041015625
1751013824896055300,4.80405517578125,-0.9698333740234375,-0.184539794921875,0.0098724365234375
1751013824905998300,4.813998291015625,-0.9709625244140625,-0.1827850341796875,0.0034332275390625
1751013824915942100,4.823942138671875,-0.97589111328125,-0.1801300048828125,-0.0039215087890625
1751013824925885200,4.83388525390625,-0.989654541015625,-0.1729278564453125,-0.0125274658203125
1751013824935829200,4.843829345703125,-1.0033721923828125,-0.1610260009765625,-0.02642822265625
1751013824945772300,4.853772216796875,-1.010986328125,-0.150848388671875,-0.0414886474609375
1751013824955715000,4.863715087890625,-1.0187225341796875,-0.146209716796875,-0.052886962890625
1751013824965659100,4.8736591796875,-1.0219879150390625,-0.145538330078125,-0.0583953857421875
1751013824975602200,4.883602294921875,-1.0175933837890625,-0.148590087890625,-0.0538330078125
1751013824985546200,4.893546142578125,-1.007598876953125,-0.1556854248046875,-0.0455322265625
1751013824995489000,4.903489013671875,-0.9990997314453125,-0.1630096435546875,-0.037445068359375
1751013825005433000,4.91343310546875,-0.9909210205078125,-0.1678466796875,-0.027679443359375
1751013825015376100,4.923376220703125,-0.981414794921875,-0.1727752685546875,-0.0163116455078125
1751013825025320000,4.93331982421875,-0.9777374267578125,-0.1771392822265625,-0.006500244140625
1751013825035263000,4.943262939453125,-0.9793853759765625,-0.1781005859375,0.0002593994140625
1751013825045207000,4.95320703125,-0.9830474853515625,-0.1744384765625,-0.00006103515625
1751013825055150000,4.963150146484375,-0.9906768798828125,-0.1690521240234375,-0.00750732421875
1751013825065093000,4.973093017578125,-1.003631591796875,-0.162506103515625,-0.0140838623046875
1751013825075037000,4.983036865234375,-1.0157928466796875,-0.153594970703125,-0.0163726806640625
1751013825084980000,4.99297998046875,-1.0226593017578125,-0.147979736328125,-0.0191497802734375
1751013825094924300,5.00292431640625,-1.0245361328125,-0.1483917236328125,-0.0183868408203125
1751013825104867300,5.012867431640625,-1.0269775390625,-0.1499786376953125,-0.0165863037109375
1751013825114811100,5.02281103515625,-1.0231170654296875,-0.153472900390625,-0.0186920166015625
1751013825124754200,5.032754150390625,-1.014129638671875,-0.15582275390625,-0.0192718505859375
1751013825134698200,5.0426982421875,-1.0110321044921875,-0.155975341796875,-0.0170745849609375
1751013825144641300,5.052641357421875,-1.005218505859375,-0.1568756103515625,-0.017181396484375
1751013825154584000,5.062583984375,-1.0051727294921875,-0.1607666015625,-0.0177154541015625
1751013825164528000,5.072528076171875,-1.0139007568359375,-0.15789794921875,-0.01971435546875
1751013825174471200,5.08247119140625,-1.015472412109375,-0.1561279296875,-0.0276947021484375
1751013825184415000,5.0924150390625,-1.0126495361328125,-0.1591796875,-0.03656005859375
1751013825194358000,5.10235791015625,-1.0198822021484375,-0.1575164794921875,-0.0384063720703125
1751013825204302000,5.112302001953125,-1.02142333984375,-0.154937744140625,-0.0397796630859375
1751013825214245000,5.1222451171875,-1.012786865234375,-0.1539764404296875,-0.0432586669921875
1751013825224189000,5.13218896484375,-1.0092620849609375,-0.15631103515625,-0.042633056640625
1751013825234132000,5.142132080078125,-1.00750732421875,-0.15850830078125,-0.03546142578125
1751013825244076000,5.152075927734375,-1.0026702880859375,-0.159637451171875,-0.0322113037109375
1751013825254019000,5.16201904296875,-0.9994354248046875,-0.1585693359375,-0.0308990478515625
1751013825263962000,5.171962158203125,-0.9912872314453125,-0.1599578857421875,-0.03216552734375
1751013825273906200,5.18190625,-0.9835968017578125,-0.1659088134765625,-0.0339813232421875
1751013825283849000,5.191848876953125,-0.9814910888671875,-0.171722412109375,-0.0308685302734375
1751013825293793300,5.201793212890625,-0.9798583984375,-0.1754608154296875,-0.0251617431640625
1751013825303736300,5.211736328125,-0.9756011962890625,-0.178070068359375,-0.019805908203125
1751013825313680100,5.22168017578125,-0.9730224609375,-0.1795196533203125,-0.0153961181640625
1751013825323623200,5.231623046875,-0.9747161865234375,-0.1772003173828125,-0.0116119384765625
1751013825333567200,5.241567138671875,-0.9760284423828125,-0.176513671875,-0.009521484375
1751013825343510300,5.25151025390625,-0.98193359375,-0.1753997802734375,-0.010589599609375
1751013825353453000,5.261453125,-0.987396240234375,-0.1721954345703125,-0.0121917724609375
1751013825363397000,5.271397216796875,-0.9922027587890625,-0.1656494140625,-0.0147857666015625
1751013825373340200,5.281340087890625,-0.99920654296875,-0.160491943359375,-0.0175323486328125
1751013825383284000,5.291283935546875,-1.006622314453125,-0.1597137451171875,-0.0195465087890625
1751013825393227000,5.30122705078125,-1.01263427734375,-0.158203125,-0.0185089111328125
1751013825403171000,5.311171142578125,-1.006500244140625,-0.160369873046875,-0.023712158203125
1751013825413114000,5.321114013671875,-1.0041656494140625,-0.1663665771484375,-0.032623291015625
1751013825423058000,5.331057861328125,-1.00738525390625,-0.1730194091796875,-0.0368804931640625
1751013825433001000,5.3410009765625,-1.0079803466796875,-0.175872802734375,-0.031890869140625
1751013825442945000,5.350945068359375,-1.004058837890625,-0.176788330078125,-0.0228729248046875
1751013825452888000,5.36088818359375,-0.9974212646484375,-0.176666259765625,-0.0149078369140625
1751013825462831000,5.3708310546875,-1.00213623046875,-0.1690521240234375,-0.007720947265625
1751013825472775200,5.380775146484375,-1.005401611328125,-0.161956787109375,-0.0021514892578125
1751013825482718200,5.39071826171875,-1.0064239501953125,-0.1602325439453125,-0.00115966796875
1751013825492662300,5.400662353515625,-1.0086822509765625,-0.154571533203125,-0.00762939453125
1751013825502605300,5.410605224609375,-1.00933837890625,-0.150543212890625,-0.0142059326171875
1751013825512549000,5.420549072265625,-1.0105438232421875,-0.1540069580078125,-0.015472412109375
1751013825522492200,5.4304921875,-1.0060577392578125,-0.159088134765625,-0.01055908203125
1751013825532436200,5.440436279296875,-1.004425048828125,-0.1648406982421875,-0.0072479248046875
1751013825542379300,5.450379150390625,-1.00286865234375,-0.1669158935546875,-0.0009613037109375
1751013825552323000,5.460322998046875,-1.001739501953125,-0.1665802001953125,0.00433349609375
1751013825562266000,5.47026611328125,-1.000701904296875,-0.166168212890625,0.00726318359375
1751013825572209200,5.480209228515625,-0.9969329833984375,-0.1641845703125,0.0059661865234375
1751013825582153000,5.490153076171875,-0.9959259033203125,-0.1617279052734375,0.0047760009765625
1751013825592096000,5.500095947265625,-0.9980926513671875,-0.1592864990234375,0.0015869140625
1751013825602040000,5.5100400390625,-1.00140380859375,-0.1540985107421875,-0.003204345703125
1751013825611983000,5.519983154296875,-1.003692626953125,-0.1501312255859375,-0.0108489990234375
1751013825621927000,5.529927001953125,-1.004425048828125,-0.1513214111328125,-0.017425537109375
1751013825631870000,5.539869873046875,-1.00677490234375,-0.153533935546875,-0.021881103515625
1751013825641814300,5.549814208984375,-1.0079193115234375,-0.156005859375,-0.0239410400390625
1751013825651757000,5.559757080078125,-1.0051422119140625,-0.1617431640625,-0.0268096923828125
1751013825661701000,5.569701171875,-1.0040435791015625,-0.1671905517578125,-0.0264892578125
1751013825671644200,5.57964404296875,-1.003082275390625,-0.1705169677734375,-0.0234375
1751013825681587200,5.589587158203125,-0.999908447265625,-0.170166015625,-0.0192108154296875
1751013825691531300,5.59953125,-0.9959259033203125,-0.1716766357421875,-0.017669677734375
1751013825701474300,5.609474365234375,-0.9915008544921875,-0.174652099609375,-0.0146636962890625
1751013825711418000,5.619418212890625,-0.9949798583984375,-0.17156982421875,-0.0146026611328125
1751013825721360400,5.6293603515625,-1.0039825439453125,-0.1692047119140625,-0.015655517578125
1751013825731304400,5.639304443359375,-1.000518798828125,-0.1666412353515625,-0.0161590576171875
1751013825741247500,5.64924755859375,-0.9962310791015625,-0.1663055419921875,-0.0123443603515625
1751013825751191300,5.65919140625,-0.9996795654296875,-0.1661834716796875,-0.0109405517578125
1751013825761134300,5.66913427734375,-1.005859375,-0.1668701171875,-0.014068603515625
1751013825771078700,5.67907861328125,-1.012725830078125,-0.1660919189453125,-0.0177764892578125
1751013825781021700,5.689021728515625,-1.0168609619140625,-0.1677703857421875,-0.016998291015625
1751013825790964500,5.698964599609375,-1.015899658203125,-0.1692962646484375,-0.0130157470703125
1751013825800908500,5.708908447265625,-1.00738525390625,-0.17071533203125,-0.01153564453125
1751013825810851600,5.7188515625,-1.002685546875,-0.1716461181640625,-0.0106658935546875
1751013825820795600,5.728795654296875,-1.004150390625,-0.17376708984375,-0.008819580078125
1751013825830738400,5.738738525390625,-1.0030364990234375,-0.173797607421875,-0.0091552734375
1751013825840682500,5.7486826171875,-1.0036468505859375,-0.1719970703125,-0.0138702392578125
1751013825850625500,5.75862548828125,-1.008148193359375,-0.1727752685546875,-0.0182037353515625
1751013825860569600,5.768569580078125,-1.0068511962890625,-0.173553466796875,-0.020111083984375
1751013825870512400,5.778512451171875,-1.0035400390625,-0.1729888916015625,-0.022430419921875
1751013825880456400,5.78845654296875,-1.0058135986328125,-0.1686859130859375,-0.0264129638671875
1751013825890399500,5.7983994140625,-1.00567626953125,-0.1650390625,-0.0265045166015625
1751013825900342500,5.808342529296875,-0.9964447021484375,-0.16375732421875,-0.0222320556640625
1751013825910286300,5.818286376953125,-0.986724853515625,-0.1637420654296875,-0.018890380859375
1751013825920229400,5.8282294921875,-0.980499267578125,-0.167388916015625,-0.0147857666015625
1751013825930173400,5.83817333984375,-0.977264404296875,-0.169403076171875,-0.0112762451171875
1751013825940116500,5.848116455078125,-0.9757080078125,-0.1722412109375,-0.0103759765625
1751013825950060500,5.858060546875,-0.9736175537109375,-0.174652099609375,-0.0118560791015625
1751013825960003300,5.86800341796875,-0.9732208251953125,-0.1752471923828125,-0.0156402587890625
1751013825969947600,5.87794775390625,-0.970916748046875,-0.1768341064453125,-0.0155029296875
1751013825979890700,5.887890625,-0.972900390625,-0.1783294677734375,-0.012939453125
1751013825989834500,5.89783447265625,-0.977874755859375,-0.1787261962890625,-0.0133056640625
1751013825999777500,5.907777587890625,-0.9801177978515625,-0.17816162109375,-0.0157470703125
1751013826009720600,5.917720458984375,-0.989105224609375,-0.1793670654296875,-0.0193023681640625
1751013826019664600,5.92766455078125,-0.9955291748046875,-0.181732177734375,-0.0219879150390625
1751013826029607400,5.937607421875,-0.9998779296875,-0.184661865234375,-0.0235748291015625
1751013826039551500,5.947551513671875,-0.9994659423828125,-0.182830810546875,-0.0216064453125
1751013826049494500,5.95749462890625,-0.9995269775390625,-0.1764984130859375,-0.0150909423828125
1751013826059438600,5.9674384765625,-1.0003814697265625,-0.1729278564453125,-0.0086517333984375
1751013826069381400,5.97738134765625,-0.9981689453125,-0.1709442138671875,-0.003875732421875
1751013826079325400,5.987325439453125,-0.9939422607421875,-0.1708831787109375,-0.0008392333984375
1751013826089268500,5.9972685546875,-0.99761962890625,-0.1693878173828125,0.002685546875
1751013826099212300,6.00721240234375,-1.007476806640625,-0.1664886474609375,0.003326416015625
1751013826109155300,6.0171552734375,-1.0124664306640625,-0.16680908203125,-0.0034027099609375
1751013826119098400,6.027098388671875,-1.01275634765625,-0.167816162109375,-0.0133209228515625
1751013826129042400,6.03704248046875,-1.0171356201171875,-0.1637725830078125,-0.0179901123046875
1751013826138985500,6.0469853515625,-1.021026611328125,-0.1610260009765625,-0.0212860107421875
1751013826148929500,6.056929443359375,-1.0196533203125,-0.1610870361328125,-0.0240478515625
1751013826158872600,6.06687255859375,-1.01727294921875,-0.1614532470703125,-0.02532958984375
1751013826168816600,6.076816650390625,-1.01605224609375,-0.1638946533203125,-0.0253753662109375
1751013826178759700,6.086759765625,-1.01483154296875,-0.166839599609375,-0.0234375
1751013826188703500,6.096703369140625,-1.01043701171875,-0.1710968017578125,-0.0193328857421875
1751013826198646500,6.106646484375,-1.0041351318359375,-0.1745452880859375,-0.0166778564453125
1751013826208590600,6.116590576171875,-1.0026702880859375,-0.1776580810546875,-0.01416015625
1751013826218533600,6.12653369140625,-1.0042877197265625,-0.179595947265625,-0.01226806640625
1751013826228477400,6.1364775390625,-1.00177001953125,-0.1808929443359375,-0.0143890380859375
1751013826238420500,6.14642041015625,-0.998321533203125,-0.1818084716796875,-0.0167999267578125
1751013826248363500,6.156363525390625,-0.9994354248046875,-0.18060302734375,-0.015716552734375
1751013826258307600,6.1663076171875,-1.00201416015625,-0.178497314453125,-0.0142364501953125
1751013826268250400,6.17625048828125,-1.002593994140625,-0.175628662109375,-0.0142822265625
1751013826278194400,6.1861943359375,-1.0040435791015625,-0.1734161376953125,-0.0169525146484375
1751013826288137500,6.196137451171875,-1.003387451171875,-0.173095703125,-0.0193634033203125
1751013826298081300,6.206081298828125,-1.0018157958984375,-0.1700439453125,-0.0186767578125
1751013826308024300,6.2160244140625,-1.0010528564453125,-0.1665191650390625,-0.0164642333984375
1751013826317968600,6.22596875,-0.998779296875,-0.16766357421875,-0.0150146484375
1751013826327911400,6.235911376953125,-0.9957122802734375,-0.1703643798828125,-0.01177978515625
1751013826337855500,6.24585546875,-0.993804931640625,-0.17266845703125,-0.010650634765625
1751013826347798500,6.255798583984375,-0.991485595703125,-0.17510986328125,-0.009613037109375
1751013826357742600,6.26574267578125,-0.98876953125,-0.177154541015625,-0.0084686279296875
1751013826367685600,6.275685546875,-0.9885406494140625,-0.1774139404296875,-0.0084381103515625
1751013826377628700,6.285628662109375,-0.9918212890625,-0.17608642578125,-0.009246826171875
1751013826387572500,6.295572509765625,-1.0002899169921875,-0.17755126953125,-0.0153350830078125
1751013826397515500,6.305515625,-1.00152587890625,-0.174896240234375,-0.0193939208984375
1751013826407459600,6.31545947265625,-0.9992218017578125,-0.1712493896484375,-0.0196685791015625
1751013826417402600,6.325402587890625,-0.99273681640625,-0.1598052978515625,-0.01025390625
1751013826427346400,6.335346435546875,-0.9922943115234375,-0.147735595703125,-0.0037078857421875
1751013826437289500,6.34528955078125,-0.99432373046875,-0.140899658203125,0.0048065185546875
1751013826447233500,6.355233642578125,-0.9912109375,-0.1396331787109375,0.0084381103515625
1751013826457176300,6.36517626953125,-0.9950408935546875,-0.1390380859375,0.00860595703125
1751013826467120400,6.375120361328125,-1.00048828125,-0.14044189453125,0.0074310302734375
1751013826477063400,6.3850634765625,-1.001953125,-0.1434326171875,0.0047149658203125
1751013826487007500,6.395007568359375,-1.0044403076171875,-0.1453094482421875,-0.004058837890625
1751013826496950300,6.4049501953125,-1.00457763671875,-0.149627685546875,0.00543212890625
1751013826506893300,6.414893310546875,-1.0072784423828125,-0.1497802734375,0.0097503662109375
1751013826516837600,6.424837646484375,-1.01202392578125,-0.149169921875,-0.0023040771484375
1751013826526780700,6.43478076171875,-1.0145416259765625,-0.1483154296875,-0.0081939697265625
1751013826536724500,6.444724365234375,-1.01922607421875,-0.1447906494140625,-0.01031494140625
1751013826546667500,6.45466748046875,-1.0190887451171875,-0.139434814453125,-0.00799560546875
1751013826556611600,6.464611572265625,-1.0126800537109375,-0.1371002197265625,-0.0062255859375
1751013826566554600,6.4745546875,-1.00897216796875,-0.1358795166015625,-0.0067291259765625
1751013826576498400,6.48449853515625,-1.0045623779296875,-0.134765625,-0.005706787109375
1751013826586441500,6.49444140625,-1.00103759765625,-0.13818359375,-0.0060272216796875
1751013826596385500,6.504385498046875,-0.99700927734375,-0.143524169921875,-0.0060882568359375
1751013826606328600,6.51432861328125,-0.9971923828125,-0.148162841796875,-0.0095062255859375
1751013826616272400,6.5242724609375,-0.999053955078125,-0.15472412109375,-0.013824462890625
1751013826626215400,6.53421533203125,-1.004852294921875,-0.16046142578125,-0.0180206298828125
1751013826636159500,6.544159423828125,-1.0034027099609375,-0.1627044677734375,-0.0260772705078125
1751013826646102500,6.5541025390625,-0.9973602294921875,-0.165802001953125,-0.0266571044921875
1751013826656045300,6.56404541015625,-0.993743896484375,-0.1646881103515625,-0.0242767333984375
1751013826665989400,6.5739892578125,-0.995635986328125,-0.1584320068359375,-0.0212860107421875
1751013826675932400,6.583932373046875,-1.0006256103515625,-0.156585693359375,-0.0181884765625
1751013826685876500,6.59387646484375,-0.9940643310546875,-0.156097412109375,-0.01348876953125
1751013826695819300,6.6038193359375,-0.9893341064453125,-0.1527099609375,-0.0084991455078125
1751013826705763600,6.613763671875,-0.991607666015625,-0.147857666015625,0.0006103515625
1751013826715706600,6.62370654296875,-0.99169921875,-0.1494293212890625,0.004791259765625
1751013826725650400,6.633650390625,-0.98614501953125,-0.155548095703125,0.0054779052734375
1751013826735593200,6.64359326171875,-0.98577880859375,-0.15997314453125,0.0103759765625
1751013826745537300,6.653537353515625,-0.986572265625,-0.1622161865234375,0.014434814453125
1751013826755480300,6.663480224609375,-0.98638916015625,-0.165435791015625,0.01080322265625
1751013826765424000,6.673424072265625,-0.9821624755859375,-0.1660308837890625,0.0105438232421875
1751013826775367200,6.6833671875,-0.9791259765625,-0.162506103515625,0.0123291015625
1751013826785311200,6.693311279296875,-0.97784423828125,-0.1586456298828125,0.008392333984375
1751013826795254300,6.703254150390625,-0.987274169921875,-0.15130615234375,-0.0010528564453125
1751013826805197300,6.713197265625,-0.99761962890625,-0.1435546875,-0.0067901611328125
1751013826815141000,6.72314111328125,-1.006378173828125,-0.141082763671875,-0.011962890625
1751013826825084200,6.733084228515625,-1.0169525146484375,-0.139251708984375,-0.0156707763671875
1751013826835028200,6.7430283203125,-1.025360107421875,-0.133209228515625,-0.01922607421875
1751013826844971300,6.75297119140625,-1.024322509765625,-0.127655029296875,-0.02105712890625
1751013826854915000,6.7629150390625,-1.0238189697265625,-0.1266937255859375,-0.0218658447265625
1751013826864858000,6.772858154296875,-1.022308349609375,-0.1296234130859375,-0.0213623046875
1751013826874802400,6.782802490234375,-1.019775390625,-0.13287353515625,-0.018890380859375
1751013826884745200,6.7927451171875,-1.0152587890625,-0.138824462890625,-0.0139617919921875
1751013826894689300,6.802689208984375,-1.0101165771484375,-0.14569091796875,-0.010345458984375
1751013826904632300,6.81263232421875,-1.01214599609375,-0.1480712890625,-0.0081024169921875
1751013826914576400,6.822576416015625,-1.0102996826171875,-0.1543121337890625,-0.00689697265625
1751013826924519400,6.83251953125,-1.0091552734375,-0.1582794189453125,-0.011199951171875
1751013826934463200,6.842463134765625,-1.01104736328125,-0.1577606201171875,-0.0181884765625
1751013826944406300,6.85240625,-1.0138397216796875,-0.1541748046875,-0.023712158203125
1751013826954350300,6.862350341796875,-1.0140228271484375,-0.152099609375,-0.0318450927734375
1751013826964293000,6.872293212890625,-1.013153076171875,-0.146728515625,-0.0377044677734375
1751013826974236200,6.882236083984375,-1.01416015625,-0.141571044921875,-0.034820556640625
1751013826984180200,6.89218017578125,-1.0171966552734375,-0.1468353271484375,-0.0304412841796875
1751013826994123300,6.902123291015625,-1.0162353515625,-0.1444854736328125,-0.03338623046875
1751013827004067000,6.912067138671875,-1.016815185546875,-0.141387939453125,-0.03369140625
1751013827014010000,6.922010009765625,-1.020294189453125,-0.13861083984375,-0.031585693359375
1751013827023954200,6.9319541015625,-1.0243377685546875,-0.130279541015625,-0.0284881591796875
1751013827033897200,6.941897216796875,-1.0136260986328125,-0.125396728515625,-0.026580810546875
1751013827043841000,6.951841064453125,-1.011260986328125,-0.1255645751953125,-0.0229339599609375
1751013827053784000,6.9617841796875,-1.01629638671875,-0.124664306640625,-0.019989013671875
1751013827063728400,6.971728271484375,-1.0128631591796875,-0.126434326171875,-0.0215301513671875
1751013827073671400,6.98167138671875,-1.0045166015625,-0.135650634765625,-0.0277557373046875
1751013827083615200,6.991615234375,-1.000396728515625,-0.1470489501953125,-0.024932861328125
1751013827093558300,7.001558349609375,-0.9971466064453125,-0.1542205810546875,-0.0184326171875
1751013827103502300,7.01150244140625,-0.988800048828125,-0.1632537841796875,-0.0178985595703125
1751013827113445400,7.0214453125,-0.98297119140625,-0.1707916259765625,-0.01788330078125
1751013827123389200,7.03138916015625,-0.9759674072265625,-0.1685791015625,-0.0141754150390625
1751013827133332200,7.041332275390625,-0.971343994140625,-0.1605987548828125,-0.0103912353515625
1751013827143276300,7.0512763671875,-0.9688720703125,-0.156707763671875,-0.0071868896484375
1751013827153219300,7.06121923828125,-0.969696044921875,-0.1512298583984375,-0.00628662109375
1751013827163162000,7.071162109375,-0.978973388671875,-0.1429290771484375,-0.007293701171875
1751013827173106200,7.081106201171875,-0.9880828857421875,-0.1370086669921875,-0.0138092041015625
1751013827183049200,7.09104931640625,-0.998291015625,-0.135894775390625,-0.0203704833984375
1751013827192993300,7.1009931640625,-1.008880615234375,-0.14013671875,-0.0242767333984375
1751013827202936000,7.11093603515625,-1.012176513671875,-0.1442718505859375,-0.0257568359375
1751013827212880100,7.120880126953125,-1.012908935546875,-0.1449737548828125,-0.0252227783203125
1751013827222823200,7.1308232421875,-1.0129852294921875,-0.1450653076171875,-0.023834228515625
1751013827232767200,7.140767333984375,-1.009674072265625,-0.14556884765625,-0.025909423828125
1751013827242710300,7.150710205078125,-1.005462646484375,-0.1452789306640625,-0.025390625
1751013827252654300,7.160654296875,-1.0059661865234375,-0.1429443359375,-0.0243682861328125
1751013827262597400,7.170597412109375,-1.011474609375,-0.1414794921875,-0.0252227783203125
1751013827272541200,7.180541259765625,-1.00933837890625,-0.142822265625,-0.02801513671875
1751013827282484200,7.190484130859375,-1.005584716796875,-0.1437530517578125,-0.0298004150390625
1751013827292428300,7.20042822265625,-1.0057220458984375,-0.1388397216796875,-0.0263824462890625
1751013827302371300,7.210371337890625,-1.0052490234375,-0.137298583984375,-0.0231781005859375
1751013827312315100,7.220315185546875,-1.002288818359375,-0.1410064697265625,-0.0245208740234375
1751013827322258200,7.230258056640625,-1.0020294189453125,-0.14703369140625,-0.02783203125
1751013827332202200,7.2402021484375,-1.004974365234375,-0.1463623046875,-0.031402587890625
1751013827342145300,7.250145263671875,-1.0114593505859375,-0.1455535888671875,-0.0345458984375
1751013827352088300,7.26008837890625,-1.01275634765625,-0.1491851806640625,-0.037384033203125
1751013827362032000,7.2700322265625,-1.0086517333984375,-0.1498870849609375,-0.0362396240234375
1751013827371975200,7.27997509765625,-1.0074615478515625,-0.143951416015625,-0.0360565185546875
1751013827381919200,7.289919189453125,-1.007293701171875,-0.1397705078125,-0.0342559814453125
1751013827391862300,7.2998623046875,-1.0020294189453125,-0.1412811279296875,-0.03155517578125
1751013827401806300,7.309806396484375,-0.998199462890625,-0.1412353515625,-0.027801513671875
1751013827411749000,7.3197490234375,-0.997833251953125,-0.139129638671875,-0.02484130859375
1751013827421693400,7.329693359375,-0.990692138671875,-0.1382904052734375,-0.0201416015625
1751013827431636200,7.33963623046875,-0.9765472412109375,-0.147125244140625,-0.016510009765625
1751013827441580300,7.349580322265625,-0.969818115234375,-0.1569061279296875,-0.020263671875
1751013827451523300,7.3595234375,-0.9806976318359375,-0.1641387939453125,-0.0262298583984375
1751013827461467400,7.36946728515625,-0.9931640625,-0.1652069091796875,-0.0368194580078125
1751013827471410200,7.37941015625,-0.993194580078125,-0.171356201171875,-0.043365478515625
1751013827481354200,7.389354248046875,-0.9945068359375,-0.175933837890625,-0.040252685546875
1751013827491297300,7.39929736328125,-1.0006256103515625,-0.169830322265625,-0.0345458984375
1751013827501241000,7.409240966796875,-1.006744384765625,-0.1550750732421875,-0.02655029296875
1751013827511184100,7.41918408203125,-1.0085601806640625,-0.1454925537109375,-0.025909423828125
1751013827521128200,7.429128173828125,-1.01031494140625,-0.1439361572265625,-0.02587890625
1751013827531071200,7.4390712890625,-1.0167999267578125,-0.14013671875,-0.0221710205078125
1751013827541015000,7.44901513671875,-1.019439697265625,-0.1409149169921875,-0.0245513916015625
1751013827550958000,7.4589580078125,-1.0196075439453125,-0.1436767578125,-0.030242919921875
1751013827560902400,7.46890234375,-1.0221099853515625,-0.1445159912109375,-0.034423828125
1751013827570845200,7.47884521484375,-1.023101806640625,-0.1467437744140625,-0.039031982421875
1751013827580789200,7.488789306640625,-1.0194091796875,-0.15130615234375,-0.0444183349609375
1751013827590732300,7.498732177734375,-1.0148162841796875,-0.1583404541015625,-0.046966552734375
1751013827600675300,7.50867529296875,-1.012969970703125,-0.16387939453125,-0.050018310546875
1751013827610619400,7.518619384765625,-1.0145721435546875,-0.16473388671875,-0.05584716796875
1751013827620562400,7.5285625,-1.0130615234375,-0.1650543212890625,-0.058624267578125
1751013827630506200,7.53850634765625,-1.0102386474609375,-0.1621246337890625,-0.0568695068359375
1751013827640449300,7.54844921875,-1.007965087890625,-0.157379150390625,-0.055267333984375
1751013827650393300,7.558393310546875,-1.0010986328125,-0.1510772705078125,-0.0528106689453125
1751013827660336400,7.56833642578125,-0.995269775390625,-0.14788818359375,-0.0450897216796875
1751013827670280200,7.5782802734375,-0.9984893798828125,-0.1419219970703125,-0.033416748046875
1751013827680223200,7.58822314453125,-0.9999542236328125,-0.1363525390625,-0.0230255126953125
1751013827690167300,7.598167236328125,-0.9968414306640625,-0.1458892822265625,-0.027801513671875
1751013827700110000,7.608110107421875,-0.99322509765625,-0.1589508056640625,-0.031280517578125
1751013827710054100,7.61805419921875,-0.98675537109375,-0.1674652099609375,-0.02838134765625
1751013827719997200,7.6279970703125,-0.9844970703125,-0.1678314208984375,-0.0205841064453125
1751013827729941200,7.637941162109375,-0.979034423828125,-0.164642333984375,-0.012420654296875
1751013827739884000,7.647884033203125,-0.97833251953125,-0.160400390625,-0.0048370361328125
1751013827749828000,7.657828125,-0.9837188720703125,-0.1521148681640625,0.0016632080078125
1751013827759771100,7.667771240234375,-0.98919677734375,-0.144561767578125,-0.0045166015625
1751013827769715000,7.67771484375,-0.9934234619140625,-0.1401519775390625,-0.01153564453125
1751013827779658000,7.687657958984375,-1.0024871826171875,-0.1357879638671875,-0.0229034423828125
1751013827789602000,7.69760205078125,-1.0120849609375,-0.1339263916015625,-0.028564453125
1751013827799545000,7.707545166015625,-1.013885498046875,-0.1352996826171875,-0.035400390625
1751013827809489000,7.717489013671875,-1.01251220703125,-0.1386871337890625,-0.0424652099609375
1751013827819432000,7.727431884765625,-1.014495849609375,-0.1453704833984375,-0.0481414794921875
1751013827829376300,7.737376220703125,-1.01580810546875,-0.15277099609375,-0.0493927001953125
1751013827839319300,7.7473193359375,-1.012115478515625,-0.1612548828125,-0.047515869140625
1751013827849263000,7.75726318359375,-1.00244140625,-0.169647216796875,-0.04888916015625
1751013827859206100,7.7672060546875,-0.994354248046875,-0.173736572265625,-0.0482635498046875
1751013827869150200,7.777150146484375,-0.988433837890625,-0.1744537353515625,-0.0457763671875
1751013827879093200,7.78709326171875,-0.9886016845703125,-0.170135498046875,-0.038909912109375
1751013827889036300,7.797036376953125,-0.988616943359375,-0.1689910888671875,-0.037506103515625
1751013827898980000,7.80697998046875,-0.988311767578125,-0.1678924560546875,-0.042724609375
1751013827908923100,7.816923095703125,-0.9934539794921875,-0.16265869140625,-0.0494232177734375
1751013827918867200,7.8268671875,-0.9982757568359375,-0.1583099365234375,-0.0478668212890625
1751013827928810200,7.836810302734375,-0.99725341796875,-0.15667724609375,-0.044647216796875
1751013827938754000,7.846754150390625,-0.9929046630859375,-0.1540374755859375,-0.0390777587890625
1751013827948697000,7.856697021484375,-0.9930419921875,-0.155487060546875,-0.03570556640625
1751013827958641200,7.86664111328125,-0.9931182861328125,-0.1600494384765625,-0.0326690673828125
1751013827968584000,7.876583984375,-0.9920196533203125,-0.1631622314453125,-0.0297393798828125
1751013827978528000,7.886528076171875,-0.995758056640625,-0.161468505859375,-0.0259857177734375
1751013827988471000,7.896470947265625,-1.001922607421875,-0.1591949462890625,-0.0229949951171875
1751013827998415000,7.9064150390625,-0.99993896484375,-0.154754638671875,-0.023681640625
1751013828008358000,7.91635791015625,-1.003143310546875,-0.147918701171875,-0.0254364013671875
1751013828018302200,7.92630224609375,-1.0087738037109375,-0.1420135498046875,-0.025146484375
1751013828028245200,7.936245361328125,-1.014068603515625,-0.1397247314453125,-0.0269775390625
1751013828038189000,7.94618896484375,-1.0172119140625,-0.13861083984375,-0.028289794921875
1751013828048132000,7.956132080078125,-1.016693115234375,-0.137298583984375,-0.031036376953125
1751013828058076200,7.966076171875,-1.0181884765625,-0.1365203857421875,-0.0317840576171875
1751013828068019200,7.976019287109375,-1.017547607421875,-0.1393280029296875,-0.03265380859375
1751013828077963000,7.985962890625,-1.015411376953125,-0.1454010009765625,-0.0351409912109375
1751013828087906000,7.995906005859375,-1.0131378173828125,-0.1532745361328125,-0.0376434326171875
1751013828097850000,8.00585009765625,-1.0101165771484375,-0.156707763671875,-0.03619384765625
1751013828107793200,8.015793212890625,-1.00634765625,-0.1607818603515625,-0.0341949462890625
1751013828117737000,8.025737060546875,-1.000823974609375,-0.1619873046875,-0.0323333740234375
1751013828127680000,8.035679931640624,-1.0005340576171875,-0.1602935791015625,-0.0284881591796875
1751013828137624000,8.0456240234375,-0.9998779296875,-0.1595458984375,-0.0274505615234375
1751013828147567000,8.055567138671876,-0.9984893798828125,-0.1553955078125,-0.0258636474609375
1751013828157511000,8.065510986328125,-1.003814697265625,-0.1498565673828125,-0.02313232421875
1751013828167454000,8.075453857421875,-1.0095367431640625,-0.1448974609375,-0.02703857421875
1751013828177398300,8.085398193359374,-1.0090179443359375,-0.1422576904296875,-0.0304718017578125
1751013828187341300,8.09534130859375,-1.0109710693359375,-0.1396026611328125,-0.0283355712890625
1751013828197285000,8.10528515625,-1.01104736328125,-0.1370391845703125,-0.0245361328125
1751013828207228200,8.115228271484375,-1.003936767578125,-0.14306640625,-0.024993896484375
1751013828217172200,8.125172119140625,-1.001312255859375,-0.148590087890625,-0.027862548828125
1751013828227115300,8.135115234375,-0.9995880126953125,-0.152008056640625,-0.029266357421875
1751013828237058000,8.14505810546875,-0.995513916015625,-0.1540069580078125,-0.0293426513671875
1751013828247002000,8.155002197265626,-0.9946746826171875,-0.1545867919921875,-0.022705078125
1751013828256945200,8.164945068359375,-1.001007080078125,-0.157012939453125,-0.01104736328125
1751013828266889200,8.17488916015625,-1.008544921875,-0.15618896484375,-0.010040283203125
1751013828276832000,8.18483203125,-1.01116943359375,-0.1546478271484375,-0.0219268798828125
1751013828286776000,8.194776123046875,-1.0164947509765625,-0.150482177734375,-0.0306243896484375
1751013828296719000,8.204718994140626,-1.021240234375,-0.1501922607421875,-0.0335235595703125
1751013828306663000,8.214662841796875,-1.0210723876953125,-0.1489715576171875,-0.033935546875
1751013828316606000,8.22460595703125,-1.0167388916015625,-0.151153564453125,-0.0360107421875
1751013828326550000,8.234550048828124,-1.0130767822265625,-0.1530914306640625,-0.036376953125
1751013828336493000,8.2444931640625,-1.0073089599609375,-0.1537322998046875,-0.0347137451171875
1751013828346437000,8.25443701171875,-0.9994659423828125,-0.154144287109375,-0.02691650390625
1751013828356380200,8.264380126953125,-0.995697021484375,-0.1582183837890625,-0.02099609375
1751013828366324200,8.27432421875,-0.9892578125,-0.16436767578125,-0.0185394287109375
1751013828376267300,8.284267333984374,-0.9812164306640625,-0.1676177978515625,-0.0192108154296875
1751013828386211000,8.294211181640625,-0.9778900146484375,-0.16680908203125,-0.0166778564453125
1751013828396154000,8.304154052734376,-0.9787750244140625,-0.16412353515625,-0.013397216796875
1751013828406098200,8.31409814453125,-0.9814910888671875,-0.1630859375,-0.0123443603515625
1751013828416041200,8.324041259765625,-0.9853515625,-0.160797119140625,-0.0148468017578125
1751013828425985000,8.333985107421874,-0.990814208984375,-0.15606689453125,-0.0162353515625
1751013828435928000,8.343927978515625,-0.99298095703125,-0.152435302734375,-0.0189056396484375
1751013828445872000,8.3538720703125,-0.9918212890625,-0.15301513671875,-0.0234832763671875
1751013828455815200,8.363815185546875,-0.987823486328125,-0.1559295654296875,-0.0277252197265625
1751013828465759000,8.373759033203125,-0.9874114990234375,-0.1570892333984375,-0.03057861328125
1751013828475702000,8.383701904296874,-0.9835968017578125,-0.15985107421875,-0.0300750732421875
1751013828485646000,8.39364599609375,-0.97705078125,-0.166168212890625,-0.0318603515625
1751013828495589000,8.403589111328126,-0.97845458984375,-0.1709747314453125,-0.0358734130859375
1751013828505533200,8.413533203125,-0.9860076904296875,-0.17578125,-0.0423431396484375
1751013828515476200,8.423476318359375,-0.9971771240234375,-0.174774169921875,-0.051971435546875
1751013828525420300,8.433420166015624,-1.0005035400390625,-0.1706390380859375,-0.0442657470703125
1751013828535363000,8.443363037109375,-0.99627685546875,-0.170379638671875,-0.04754638671875
1751013828545307100,8.45330712890625,-0.9915008544921875,-0.168243408203125,-0.03753662109375
1751013828555250200,8.463250244140625,-0.9915771484375,-0.163787841796875,-0.0334625244140625
1751013828565194200,8.4731943359375,-0.994415283203125,-0.160919189453125,-0.032562255859375
1751013828575137000,8.483136962890624,-0.995147705078125,-0.1565704345703125,-0.0306396484375
1751013828585081000,8.4930810546875,-0.99969482421875,-0.149871826171875,-0.0287628173828125
1751013828595024100,8.503024169921876,-1.0068817138671875,-0.1419830322265625,-0.0250091552734375
1751013828604968200,8.51296826171875,-1.0136260986328125,-0.138214111328125,-0.0204925537109375
1751013828614911000,8.522910888671875,-1.0146026611328125,-0.13568115234375,-0.020477294921875
1751013828624855000,8.53285498046875,-1.0126190185546875,-0.1314849853515625,-0.0222015380859375
1751013828634798000,8.542798095703125,-1.01409912109375,-0.1277313232421875,-0.023681640625
1751013828644742000,8.552741943359376,-1.0142822265625,-0.1269683837890625,-0.0250396728515625
1751013828654685000,8.562684814453124,-1.0108489990234375,-0.1302947998046875,-0.024169921875
1751013828664629200,8.572629150390625,-1.0013427734375,-0.13677978515625,-0.0229339599609375
1751013828674572300,8.582572265625,-0.9916229248046875,-0.14324951171875,-0.018646240234375
1751013828684516000,8.59251611328125,-0.98583984375,-0.14959716796875,-0.01544189453125
1751013828694459100,8.602459228515626,-0.97967529296875,-0.15875244140625,-0.0108489990234375
1751013828704403200,8.6124033203125,-0.98089599609375,-0.161712646484375,-0.0102996826171875
1751013828714346200,8.62234619140625,-0.99017333984375,-0.154449462890625,-0.0049285888671875
1751013828724293600,8.632293701171875,-0.9969024658203125,-0.1551666259765625,-0.0054931640625
1751013828734236700,8.642236572265626,-1.0054168701171875,-0.1568603515625,-0.0104827880859375
1751013828744180700,8.6521806640625,-1.0149078369140625,-0.151763916015625,-0.0183258056640625
1751013828754123800,8.662123779296875,-1.02923583984375,-0.1473388671875,-0.0236663818359375
1751013828764067600,8.672067626953124,-1.0397186279296875,-0.1439361572265625,-0.0271453857421875
1751013828774010600,8.6820107421875,-1.04632568359375,-0.14605712890625,-0.033843994140625
1751013828783954700,8.69195458984375,-1.045074462890625,-0.1529693603515625,-0.0370941162109375
1751013828793897700,8.701897705078125,-1.0352935791015625,-0.158935546875,-0.049530029296875
1751013828803841500,8.711841552734375,-1.0299835205078125,-0.16497802734375,-0.06463623046875
1751013828813784600,8.72178466796875,-1.017181396484375,-0.162872314453125,-0.058197021484375
1751013828823728600,8.731728759765625,-1.000579833984375,-0.1652069091796875,-0.05352783203125
1751013828833671700,8.741671630859376,-0.987030029296875,-0.1690826416015625,-0.0486297607421875
1751013828843615500,8.751615478515625,-0.973907470703125,-0.168426513671875,-0.0445709228515625
1751013828853558500,8.76155859375,-0.9730682373046875,-0.165374755859375,-0.0385284423828125
1751013828863501600,8.77150146484375,-0.9790191650390625,-0.166015625,-0.0344390869140625
1751013828873445600,8.781445556640625,-0.981201171875,-0.167083740234375,-0.033172607421875
1751013828883388400,8.791388427734375,-0.9833526611328125,-0.165771484375,-0.032470703125
1751013828893332700,8.801332763671875,-0.98846435546875,-0.160003662109375,-0.03204345703125
1751013828903275800,8.81127587890625,-0.9948272705078125,-0.154449462890625,-0.0297088623046875
1751013828913219600,8.821219482421874,-0.997802734375,-0.15509033203125,-0.02777099609375
1751013828923162600,8.83116259765625,-0.996612548828125,-0.1555023193359375,-0.021026611328125
1751013828933106700,8.841106689453126,-0.9958648681640625,-0.1531829833984375,-0.0159759521484375
1751013828943049700,8.8510498046875,-1.0005950927734375,-0.1477508544921875,-0.0166015625
1751013828952993500,8.86099365234375,-1.0025482177734375,-0.1429443359375,-0.017364501953125
1751013828962936600,8.8709365234375,-1.0023040771484375,-0.1425018310546875,-0.019744873046875
1751013828972880600,8.880880615234375,-1.0006256103515625,-0.1444854736328125,-0.01922607421875
1751013828982823700,8.89082373046875,-1.00286865234375,-0.1428985595703125,-0.020538330078125
1751013828992767500,8.900767578125,-1.00567626953125,-0.1418304443359375,-0.01885986328125
1751013829002710500,8.91071044921875,-1.006378173828125,-0.14447021484375,-0.0181427001953125
1751013829012654600,8.920654541015624,-1.002227783203125,-0.1468963623046875,-0.017791748046875
1751013829022597600,8.93059765625,-1.005126953125,-0.148956298828125,-0.018280029296875
1751013829032541400,8.94054150390625,-1.0082855224609375,-0.1489410400390625,-0.019195556640625
1751013829042484500,8.950484375,-1.0092620849609375,-0.151824951171875,-0.025543212890625
1751013829052428800,8.9604287109375,-1.010650634765625,-0.153656005859375,-0.0328369140625
1751013829062371800,8.970371826171874,-1.012176513671875,-0.15447998046875,-0.0402984619140625
1751013829072315600,8.980315673828125,-1.015869140625,-0.1557769775390625,-0.046478271484375
1751013829082258700,8.9902587890625,-1.0141143798828125,-0.1561126708984375,-0.0458526611328125
1751013829092202800,9.00020263671875,-1.0093841552734375,-0.15380859375,-0.04296875
1751013829102145800,9.010145751953125,-1.0062408447265625,-0.1523590087890625,-0.0379638671875
1751013829112089600,9.020089599609374,-1.0062255859375,-0.152587890625,-0.0349273681640625
1751013829122032600,9.03003271484375,-1.00372314453125,-0.15386962890625,-0.03173828125
1751013829131976700,9.039976806640626,-1.003936767578125,-0.1548919677734375,-0.0316925048828125
1751013829141919500,9.04991943359375,-1.0050811767578125,-0.15423583984375,-0.02874755859375
1751013829151863600,9.059863525390625,-1.0028839111328125,-0.1529541015625,-0.0256195068359375
1751013829161806600,9.069806640625,-0.9990997314453125,-0.1489715576171875,-0.020599365234375
1751013829171750700,9.079750732421875,-1.00152587890625,-0.1445770263671875,-0.019073486328125
1751013829181693400,9.089693359375,-1.0057373046875,-0.1420440673828125,-0.0191650390625
1751013829191637500,9.099637451171875,-1.00421142578125,-0.141998291015625,-0.0190887451171875
1751013829201580500,9.10958056640625,-1.001190185546875,-0.1409912109375,-0.0167694091796875
1751013829211524600,9.119524658203124,-1.005584716796875,-0.13983154296875,-0.016693115234375
1751013829221467600,9.129467529296875,-1.005035400390625,-0.1397705078125,-0.01727294921875
1751013829231411700,9.13941162109375,-1.001678466796875,-0.139251708984375,-0.0150146484375
1751013829241354800,9.149354736328124,-1.0062713623046875,-0.138153076171875,-0.0167083740234375
1751013829251298600,9.159298583984375,-1.0055694580078125,-0.1392822265625,-0.020050048828125
1751013829261241600,9.16924169921875,-1.002166748046875,-0.139312744140625,-0.022369384765625
1751013829271185700,9.179185546875,-1.0022735595703125,-0.140533447265625,-0.022613525390625
1751013829281128700,9.189128662109376,-1.004730224609375,-0.1417999267578125,-0.022918701171875
1751013829291072500,9.199072509765625,-1.002777099609375,-0.144195556640625,-0.0259552001953125
1751013829301015600,9.209015625,-0.9989166259765625,-0.145111083984375,-0.028076171875
1751013829310959600,9.218959716796874,-0.9995574951171875,-0.1455535888671875,-0.0270233154296875
1751013829320902700,9.228902587890625,-0.9997100830078125,-0.14501953125,-0.0241546630859375
1751013829330846500,9.238846435546876,-0.998321533203125,-0.1475982666015625,-0.026336669921875
1751013829340789500,9.24878955078125,-1.0013885498046875,-0.14849853515625,-0.02825927734375
1751013829350733600,9.258733642578125,-1.0050201416015625,-0.1472320556640625,-0.030609130859375
1751013829360676600,9.268676513671876,-1.005767822265625,-0.148590087890625,-0.031951904296875
1751013829370620700,9.27862060546875,-1.0063629150390625,-0.1540069580078125,-0.0298614501953125
1751013829380563500,9.2885634765625,-1.007110595703125,-0.158660888671875,-0.0301055908203125
1751013829390507800,9.2985078125,-1.0074615478515625,-0.156890869140625,-0.0283050537109375
1751013829400450800,9.308450927734375,-1.009185791015625,-0.151214599609375,-0.0249176025390625
1751013829410394600,9.31839453125,-1.00970458984375,-0.14715576171875,-0.0209503173828125
1751013829420337700,9.328337646484375,-1.0111541748046875,-0.145263671875,-0.017974853515625
1751013829430281700,9.33828173828125,-1.017608642578125,-0.13970947265625,-0.0172576904296875
1751013829440224800,9.348224853515624,-1.0226287841796875,-0.135528564453125,-0.0243072509765625
1751013829450168600,9.35816845703125,-1.0232086181640625,-0.136138916015625,-0.03131103515625
1751013829460111600,9.368111572265626,-1.0217132568359375,-0.1363372802734375,-0.032562255859375
1751013829470055700,9.3780556640625,-1.0225830078125,-0.1343841552734375,-0.0347747802734375
1751013829479998500,9.38799853515625,-1.0186309814453125,-0.1359405517578125,-0.0361328125
1751013829489942500,9.397942626953125,-1.01312255859375,-0.1396331787109375,-0.035064697265625
1751013829499885600,9.407885498046875,-1.008392333984375,-0.141448974609375,-0.0296478271484375
1751013829509829600,9.41782958984375,-1.0013427734375,-0.1428375244140625,-0.0234222412109375
1751013829519772400,9.4277724609375,-0.9925537109375,-0.14727783203125,-0.0214385986328125
1751013829529716700,9.437716796875,-0.986785888671875,-0.148895263671875,-0.017333984375
1751013829539659500,9.447659423828124,-0.983673095703125,-0.1496734619140625,-0.01312255859375
1751013829549603600,9.457603515625,-0.9860076904296875,-0.1500701904296875,-0.0102386474609375
1751013829559546600,9.467546630859376,-0.9877166748046875,-0.149383544921875,-0.0086212158203125
1751013829569490700,9.47749072265625,-0.99420166015625,-0.1454620361328125,-0.0110321044921875
1751013829579433700,9.487433837890626,-1.002838134765625,-0.1392974853515625,-0.0131988525390625
1751013829589377500,9.49737744140625,-1.0085601806640625,-0.134674072265625,-0.014801025390625
1751013829599320600,9.507320556640625,-1.0129852294921875,-0.1335601806640625,-0.019287109375
1751013829609264600,9.5172646484375,-1.0201873779296875,-0.1324310302734375,-0.022613525390625
1751013829619207700,9.527207763671875,-1.0238494873046875,-0.1290740966796875,-0.0273895263671875
1751013829629151500,9.5371513671875,-1.0205230712890625,-0.1291961669921875,-0.032867431640625
1751013829639094500,9.547094482421874,-1.017791748046875,-0.1325836181640625,-0.0320587158203125
1751013829649038600,9.55703857421875,-1.0150146484375,-0.1338653564453125,-0.0296173095703125
1751013829658981600,9.566981689453126,-1.0083465576171875,-0.13433837890625,-0.029144287109375
1751013829668925400,9.576925537109375,-1.0048675537109375,-0.13763427734375,-0.0272064208984375
1751013829678868500,9.586868408203125,-1.000762939453125,-0.140594482421875,-0.0252838134765625
1751013829688812800,9.596812744140625,-0.9972686767578125,-0.1422882080078125,-0.0258941650390625
1751013829698755600,9.606755615234375,-0.9971923828125,-0.1428680419921875,-0.02606201171875
1751013829708699600,9.61669970703125,-0.9946136474609375,-0.144378662109375,-0.0301971435546875
1751013829718643700,9.626643798828125,-0.9940643310546875,-0.1450042724609375,-0.0367279052734375
1751013829728583200,9.636583251953125,-0.993927001953125,-0.1445770263671875,-0.043548583984375
1751013829738527000,9.64652685546875,-0.9929656982421875,-0.14447021484375,-0.043548583984375
1751013829748470000,9.656469970703125,-0.9923095703125,-0.14404296875,-0.0428619384765625
1751013829758414000,9.6664140625,-0.9951629638671875,-0.14178466796875,-0.04388427734375
1751013829768357000,9.676357177734374,-0.992767333984375,-0.1446990966796875,-0.0457763671875
1751013829778301000,9.686301025390625,-0.993438720703125,-0.147552490234375,-0.0428466796875
1751013829788244000,9.696243896484376,-0.9937591552734375,-0.1495208740234375,-0.03875732421875
1751013829798188000,9.70618798828125,-0.991607666015625,-0.1494903564453125,-0.0387420654296875
1751013829808131000,9.716131103515625,-0.9922332763671875,-0.1500701904296875,-0.0375823974609375
1751013829818075000,9.726074951171874,-0.990631103515625,-0.1530303955078125,-0.03472900390625
1751013829828018000,9.736017822265625,-0.9925994873046875,-0.151031494140625,-0.0296478271484375
1751013829837962000,9.7459619140625,-0.99462890625,-0.150299072265625,-0.02789306640625
1751013829847905000,9.755905029296875,-0.99346923828125,-0.1525115966796875,-0.0272369384765625
1751013829857848800,9.765848876953125,-1.0021514892578125,-0.149139404296875,-0.0252685546875
1751013829867792000,9.7757919921875,-1.0121612548828125,-0.1450347900390625,-0.024169921875
1751013829877736200,9.785736083984375,-1.0086517333984375,-0.1458892822265625,-0.0279083251953125
1751013829887679000,9.795678955078126,-1.0113983154296875,-0.1452789306640625,-0.0279998779296875
1751013829897623000,9.805623046875,-1.017425537109375,-0.1448211669921875,-0.0299072265625
1751013829907566000,9.815566162109375,-1.017547607421875,-0.1436614990234375,-0.0310516357421875
1751013829917510100,9.82551025390625,-1.0180206298828125,-0.1453704833984375,-0.025665283203125
1751013829927453000,9.835452880859375,-1.0155792236328125,-0.1508941650390625,-0.02838134765625
1751013829937397000,9.84539697265625,-1.007293701171875,-0.1497039794921875,-0.031982421875
1751013829947340000,9.855340087890625,-1.0051727294921875,-0.148712158203125,-0.0337371826171875
1751013829957284000,9.8652841796875,-1.0070953369140625,-0.148834228515625,-0.0330810546875
1751013829967227000,9.875226806640624,-1.0045623779296875,-0.1493072509765625,-0.033782958984375
1751013829977171000,9.8851708984375,-0.99407958984375,-0.1539306640625,-0.0386505126953125
1751013829987114000,9.895114013671876,-0.9995880126953125,-0.15655517578125,-0.0423126220703125
1751013829997057800,9.905057861328125,-1.00408935546875,-0.1591033935546875,-0.0418701171875
1751013830007000800,9.915000732421875,-0.9986419677734375,-0.1628265380859375,-0.0410308837890625
1751013830016945000,9.92494482421875,-0.99371337890625,-0.1674346923828125,-0.039215087890625
1751013830026888000,9.934887939453125,-0.9996185302734375,-0.1678466796875,-0.033935546875
1751013830036832000,9.94483203125,-1.0030364990234375,-0.1656494140625,-0.0397491455078125
1751013830046775000,9.954775146484375,-0.998291015625,-0.165740966796875,-0.0468597412109375
1751013830056719000,9.964718994140625,-1.00042724609375,-0.162078857421875,-0.0489044189453125
1751013830066662100,9.974662109375,-1.00872802734375,-0.155029296875,-0.0475616455078125
1751013830076606000,9.98460595703125,-1.006256103515625,-0.1519775390625,-0.0520782470703125
1751013830086549000,9.994549072265626,-1.0039825439453125,-0.1524505615234375,-0.052764892578125
1751013830096493000,10.0044931640625,-1.0059356689453125,-0.151611328125,-0.049652099609375
1751013830106436000,10.01443603515625,-1.0033416748046875,-0.1495513916015625,-0.046600341796875
1751013830116380000,10.0243798828125,-1.005462646484375,-0.1466522216796875,-0.0392608642578125
1751013830126323000,10.034322998046875,-1.01025390625,-0.1426544189453125,-0.0312347412109375
1751013830136267000,10.04426708984375,-1.0192413330078125,-0.137725830078125,-0.02880859375
1751013830146210000,10.0542099609375,-1.021209716796875,-0.1323699951171875,-0.03228759765625
1751013830156153900,10.06415380859375,-1.021881103515625,-0.127532958984375,-0.038330078125
1751013830166097000,10.074096923828124,-1.0234832763671875,-0.1251678466796875,-0.04046630859375
1751013830176041000,10.084041015625,-1.0186920166015625,-0.1248321533203125,-0.0378875732421875
1751013830185984000,10.09398388671875,-1.017059326171875,-0.1248321533203125,-0.0330810546875
1751013830195928000,10.103927978515625,-1.0180816650390625,-0.1243743896484375,-0.0227813720703125
1751013830205871000,10.11387109375,-1.009002685546875,-0.1284942626953125,-0.019805908203125
1751013830215815200,10.123815185546874,-1.001678466796875,-0.132049560546875,-0.0188446044921875
1751013830225758000,10.133758056640625,-1.0025787353515625,-0.1324920654296875,-0.0165863037109375
1751013830235702000,10.143701904296876,-1.000091552734375,-0.1352386474609375,-0.0152130126953125
1751013830245645000,10.15364501953125,-0.9996185302734375,-0.1378173828125,-0.0158233642578125
1751013830255589000,10.163589111328125,-1.0006866455078125,-0.1368560791015625,-0.0186614990234375
1751013830265532000,10.173531982421874,-1.00079345703125,-0.1359100341796875,-0.01995849609375
1751013830275476000,10.18347607421875,-1.001983642578125,-0.1337127685546875,-0.0187835693359375
1751013830285419000,10.1934189453125,-1.0042724609375,-0.126495361328125,-0.0196685791015625
1751013830295363000,10.203363037109375,-1.0058135986328125,-0.1198272705078125,-0.020660400390625
1751013830305305900,10.213305908203125,-1.0077972412109375,-0.1193084716796875,-0.020965576171875
1751013830315250000,10.22325,-1.0052490234375,-0.1224212646484375,-0.0210418701171875
1751013830325193000,10.23319287109375,-1.0014495849609375,-0.1263580322265625,-0.024139404296875
1751013830335136800,10.24313671875,-1.0024566650390625,-0.1263885498046875,-0.0257110595703125
1751013830345079800,10.253079833984375,-0.9976806640625,-0.130126953125,-0.0304107666015625
1751013830355024100,10.263024169921875,-0.993682861328125,-0.1365966796875,-0.028656005859375
1751013830364967200,10.27296728515625,-0.9935302734375,-0.1408233642578125,-0.023712158203125
1751013830374911000,10.282910888671875,-0.9940948486328125,-0.142608642578125,-0.01861572265625
1751013830384854000,10.29285400390625,-0.98919677734375,-0.144134521484375,-0.0171051025390625
1751013830394798000,10.302798095703125,-0.9879302978515625,-0.1411285400390625,-0.0084991455078125
1751013830404742000,10.312741943359375,-0.9899749755859375,-0.1373443603515625,-0.01416015625
1751013830414685000,10.322684814453124,-0.9935302734375,-0.135009765625,-0.01300048828125
1751013830424629000,10.33262890625,-0.9957122802734375,-0.13446044921875,-0.0097808837890625
1751013830434572000,10.342572021484376,-0.9978790283203125,-0.1318359375,-0.00823974609375
1751013830444515800,10.352515869140625,-1.00579833984375,-0.12835693359375,-0.010833740234375
1751013830454459000,10.362458984375,-1.0168609619140625,-0.121826171875,-0.0094451904296875
1751013830464403000,10.37240283203125,-1.0186920166015625,-0.120819091796875,-0.01165771484375
1751013830474346000,10.382345947265625,-1.0207977294921875,-0.123046875,-0.0150299072265625
1751013830484289800,10.392289794921876,-1.0223541259765625,-0.1215057373046875,-0.02020263671875
1751013830494232800,10.40223291015625,-1.0272979736328125,-0.1168060302734375,-0.0193939208984375
1751013830504177200,10.41217724609375,-1.02801513671875,-0.1134033203125,-0.025360107421875
1751013830514120200,10.4221201171875,-1.025726318359375,-0.114837646484375,-0.0287628173828125
1751013830524064000,10.43206396484375,-1.0220947265625,-0.119903564453125,-0.040985107421875
1751013830534007000,10.442007080078126,-1.0239105224609375,-0.123199462890625,-0.04705810546875
1751013830543951000,10.451951171875,-1.0220794677734375,-0.126678466796875,-0.0558624267578125
1751013830553894100,10.46189404296875,-1.015838623046875,-0.132415771484375,-0.058990478515625
1751013830563838000,10.471837890625,-1.011993408203125,-0.137237548828125,-0.0590972900390625
1751013830573781000,10.481781005859375,-1.009552001953125,-0.14007568359375,-0.0548095703125
1751013830583725000,10.49172509765625,-1.0032958984375,-0.1414794921875,-0.0546417236328125
1751013830593668000,10.501668212890625,-1.0014495849609375,-0.1417999267578125,-0.05499267578125
1751013830603612000,10.51161181640625,-0.995758056640625,-0.1407470703125,-0.049713134765625
1751013830613555000,10.521554931640624,-0.9910736083984375,-0.142303466796875,-0.04736328125
1751013830623499000,10.5314990234375,-0.9916534423828125,-0.146484375,-0.0496673583984375
1751013830633442000,10.541442138671876,-0.996063232421875,-0.149444580078125,-0.05096435546875
1751013830643385900,10.5513857421875,-0.99652099609375,-0.1530303955078125,-0.055572509765625
1751013830653329000,10.561328857421875,-0.9937286376953125,-0.15704345703125,-0.0619049072265625
1751013830663273200,10.571273193359374,-0.9944915771484375,-0.1598358154296875,-0.0579681396484375
1751013830673216000,10.581216064453125,-0.990936279296875,-0.15869140625,-0.05401611328125
1751013830683160000,10.59116015625,-0.9850616455078125,-0.1592559814453125,-0.0507965087890625
1751013830693103000,10.60110302734375,-0.98309326171875,-0.1581878662109375,-0.0471649169921875
1751013830703047000,10.611046875,-0.9811553955078125,-0.1570281982421875,-0.044647216796875
1751013830712990000,10.620989990234374,-0.979949951171875,-0.1556854248046875,-0.042724609375
1751013830722934300,10.630934326171875,-0.9822845458984375,-0.154998779296875,-0.0401153564453125
1751013830732877300,10.640877197265626,-0.9876556396484375,-0.1531829833984375,-0.042724609375
1751013830742821000,10.650821044921875,-0.9902191162109375,-0.15289306640625,-0.0443115234375
1751013830752764200,10.66076416015625,-0.9937286376953125,-0.1507568359375,-0.043121337890625
1751013830762708200,10.670708251953124,-0.9969940185546875,-0.1451263427734375,-0.0384979248046875
1751013830772651300,10.6806513671875,-0.9971771240234375,-0.1431884765625,-0.0404815673828125
1751013830782595000,10.690594970703126,-0.9979705810546875,-0.1453094482421875,-0.0434722900390625
1751013830792538000,10.7005380859375,-0.99993896484375,-0.1490020751953125,-0.0397491455078125
1751013830802482200,10.710482177734375,-1.001007080078125,-0.1466217041015625,-0.0320892333984375
1751013830812426200,10.72042626953125,-1.002960205078125,-0.1444549560546875,-0.0318756103515625
1751013830822369300,10.730369384765625,-1.0001983642578125,-0.149169921875,-0.0397186279296875
1751013830832313300,10.740313232421874,-1.0037689208984375,-0.148712158203125,-0.035400390625
1751013830842256400,10.75025634765625,-1.011199951171875,-0.14178466796875,-0.033721923828125
1751013830852200200,10.7602001953125,-1.0101318359375,-0.1382293701171875,-0.036956787109375
1751013830862143200,10.770143310546874,-1.0072479248046875,-0.1403961181640625,-0.0399932861328125
1751013830872087300,10.78008740234375,-1.0113372802734375,-0.1393585205078125,-0.0401763916015625
1751013830882030300,10.7900302734375,-1.0092315673828125,-0.13690185546875,-0.0407867431640625
1751013830891974100,10.79997412109375,-1.008087158203125,-0.1392364501953125,-0.037689208984375
1751013830901917200,10.809917236328126,-1.0081329345703125,-0.1426849365234375,-0.0371551513671875
1751013830911861200,10.819861328125,-1.00457763671875,-0.1450042724609375,-0.0400390625
1751013830921804300,10.82980419921875,-1.0074310302734375,-0.1421966552734375,-0.0371246337890625
1751013830931748000,10.839748046875,-1.0047607421875,-0.1395111083984375,-0.0367279052734375
1751013830941691100,10.849691162109375,-1.0048370361328125,-0.140594482421875,-0.0410614013671875
1751013830951635200,10.85963525390625,-1.008697509765625,-0.142578125,-0.04052734375
1751013830961578200,10.869578125,-1.0127105712890625,-0.1421966552734375,-0.0454559326171875
1751013830971522300,10.879522216796875,-1.0134124755859375,-0.14501953125,-0.055816650390625
1751013830981465300,10.88946533203125,-1.0122222900390625,-0.1463775634765625,-0.060546875
1751013830991409400,10.899409423828125,-1.0045928955078125,-0.1487884521484375,-0.058624267578125
1751013831001352200,10.909352294921876,-0.996063232421875,-0.1497039794921875,-0.0549468994140625
1751013831011296300,10.919296142578125,-0.9757232666015625,-0.1500091552734375,-0.04547119140625
1751013831021239300,10.9292392578125,-0.8872528076171875,-0.1490478515625,-0.020904541015625
1751013831031183400,10.939183349609374,-0.98468017578125,-0.1518402099609375,0.0065155029296875
1751013831041126100,10.949126220703125,-1.03045654296875,-0.1368408203125,0.003387451171875
1751013831051070200,10.9590703125,-1,-0.1354827880859375,-0.0407867431640625
1751013831061013200,10.96901318359375,-1.026031494140625,-0.157958984375,-0.065155029296875
1751013831070957000,10.97895703125,-1.014312744140625,-0.1541290283203125,-0.06732177734375
1751013831080900000,10.988900146484376,-1.02935791015625,-0.141204833984375,-0.063323974609375
1751013831090844200,10.99884423828125,-1.028411865234375,-0.129425048828125,-0.05206298828125
