time,seconds_elapsed,z,y,x
1751013395395928300,0.11792822265625,-0.9906768798828125,-0.2220001220703125,0.026397705078125
1751013395405871400,0.127871337890625,-0.9904022216796875,-0.222930908203125,0.0233001708984375
1751013395415814400,0.137814453125,-0.9897613525390625,-0.2209320068359375,0.0202789306640625
1751013395425757400,0.14775732421875,-0.9892578125,-0.2210540771484375,0.019073486328125
1751013395435700500,0.157700439453125,-0.991058349609375,-0.2232818603515625,0.016204833984375
1751013395445643500,0.1676435546875,-0.9890899658203125,-0.2254486083984375,0.0152130126953125
1751013395455587300,0.17758740234375,-0.985198974609375,-0.2243194580078125,0.0153656005859375
1751013395465530400,0.1875302734375,-0.982208251953125,-0.222625732421875,0.014068603515625
1751013395475473400,0.197473388671875,-0.9811859130859375,-0.2226409912109375,0.0159759521484375
1751013395485416400,0.20741650390625,-0.98114013671875,-0.2230682373046875,0.014923095703125
1751013395495359500,0.217359375,-0.9782257080078125,-0.221649169921875,0.0128631591796875
1751013395505302500,0.227302490234375,-0.9783935546875,-0.2211151123046875,0.0118408203125
1751013395515245300,0.237245361328125,-0.9796142578125,-0.2198486328125,0.011474609375
1751013395525188400,0.247188232421875,-0.980194091796875,-0.217498779296875,0.0132598876953125
1751013395535131400,0.25713134765625,-0.98138427734375,-0.2173309326171875,0.0148162841796875
1751013395545074400,0.267074462890625,-0.9850921630859375,-0.218017578125,0.019500732421875
1751013395555017200,0.277017333984375,-0.9878692626953125,-0.2199859619140625,0.025146484375
1751013395564960300,0.286960205078125,-0.987335205078125,-0.222869873046875,0.02508544921875
1751013395574903300,0.2969033203125,-0.9874114990234375,-0.2234954833984375,0.0240478515625
1751013395584846300,0.306846435546875,-0.9900360107421875,-0.225372314453125,0.02423095703125
1751013395594789400,0.316789306640625,-0.9921417236328125,-0.228179931640625,0.0245513916015625
1751013395604732200,0.326732177734375,-0.995880126953125,-0.2304534912109375,0.023773193359375
1751013395614676200,0.33667626953125,-0.996734619140625,-0.2291259765625,0.02276611328125
1751013395624619300,0.346619384765625,-0.99847412109375,-0.2277984619140625,0.0212860107421875
1751013395634562300,0.356562255859375,-0.9984130859375,-0.2287445068359375,0.019866943359375
1751013395644505300,0.36650537109375,-0.9988555908203125,-0.227996826171875,0.0202484130859375
1751013395654448400,0.376448486328125,-1.0001068115234375,-0.2255096435546875,0.017822265625
1751013395664391200,0.38639111328125,-0.99981689453125,-0.22454833984375,0.01690673828125
1751013395674334200,0.396334228515625,-0.99969482421875,-0.22540283203125,0.015106201171875
1751013395684277200,0.40627734375,-1.0002288818359375,-0.2242584228515625,0.014739990234375
1751013395694220300,0.41622021484375,-1.0005340576171875,-0.224090576171875,0.014984130859375
1751013395704163300,0.426163330078125,-0.996978759765625,-0.223663330078125,0.0143890380859375
1751013395714106400,0.4361064453125,-0.99627685546875,-0.224029541015625,0.015106201171875
1751013395724049400,0.44604931640625,-0.99761962890625,-0.2234649658203125,0.0177154541015625
1751013395733992400,0.455992431640625,-0.9962005615234375,-0.221771240234375,0.0210113525390625
1751013395743935200,0.465935302734375,-0.995635986328125,-0.22161865234375,0.0216217041015625
1751013395753878300,0.475878173828125,-0.993865966796875,-0.2218170166015625,0.0218658447265625
1751013395763821300,0.4858212890625,-0.99359130859375,-0.22320556640625,0.021636962890625
1751013395773765400,0.495765380859375,-0.99139404296875,-0.22308349609375,0.0211334228515625
1751013395783708400,0.50570849609375,-0.9869842529296875,-0.2238311767578125,0.023345947265625
1751013395793651500,0.5156513671875,-0.98272705078125,-0.2240447998046875,0.027130126953125
1751013395803594200,0.52559423828125,-0.97882080078125,-0.2267608642578125,0.030059814453125
1751013395813537300,0.535537353515625,-0.9760589599609375,-0.229705810546875,0.0298309326171875
1751013395823480300,0.545480224609375,-0.9757843017578125,-0.2313232421875,0.02880859375
1751013395833423400,0.55542333984375,-0.97698974609375,-0.2322998046875,0.02850341796875
1751013395843366400,0.565366455078125,-0.9810028076171875,-0.2315826416015625,0.029296875
1751013395853309400,0.575309326171875,-0.9891357421875,-0.22808837890625,0.033905029296875
1751013395863252500,0.58525244140625,-0.9928741455078125,-0.226409912109375,0.035064697265625
1751013395873195500,0.595195556640625,-0.99462890625,-0.2276458740234375,0.035858154296875
1751013395883138300,0.60513818359375,-0.995697021484375,-0.2282867431640625,0.036865234375
1751013395893081300,0.615081298828125,-0.991455078125,-0.229583740234375,0.0328521728515625
1751013395903024400,0.6250244140625,-0.9865875244140625,-0.22882080078125,0.0304412841796875
1751013395912967400,0.634967529296875,-0.9855499267578125,-0.2296600341796875,0.0303497314453125
1751013395922911500,0.644911376953125,-0.986846923828125,-0.23046875,0.0284423828125
1751013395932854500,0.6548544921875,-0.9851531982421875,-0.2315826416015625,0.028411865234375
1751013395942797300,0.66479736328125,-0.9829559326171875,-0.234222412109375,0.0274810791015625
1751013395952740400,0.674740234375,-0.985107421875,-0.23431396484375,0.028076171875
1751013395962683400,0.684683349609375,-0.984283447265625,-0.2319183349609375,0.028045654296875
1751013395972626400,0.69462646484375,-0.979827880859375,-0.23248291015625,0.0279083251953125
1751013395982569500,0.704569580078125,-0.9761810302734375,-0.235748291015625,0.0245361328125
1751013395992512500,0.714512451171875,-0.974609375,-0.2393035888671875,0.0212249755859375
1751013396002455300,0.724455322265625,-0.9776458740234375,-0.238372802734375,0.0167236328125
1751013396012398300,0.7343984375,-0.9857940673828125,-0.2382659912109375,0.019989013671875
1751013396022341400,0.74434130859375,-0.9882354736328125,-0.237640380859375,0.0201263427734375
1751013396032284200,0.7542841796875,-0.9866790771484375,-0.237030029296875,0.019866943359375
1751013396042227200,0.764227294921875,-0.987518310546875,-0.238037109375,0.0200958251953125
1751013396052170200,0.774170166015625,-0.988800048828125,-0.2387542724609375,0.0191802978515625
1751013396062113300,0.78411328125,-0.986541748046875,-0.237335205078125,0.018218994140625
1751013396072057300,0.794057373046875,-0.9850616455078125,-0.235931396484375,0.0176849365234375
1751013396082000100,0.804000244140625,-0.9876861572265625,-0.2349853515625,0.019744873046875
1751013396091943200,0.813943115234375,-0.992095947265625,-0.2349090576171875,0.0233306884765625
1751013396101886200,0.82388623046875,-0.991668701171875,-0.23321533203125,0.02313232421875
1751013396111829200,0.833829345703125,-0.987579345703125,-0.234283447265625,0.0171661376953125
1751013396121772300,0.843772216796875,-0.984771728515625,-0.2360992431640625,0.015594482421875
1751013396131715300,0.85371533203125,-0.9842376708984375,-0.23565673828125,0.01678466796875
1751013396141658400,0.863658447265625,-0.9846954345703125,-0.2357635498046875,0.018829345703125
1751013396151601400,0.873601318359375,-0.9847259521484375,-0.236785888671875,0.021148681640625
1751013396161544400,0.88354443359375,-0.98309326171875,-0.2368316650390625,0.02325439453125
1751013396171487200,0.8934873046875,-0.9812774658203125,-0.239532470703125,0.0249176025390625
1751013396181430300,0.90343017578125,-0.981231689453125,-0.240692138671875,0.0236053466796875
1751013396191373300,0.913373291015625,-0.98199462890625,-0.2406463623046875,0.026031494140625
1751013396201316400,0.92331640625,-0.98260498046875,-0.24066162109375,0.0288238525390625
1751013396211260400,0.933260498046875,-0.9810791015625,-0.2409515380859375,0.026824951171875
1751013396221203200,0.943203125,-0.9766845703125,-0.24212646484375,0.02435302734375
1751013396231146200,0.953146240234375,-0.971588134765625,-0.2451934814453125,0.024810791015625
1751013396241089300,0.96308935546875,-0.97216796875,-0.246368408203125,0.0237274169921875
1751013396251032300,0.9730322265625,-0.9725494384765625,-0.247955322265625,0.0247955322265625
1751013396260975400,0.982975341796875,-0.977630615234375,-0.246856689453125,0.028594970703125
1751013396270918400,0.99291845703125,-0.9866790771484375,-0.243560791015625,0.0325775146484375
1751013396280861400,1.002861328125,-0.9912109375,-0.2427520751953125,0.032806396484375
1751013396290804500,1.012804443359375,-0.9878387451171875,-0.2443084716796875,0.0301666259765625
1751013396300747500,1.02274755859375,-0.9806060791015625,-0.2448577880859375,0.0274658203125
1751013396310690600,1.032690673828125,-0.97955322265625,-0.24432373046875,0.0242767333984375
1751013396320633600,1.042633544921875,-0.97943115234375,-0.2451629638671875,0.0225372314453125
1751013396330576600,1.05257666015625,-0.980133056640625,-0.24530029296875,0.0240936279296875
1751013396340519700,1.062519775390625,-0.982147216796875,-0.2451934814453125,0.023895263671875
1751013396350462700,1.072462646484375,-0.9876556396484375,-0.242584228515625,0.0247344970703125
1751013396360406500,1.082406494140625,-0.99090576171875,-0.242431640625,0.0270233154296875
1751013396370349600,1.092349609375,-0.991058349609375,-0.2440338134765625,0.0279541015625
1751013396380292600,1.102292724609375,-0.986541748046875,-0.2445831298828125,0.029815673828125
1751013396390235600,1.112235595703125,-0.983428955078125,-0.2442169189453125,0.028289794921875
1751013396400178700,1.1221787109375,-0.9812164306640625,-0.24493408203125,0.0268402099609375
1751013396410121700,1.132121826171875,-0.9788970947265625,-0.24591064453125,0.023162841796875
1751013396420064800,1.142064697265625,-0.97613525390625,-0.2447967529296875,0.0210723876953125
1751013396430007800,1.1520078125,-0.97705078125,-0.2416229248046875,0.0210418701171875
1751013396439950600,1.16195068359375,-0.97857666015625,-0.2409210205078125,0.0238037109375
1751013396449893600,1.1718935546875,-0.9829254150390625,-0.2430419921875,0.0259552001953125
1751013396459836400,1.18183642578125,-0.9841156005859375,-0.2452850341796875,0.0273895263671875
1751013396469779500,1.191779541015625,-0.98291015625,-0.24591064453125,0.028289794921875
1751013396479722500,1.201722412109375,-0.982208251953125,-0.246826171875,0.0292816162109375
1751013396489665500,1.21166552734375,-0.98101806640625,-0.244293212890625,0.028717041015625
1751013396499609600,1.221609619140625,-0.9827880859375,-0.2427215576171875,0.0326690673828125
1751013396509552600,1.231552734375,-0.980499267578125,-0.242584228515625,0.032867431640625
1751013396519495400,1.241495361328125,-0.9771575927734375,-0.243682861328125,0.0308074951171875
1751013396529438500,1.2514384765625,-0.9798736572265625,-0.244720458984375,0.0301971435546875
1751013396539381500,1.261381591796875,-0.9828033447265625,-0.2459564208984375,0.029876708984375
1751013396549324500,1.271324462890625,-0.9826202392578125,-0.245849609375,0.0287017822265625
1751013396559267600,1.281267578125,-0.9805145263671875,-0.24615478515625,0.026580810546875
1751013396569210600,1.291210693359375,-0.9827880859375,-0.2456207275390625,0.0263214111328125
1751013396579153700,1.301153564453125,-0.9844970703125,-0.2464599609375,0.0240020751953125
1751013396589096400,1.311096435546875,-0.982635498046875,-0.24749755859375,0.0237884521484375
1751013396599039500,1.32103955078125,-0.98333740234375,-0.246673583984375,0.024383544921875
1751013396608982500,1.330982421875,-0.989288330078125,-0.246063232421875,0.0248565673828125
1751013396618925600,1.340925537109375,-0.9930419921875,-0.244415283203125,0.0257110595703125
1751013396628869600,1.35086962890625,-0.992279052734375,-0.2410430908203125,0.026702880859375
1751013396638812400,1.3608125,-0.9885101318359375,-0.24041748046875,0.0269012451171875
1751013396648755500,1.37075537109375,-0.9892425537109375,-0.2402496337890625,0.02569580078125
1751013396658698500,1.380698486328125,-0.991241455078125,-0.2396087646484375,0.024932861328125
1751013396668641500,1.3906416015625,-0.98846435546875,-0.239776611328125,0.0243377685546875
1751013396678584600,1.40058447265625,-0.983062744140625,-0.2388763427734375,0.0244140625
1751013396688527600,1.410527587890625,-0.9816436767578125,-0.240478515625,0.0270233154296875
1751013396698470700,1.420470703125,-0.97979736328125,-0.2419891357421875,0.027252197265625
1751013396708413700,1.43041357421875,-0.97509765625,-0.24200439453125,0.0268096923828125
1751013396718356700,1.440356689453125,-0.973480224609375,-0.2425689697265625,0.0332183837890625
1751013396728299500,1.450299560546875,-0.974822998046875,-0.242645263671875,0.034942626953125
1751013396738242600,1.46024267578125,-0.9775390625,-0.241302490234375,0.032562255859375
1751013396748185600,1.470185546875,-0.97991943359375,-0.2419281005859375,0.031646728515625
1751013396758128600,1.480128662109375,-0.9789581298828125,-0.2443084716796875,0.0294647216796875
1751013396768072700,1.49007275390625,-0.97918701171875,-0.2451171875,0.0284271240234375
1751013396778015500,1.500015380859375,-0.9817962646484375,-0.24603271484375,0.0297698974609375
1751013396787958500,1.50995849609375,-0.9834747314453125,-0.246246337890625,0.032135009765625
1751013396797901600,1.519901611328125,-0.985443115234375,-0.246429443359375,0.033477783203125
1751013396807844600,1.5298447265625,-0.98828125,-0.2467041015625,0.0333404541015625
1751013396817787600,1.53978759765625,-0.99322509765625,-0.2458648681640625,0.03387451171875
1751013396827730700,1.549730712890625,-0.992950439453125,-0.24578857421875,0.035400390625
1751013396837673700,1.559673828125,-0.9873046875,-0.2448577880859375,0.0356903076171875
1751013396847616800,1.56961669921875,-0.986480712890625,-0.24456787109375,0.037353515625
1751013396857559800,1.579559814453125,-0.9875335693359375,-0.2469024658203125,0.0385894775390625
1751013396867502600,1.589502685546875,-0.98614501953125,-0.2454833984375,0.03692626953125
1751013396877445600,1.599445556640625,-0.981536865234375,-0.2452545166015625,0.0340423583984375
1751013396887388700,1.609388671875,-0.9792938232421875,-0.246917724609375,0.0322265625
1751013396897332700,1.619332763671875,-0.982330322265625,-0.2475128173828125,0.0319366455078125
1751013396907275800,1.62927587890625,-0.9848175048828125,-0.248565673828125,0.029815673828125
1751013396917218600,1.639218505859375,-0.9820404052734375,-0.2478790283203125,0.027496337890625
1751013396927161600,1.64916162109375,-0.9788360595703125,-0.247039794921875,0.027130126953125
1751013396937104600,1.659104736328125,-0.9799957275390625,-0.245086669921875,0.02886962890625
1751013396947047700,1.669047607421875,-0.9801177978515625,-0.2444305419921875,0.029266357421875
1751013396956990500,1.678990478515625,-0.9789886474609375,-0.2438201904296875,0.028900146484375
1751013396966933500,1.68893359375,-0.9806060791015625,-0.244232177734375,0.0279083251953125
1751013396976876500,1.69887646484375,-0.9824371337890625,-0.2463531494140625,0.02947998046875
1751013396986819600,1.708819580078125,-0.9824676513671875,-0.248046875,0.02716064453125
1751013396996762600,1.7187626953125,-0.981048583984375,-0.2473297119140625,0.0239410400390625
1751013397006705400,1.728705322265625,-0.9801025390625,-0.2465972900390625,0.0254669189453125
1751013397016648400,1.7386484375,-0.9783172607421875,-0.24517822265625,0.025482177734375
1751013397026591500,1.748591552734375,-0.978057861328125,-0.2437286376953125,0.0294952392578125
1751013397036535600,1.75853564453125,-0.9776611328125,-0.2434844970703125,0.029815673828125
1751013397046478600,1.768478515625,-0.975830078125,-0.2453155517578125,0.028533935546875
1751013397056421600,1.778421630859375,-0.973602294921875,-0.2454071044921875,0.026092529296875
1751013397066364400,1.788364501953125,-0.971923828125,-0.2451324462890625,0.0264892578125
1751013397076307500,1.798307373046875,-0.9734344482421875,-0.2429351806640625,0.0282745361328125
1751013397086250500,1.80825048828125,-0.97515869140625,-0.243865966796875,0.0291290283203125
1751013397096193500,1.818193603515625,-0.9800872802734375,-0.24395751953125,0.0312652587890625
1751013397106136600,1.828136474609375,-0.9835662841796875,-0.24322509765625,0.028533935546875
1751013397116079600,1.83807958984375,-0.989013671875,-0.2422943115234375,0.0283355712890625
1751013397126022700,1.848022705078125,-0.9907684326171875,-0.24285888671875,0.0308837890625
1751013397135965700,1.857965576171875,-0.983673095703125,-0.2418060302734375,0.0280303955078125
1751013397145908500,1.867908447265625,-0.9755706787109375,-0.2431488037109375,0.0263824462890625
1751013397155852500,1.8778525390625,-0.9756927490234375,-0.2440948486328125,0.0257110595703125
1751013397165795600,1.887795654296875,-0.9807281494140625,-0.245697021484375,0.025177001953125
1751013397175738600,1.897738525390625,-0.9835052490234375,-0.245574951171875,0.0262908935546875
1751013397185681700,1.907681640625,-0.982421875,-0.2441558837890625,0.0269775390625
1751013397195624700,1.917624755859375,-0.9839324951171875,-0.24310302734375,0.0267181396484375
1751013397205567500,1.9275673828125,-0.9840850830078125,-0.243804931640625,0.02508544921875
1751013397215510500,1.937510498046875,-0.9832611083984375,-0.2442474365234375,0.0221405029296875
1751013397225453600,1.94745361328125,-0.9857635498046875,-0.2422943115234375,0.0203857421875
1751013397235396600,1.957396728515625,-0.9878387451171875,-0.24029541015625,0.0222015380859375
1751013397245339600,1.967339599609375,-0.9862213134765625,-0.238739013671875,0.0253143310546875
1751013397255282700,1.97728271484375,-0.984619140625,-0.2391815185546875,0.0247650146484375
1751013397265225700,1.987225830078125,-0.9829559326171875,-0.2397918701171875,0.024810791015625
1751013397275168800,1.997168701171875,-0.9833984375,-0.239532470703125,0.0272216796875
1751013397285112600,2.007112548828125,-0.983184814453125,-0.2401885986328125,0.0260772705078125
1751013397295055600,2.0170556640625,-0.980804443359375,-0.2413330078125,0.0263824462890625
1751013397304998700,2.02699853515625,-0.980316162109375,-0.2419281005859375,0.0242462158203125
1751013397314941400,2.03694140625,-0.9805145263671875,-0.2422027587890625,0.02435302734375
1751013397324884500,2.046884521484375,-0.9811553955078125,-0.24224853515625,0.0252532958984375
1751013397334827500,2.05682763671875,-0.9823455810546875,-0.242889404296875,0.0250701904296875
1751013397344770300,2.066770263671875,-0.9781646728515625,-0.2437286376953125,0.0274505615234375
1751013397354713300,2.07671337890625,-0.97882080078125,-0.2444000244140625,0.02459716796875
1751013397364656400,2.086656494140625,-0.98248291015625,-0.24310302734375,0.0352935791015625
1751013397374599400,2.096599365234375,-0.98309326171875,-0.2415618896484375,0.0327606201171875
1751013397384542500,2.10654248046875,-0.9824371337890625,-0.2412872314453125,0.029815673828125
1751013397394485500,2.116485595703125,-0.9837799072265625,-0.241302490234375,0.026885986328125
1751013397404428500,2.126428466796875,-0.9821624755859375,-0.2409210205078125,0.0279693603515625
1751013397414372400,2.136372314453125,-0.9827880859375,-0.241851806640625,0.0293121337890625
1751013397424315400,2.1463154296875,-0.9848785400390625,-0.241943359375,0.027862548828125
1751013397434258400,2.156258544921875,-0.9866790771484375,-0.24371337890625,0.025909423828125
1751013397444201500,2.166201416015625,-0.9862213134765625,-0.244140625,0.025787353515625
1751013397454144500,2.17614453125,-0.9871063232421875,-0.24365234375,0.026214599609375
1751013397464087600,2.186087646484375,-0.990478515625,-0.241790771484375,0.028411865234375
1751013397474030600,2.196030517578125,-0.9934234619140625,-0.2392120361328125,0.033599853515625
1751013397483973400,2.205973388671875,-0.9935455322265625,-0.238037109375,0.036956787109375
1751013397493916400,2.21591650390625,-0.988494873046875,-0.2379608154296875,0.0351715087890625
1751013397503859500,2.225859375,-0.9853973388671875,-0.2388916015625,0.0321807861328125
1751013397513802500,2.235802490234375,-0.98486328125,-0.2419281005859375,0.028076171875
1751013397523745500,2.24574560546875,-0.9837188720703125,-0.2426605224609375,0.025726318359375
1751013397533689600,2.255689697265625,-0.9817657470703125,-0.2422027587890625,0.0248260498046875
1751013397543632400,2.26563232421875,-0.9847412109375,-0.2417755126953125,0.0284423828125
1751013397553575400,2.275575439453125,-0.98699951171875,-0.2429046630859375,0.0312652587890625
1751013397563518500,2.2855185546875,-0.98486328125,-0.2451019287109375,0.032562255859375
1751013397573461500,2.29546142578125,-0.985107421875,-0.2461395263671875,0.0317535400390625
1751013397583404500,2.305404541015625,-0.9870147705078125,-0.2470703125,0.031005859375
1751013397593347600,2.31534765625,-0.9844512939453125,-0.2460174560546875,0.03106689453125
1751013397603290600,2.32529052734375,-0.9806365966796875,-0.2437286376953125,0.0307464599609375
1751013397613233700,2.335233642578125,-0.982330322265625,-0.242431640625,0.031707763671875
1751013397623176400,2.345176513671875,-0.9850616455078125,-0.2432403564453125,0.0314788818359375
1751013397633119500,2.355119384765625,-0.9844207763671875,-0.2442169189453125,0.030853271484375
1751013397643062500,2.3650625,-0.979095458984375,-0.2464447021484375,0.0266571044921875
1751013397653006600,2.375006591796875,-0.976104736328125,-0.2472076416015625,0.0251617431640625
1751013397662949600,2.38494970703125,-0.9783477783203125,-0.246856689453125,0.0286712646484375
1751013397672892700,2.394892578125,-0.9822845458984375,-0.2442474365234375,0.0311431884765625
1751013397682835500,2.40483544921875,-0.984954833984375,-0.2416534423828125,0.0341949462890625
1751013397692778500,2.414778564453125,-0.98699951171875,-0.2401580810546875,0.0361328125
1751013397702721300,2.42472119140625,-0.990478515625,-0.2379150390625,0.0367431640625
1751013397712664300,2.434664306640625,-0.9888153076171875,-0.237457275390625,0.0364227294921875
1751013397722607400,2.444607421875,-0.98492431640625,-0.2379913330078125,0.035064697265625
1751013397732550400,2.45455029296875,-0.9820709228515625,-0.2391357421875,0.031341552734375
1751013397742493400,2.464493408203125,-0.9841766357421875,-0.238372802734375,0.0289306640625
1751013397752436500,2.4744365234375,-0.9844207763671875,-0.23797607421875,0.0258636474609375
1751013397762379500,2.484379638671875,-0.9823760986328125,-0.2401275634765625,0.0251007080078125
1751013397772323300,2.4943232421875,-0.9799346923828125,-0.241058349609375,0.0239410400390625
1751013397782266400,2.504266357421875,-0.9824066162109375,-0.2417755126953125,0.0260009765625
1751013397792209400,2.51420947265625,-0.985107421875,-0.24359130859375,0.0279998779296875
1751013397802152400,2.52415234375,-0.9866180419921875,-0.2445831298828125,0.0288848876953125
1751013397812095500,2.534095458984375,-0.9868011474609375,-0.2425384521484375,0.0303192138671875
1751013397822038500,2.54403857421875,-0.98724365234375,-0.2402496337890625,0.03302001953125
1751013397831981300,2.553981201171875,-0.9875335693359375,-0.2410736083984375,0.0341339111328125
1751013397841924400,2.56392431640625,-0.9862823486328125,-0.2417449951171875,0.0336151123046875
1751013397851867400,2.573867431640625,-0.980682373046875,-0.241546630859375,0.033233642578125
1751013397861810400,2.583810546875,-0.9756317138671875,-0.243804931640625,0.0328826904296875
1751013397871753500,2.59375341796875,-0.9682769775390625,-0.2444915771484375,0.0298919677734375
1751013397881696500,2.603696533203125,-0.963104248046875,-0.24566650390625,0.0299530029296875
1751013397891640300,2.613640380859375,-0.960662841796875,-0.24591064453125,0.02880859375
1751013397901583400,2.623583251953125,-0.96258544921875,-0.2434234619140625,0.028350830078125
1751013397911526400,2.6335263671875,-0.9705963134765625,-0.2430267333984375,0.0294036865234375
1751013397921469400,2.643469482421875,-0.9818267822265625,-0.2439727783203125,0.032135009765625
1751013397931412500,2.65341259765625,-0.991851806640625,-0.238922119140625,0.0354156494140625
1751013397941355500,2.66335546875,-0.992767333984375,-0.2342987060546875,0.036834716796875
1751013397951298600,2.673298583984375,-0.99072265625,-0.233062744140625,0.0348968505859375
1751013397961241600,2.68324169921875,-0.99114990234375,-0.235137939453125,0.02984619140625
1751013397971184400,2.693184326171875,-0.99420166015625,-0.235626220703125,0.02587890625
1751013397981127400,2.70312744140625,-0.997344970703125,-0.2349853515625,0.02447509765625
1751013397991070500,2.713070556640625,-0.996124267578125,-0.23748779296875,0.0260772705078125
1751013398001014500,2.7230146484375,-0.99169921875,-0.2425384521484375,0.0233612060546875
1751013398010957600,2.73295751953125,-0.9929962158203125,-0.24542236328125,0.0240631103515625
1751013398020900600,2.742900634765625,-0.9918060302734375,-0.246856689453125,0.0247650146484375
1751013398030843400,2.752843505859375,-0.9887847900390625,-0.24603271484375,0.0260772705078125
1751013398040786400,2.762786376953125,-0.9860687255859375,-0.2452545166015625,0.0272979736328125
1751013398050729500,2.7727294921875,-0.9844818115234375,-0.245025634765625,0.0277862548828125
1751013398060672500,2.782672607421875,-0.984710693359375,-0.244354248046875,0.0283966064453125
1751013398070615600,2.792615478515625,-0.98699951171875,-0.242584228515625,0.0277862548828125
1751013398080558600,2.80255859375,-0.9864501953125,-0.2406005859375,0.0270538330078125
1751013398090501600,2.812501708984375,-0.9806060791015625,-0.240020751953125,0.0247039794921875
1751013398100444700,2.822444580078125,-0.9764862060546875,-0.2416229248046875,0.023651123046875
1751013398110387500,2.832387451171875,-0.980682373046875,-0.2416839599609375,0.022857666015625
1751013398120331500,2.84233154296875,-0.9858245849609375,-0.24072265625,0.02459716796875
1751013398130274600,2.852274658203125,-0.9852752685546875,-0.2401123046875,0.0259552001953125
1751013398140217600,2.862217529296875,-0.985260009765625,-0.2403717041015625,0.0278167724609375
1751013398150160600,2.87216064453125,-0.9824676513671875,-0.24114990234375,0.0276947021484375
1751013398160103700,2.882103759765625,-0.9839019775390625,-0.2421722412109375,0.027191162109375
1751013398170046500,2.89204638671875,-0.987152099609375,-0.2415008544921875,0.0277252197265625
1751013398179989500,2.901989501953125,-0.982330322265625,-0.2397308349609375,0.0281524658203125
1751013398189932500,2.9119326171875,-0.976318359375,-0.238250732421875,0.0297698974609375
1751013398199875300,2.921875244140625,-0.974151611328125,-0.2392730712890625,0.0305023193359375
1751013398209818400,2.931818359375,-0.97308349609375,-0.240386962890625,0.0313568115234375
1751013398219761400,2.941761474609375,-0.97552490234375,-0.2420196533203125,0.0318450927734375
1751013398229704400,2.951704345703125,-0.977294921875,-0.2434234619140625,0.0294189453125
1751013398239648500,2.9616484375,-0.97723388671875,-0.2430419921875,0.02655029296875
1751013398249591600,2.971591552734375,-0.9777984619140625,-0.2436981201171875,0.028564453125
1751013398259534300,2.981534423828125,-0.98236083984375,-0.2422637939453125,0.0320587158203125
1751013398269477400,2.991477294921875,-0.9905548095703125,-0.2411651611328125,0.034912109375
1751013398279420400,3.00142041015625,-0.99676513671875,-0.2392730712890625,0.0399169921875
1751013398289363500,3.011363525390625,-0.99578857421875,-0.23895263671875,0.0404510498046875
1751013398299306500,3.021306396484375,-0.9903717041015625,-0.241912841796875,0.035308837890625
1751013398309252900,3.0312529296875,-0.9830474853515625,-0.243896484375,0.0313262939453125
1751013398319196000,3.04119580078125,-0.9802093505859375,-0.246124267578125,0.033111572265625
1751013398329139000,3.051138916015625,-0.978363037109375,-0.24676513671875,0.0335845947265625
1751013398339082000,3.06108203125,-0.9782867431640625,-0.2467803955078125,0.0351715087890625
1751013398349026000,3.071026123046875,-0.97906494140625,-0.247528076171875,0.0369110107421875
1751013398358969000,3.080968994140625,-0.98199462890625,-0.2483673095703125,0.0372772216796875
1751013398368912000,3.090911865234375,-0.9835052490234375,-0.2472381591796875,0.0385894775390625
1751013398378855000,3.10085498046875,-0.9813385009765625,-0.24755859375,0.037261962890625
1751013398388798000,3.1107978515625,-0.9774169921875,-0.2456817626953125,0.03460693359375
1751013398398741000,3.120740966796875,-0.9833831787109375,-0.2431488037109375,0.0345916748046875
1751013398408684000,3.13068408203125,-0.98748779296875,-0.2410125732421875,0.0359344482421875
1751013398418627000,3.140626953125,-0.987701416015625,-0.240570068359375,0.035675048828125
1751013398428570000,3.150570068359375,-0.986175537109375,-0.2393951416015625,0.0340118408203125
1751013398438513200,3.16051318359375,-0.98394775390625,-0.238922119140625,0.032958984375
1751013398448456000,3.1704560546875,-0.98614501953125,-0.2394866943359375,0.0343170166015625
1751013398458399000,3.18039892578125,-0.9856719970703125,-0.2420196533203125,0.0345458984375
1751013398468343000,3.190343017578125,-0.9832000732421875,-0.2455596923828125,0.0339813232421875
1751013398478286000,3.2002861328125,-0.982208251953125,-0.245635986328125,0.03662109375
1751013398488229000,3.21022900390625,-0.9827117919921875,-0.2450408935546875,0.0399932861328125
1751013398498172200,3.220172119140625,-0.9795989990234375,-0.2448272705078125,0.039459228515625
1751013398508115000,3.230114990234375,-0.9762725830078125,-0.2451019287109375,0.037109375
1751013398518058000,3.24005810546875,-0.9780426025390625,-0.246856689453125,0.0348663330078125
1751013398528001000,3.2500009765625,-0.9763946533203125,-0.2468414306640625,0.0328521728515625
1751013398537944000,3.259944091796875,-0.9779510498046875,-0.247650146484375,0.0316925048828125
1751013398547887000,3.26988720703125,-0.980010986328125,-0.2487640380859375,0.03173828125
1751013398557830000,3.279829833984375,-0.9827117919921875,-0.2472381591796875,0.0334320068359375
1751013398567773000,3.28977294921875,-0.9840240478515625,-0.245758056640625,0.032958984375
1751013398577717000,3.299717041015625,-0.9849395751953125,-0.2453155517578125,0.0345458984375
1751013398587660000,3.309659912109375,-0.9825592041015625,-0.2469482421875,0.0347442626953125
1751013398597603000,3.31960302734375,-0.981353759765625,-0.245269775390625,0.0359649658203125
1751013398607546000,3.329546142578125,-0.9837646484375,-0.24346923828125,0.0361328125
1751013398617489000,3.339489013671875,-0.9861297607421875,-0.243255615234375,0.0361480712890625
1751013398627432000,3.349431884765625,-0.98779296875,-0.242401123046875,0.03436279296875
1751013398637375000,3.359375,-0.990447998046875,-0.24090576171875,0.034088134765625
1751013398647317800,3.36931787109375,-0.9932861328125,-0.2410888671875,0.032318115234375
1751013398657260800,3.3792607421875,-0.993682861328125,-0.24163818359375,0.0332183837890625
1751013398667203800,3.389203857421875,-0.9899749755859375,-0.243560791015625,0.0347900390625
1751013398677147000,3.39914697265625,-0.982421875,-0.245147705078125,0.0355224609375
1751013398687091000,3.409091064453125,-0.9745635986328125,-0.247314453125,0.038818359375
1751013398697034000,3.419033935546875,-0.971343994140625,-0.2509002685546875,0.0423736572265625
1751013398706976800,3.428976806640625,-0.97186279296875,-0.2525482177734375,0.0445404052734375
1751013398716919800,3.438919921875,-0.9767608642578125,-0.25140380859375,0.04339599609375
1751013398726862800,3.44886279296875,-0.9783782958984375,-0.2515869140625,0.044342041015625
1751013398736806000,3.458805908203125,-0.970947265625,-0.25347900390625,0.0417633056640625
1751013398746749000,3.4687490234375,-0.9653167724609375,-0.2558135986328125,0.03765869140625
1751013398756692000,3.47869189453125,-0.966888427734375,-0.2569580078125,0.0337982177734375
1751013398766635000,3.488635009765625,-0.968353271484375,-0.256744384765625,0.0326690673828125
1751013398776578000,3.498578125,-0.9731903076171875,-0.25555419921875,0.0304412841796875
1751013398786520800,3.508520751953125,-0.98077392578125,-0.252838134765625,0.02911376953125
1751013398796465000,3.51846484375,-0.98284912109375,-0.249786376953125,0.0273895263671875
1751013398806408000,3.528407958984375,-0.9797821044921875,-0.2488861083984375,0.0267181396484375
1751013398816351000,3.53835107421875,-0.9721832275390625,-0.2494354248046875,0.0244903564453125
1751013398826294000,3.5482939453125,-0.9694366455078125,-0.2497711181640625,0.0259552001953125
1751013398836237000,3.558237060546875,-0.969757080078125,-0.2480621337890625,0.0321807861328125
1751013398846179800,3.568179931640625,-0.97369384765625,-0.2453460693359375,0.0356903076171875
1751013398856123000,3.578122802734375,-0.979522705078125,-0.241943359375,0.038848876953125
1751013398866066000,3.58806591796875,-0.9818115234375,-0.2425384521484375,0.0374908447265625
1751013398876009000,3.598009033203125,-0.979400634765625,-0.2441864013671875,0.0373992919921875
1751013398885952000,3.607951904296875,-0.9775543212890625,-0.244140625,0.03704833984375
1751013398895895000,3.61789501953125,-0.9748992919921875,-0.24371337890625,0.03265380859375
1751013398905838800,3.6278388671875,-0.974090576171875,-0.2452239990234375,0.027130126953125
1751013398915782000,3.637781982421875,-0.978240966796875,-0.24554443359375,0.0256805419921875
1751013398925725000,3.647724853515625,-0.98175048828125,-0.2478485107421875,0.02557373046875
1751013398935668000,3.65766796875,-0.9791717529296875,-0.2473297119140625,0.028656005859375
1751013398945611000,3.667611083984375,-0.9763031005859375,-0.2470855712890625,0.0320281982421875
1751013398955554000,3.677553955078125,-0.97515869140625,-0.24615478515625,0.0347137451171875
1751013398965497000,3.6874970703125,-0.9769134521484375,-0.244598388671875,0.03692626953125
1751013398975440100,3.697440185546875,-0.98248291015625,-0.2422943115234375,0.0384368896484375
1751013398985383000,3.7073828125,-0.9869842529296875,-0.24066162109375,0.03839111328125
1751013398995326000,3.717325927734375,-0.9897918701171875,-0.2406158447265625,0.0339813232421875
1751013399005269000,3.72726904296875,-0.992340087890625,-0.239776611328125,0.02899169921875
1751013399015212000,3.7372119140625,-0.992584228515625,-0.2384033203125,0.025665283203125
1751013399025156000,3.747156005859375,-0.989471435546875,-0.23760986328125,0.022430419921875
1751013399035099100,3.75709912109375,-0.9855499267578125,-0.238189697265625,0.0191497802734375
1751013399045042000,3.7670419921875,-0.9811553955078125,-0.2411346435546875,0.0168609619140625
1751013399054985000,3.77698486328125,-0.98065185546875,-0.2443695068359375,0.0158843994140625
1751013399064928000,3.786927978515625,-0.984283447265625,-0.2446746826171875,0.0165252685546875
1751013399074871000,3.79687109375,-0.9865875244140625,-0.2420806884765625,0.0198822021484375
1751013399084814000,3.80681396484375,-0.9862060546875,-0.240325927734375,0.0230255126953125
1751013399094757000,3.816757080078125,-0.9881439208984375,-0.24163818359375,0.0287933349609375
1751013399104700200,3.8267001953125,-0.98297119140625,-0.24188232421875,0.03302001953125
1751013399114643000,3.836642822265625,-0.9775238037109375,-0.241729736328125,0.0329742431640625
1751013399124586000,3.8465859375,-0.9795684814453125,-0.24017333984375,0.033721923828125
1751013399134530000,3.856530029296875,-0.98681640625,-0.240814208984375,0.0358734130859375
1751013399144473000,3.86647314453125,-0.986602783203125,-0.2423553466796875,0.0371246337890625
1751013399154416000,3.876416015625,-0.9830169677734375,-0.24078369140625,0.0373382568359375
1751013399164359000,3.88635888671875,-0.9827117919921875,-0.24053955078125,0.038055419921875
1751013399174302000,3.896302001953125,-0.9841766357421875,-0.2419586181640625,0.0393218994140625
1751013399184245000,3.906244873046875,-0.9865570068359375,-0.2423553466796875,0.04034423828125
1751013399194187800,3.916187744140625,-0.9830780029296875,-0.2411651611328125,0.03948974609375
1751013399204130800,3.926130859375,-0.983734130859375,-0.2391510009765625,0.0386505126953125
1751013399214073900,3.936073974609375,-0.9846343994140625,-0.2365570068359375,0.03656005859375
1751013399224017000,3.946016845703125,-0.9836578369140625,-0.234619140625,0.03314208984375
1751013399233961000,3.9559609375,-0.984405517578125,-0.2315673828125,0.0326080322265625
1751013399243904000,3.965904052734375,-0.9837188720703125,-0.2276611328125,0.0321807861328125
1751013399253846800,3.9758466796875,-0.9817962646484375,-0.2281036376953125,0.0321044921875
1751013399263789800,3.985789794921875,-0.97784423828125,-0.22991943359375,0.0328521728515625
1751013399273732900,3.99573291015625,-0.9733734130859375,-0.233123779296875,0.0318450927734375
1751013399283676000,4.005676025390625,-0.9698028564453125,-0.2346343994140625,0.0312957763671875
1751013399293619000,4.015618896484375,-0.966827392578125,-0.2357940673828125,0.0316162109375
1751013399303562000,4.02556201171875,-0.9665374755859375,-0.237274169921875,0.030975341796875
1751013399313501400,4.03550146484375,-0.969573974609375,-0.235931396484375,0.0311279296875
1751013399323444500,4.045444580078125,-0.97650146484375,-0.23468017578125,0.0314483642578125
1751013399333387300,4.05538720703125,-0.98468017578125,-0.232696533203125,0.03070068359375
1751013399343331600,4.06533154296875,-0.9878997802734375,-0.2303009033203125,0.028106689453125
1751013399353274600,4.075274658203125,-0.990203857421875,-0.2302703857421875,0.02606201171875
1751013399363217700,4.0852177734375,-0.995635986328125,-0.22991943359375,0.024322509765625
1751013399373160400,4.095160400390625,-0.9972686767578125,-0.2299957275390625,0.0208740234375
1751013399383103500,4.105103515625,-0.9964599609375,-0.2323455810546875,0.0171051025390625
1751013399393046300,4.11504638671875,-0.999114990234375,-0.2355499267578125,0.0133209228515625
1751013399402989300,4.1249892578125,-0.9960479736328125,-0.23626708984375,0.0117340087890625
1751013399412932400,4.134932373046875,-0.993927001953125,-0.23297119140625,0.0101318359375
1751013399422875400,4.14487548828125,-0.998138427734375,-0.229949951171875,0.0138092041015625
1751013399432818400,4.154818359375,-1.0032196044921875,-0.228515625,0.0176239013671875
1751013399442761500,4.164761474609375,-1.0055694580078125,-0.2265472412109375,0.020172119140625
1751013399452705300,4.174705322265625,-1.004913330078125,-0.2258148193359375,0.0200653076171875
1751013399462648300,4.1846484375,-1.0028076171875,-0.2251129150390625,0.019622802734375
1751013399472591400,4.19459130859375,-0.9954071044921875,-0.22625732421875,0.0178070068359375
1751013399482534400,4.204534423828125,-0.9889373779296875,-0.2275238037109375,0.016998291015625
1751013399492477400,4.2144775390625,-0.9826812744140625,-0.2307891845703125,0.0169219970703125
1751013399502420500,4.22442041015625,-0.97833251953125,-0.2360382080078125,0.0173797607421875
1751013399512363500,4.234363525390625,-0.977783203125,-0.2388763427734375,0.0188140869140625
1751013399522306600,4.244306640625,-0.97979736328125,-0.2397003173828125,0.0228118896484375
1751013399532249300,4.254249267578125,-0.984466552734375,-0.2369232177734375,0.02587890625
1751013399542192400,4.2641923828125,-0.9893798828125,-0.2352142333984375,0.0269622802734375
1751013399552136400,4.274136474609375,-0.9932403564453125,-0.23382568359375,0.0267333984375
1751013399562079500,4.28407958984375,-0.9914398193359375,-0.2323150634765625,0.025299072265625
1751013399572022500,4.2940224609375,-0.990203857421875,-0.229888916015625,0.024017333984375
1751013399581965600,4.303965576171875,-0.9925994873046875,-0.2288360595703125,0.0252227783203125
1751013399591908400,4.313908447265625,-0.9957733154296875,-0.2262115478515625,0.0254364013671875
1751013399601851400,4.323851318359375,-0.999664306640625,-0.2240447998046875,0.026275634765625
1751013399611794400,4.33379443359375,-1.002044677734375,-0.2229766845703125,0.0277557373046875
1751013399621737500,4.343737548828125,-1.002532958984375,-0.2240447998046875,0.028961181640625
1751013399631680500,4.353680419921875,-1.000518798828125,-0.22552490234375,0.03106689453125
1751013399641623600,4.36362353515625,-0.99560546875,-0.22674560546875,0.033172607421875
1751013399651566600,4.373566650390625,-0.9931793212890625,-0.225830078125,0.0344390869140625
1751013399661510400,4.383510498046875,-0.9934844970703125,-0.224700927734375,0.0342559814453125
1751013399671453400,4.393453369140625,-0.99658203125,-0.2235870361328125,0.0360107421875
1751013399681396500,4.403396484375,-0.995513916015625,-0.2225189208984375,0.03363037109375
1751013399691339500,4.413339599609375,-0.9889068603515625,-0.2230682373046875,0.03204345703125
1751013399701282600,4.423282470703125,-0.9873199462890625,-0.2258453369140625,0.0315704345703125
1751013399711225600,4.4332255859375,-0.9870147705078125,-0.228607177734375,0.03076171875
1751013399721168600,4.443168701171875,-0.9849700927734375,-0.2306060791015625,0.031707763671875
1751013399731111400,4.453111328125,-0.9846038818359375,-0.2320404052734375,0.032958984375
1751013399741054500,4.463054443359375,-0.985931396484375,-0.2313079833984375,0.0350494384765625
1751013399750997500,4.47299755859375,-0.988525390625,-0.2292022705078125,0.03857421875
1751013399760941600,4.482941650390625,-0.99237060546875,-0.2278289794921875,0.0405426025390625
1751013399770884600,4.492884521484375,-0.9917144775390625,-0.227447509765625,0.036956787109375
1751013399780827600,4.50282763671875,-0.9942626953125,-0.22802734375,0.0336456298828125
1751013399790770400,4.5127705078125,-0.995513916015625,-0.2266998291015625,0.0345916748046875
1751013399800713500,4.52271337890625,-0.994903564453125,-0.2243804931640625,0.03509521484375
1751013399810656500,4.532656494140625,-0.9960479736328125,-0.2226715087890625,0.0341644287109375
1751013399820599600,4.542599609375,-0.9934234619140625,-0.22137451171875,0.0317840576171875
1751013399830542600,4.55254248046875,-0.9898681640625,-0.2217559814453125,0.030181884765625
1751013399840485600,4.562485595703125,-0.987396240234375,-0.2223358154296875,0.0265960693359375
1751013399850428700,4.5724287109375,-0.98687744140625,-0.2230072021484375,0.0286865234375
1751013399860372500,4.58237255859375,-0.9846649169921875,-0.225128173828125,0.03118896484375
1751013399870315500,4.5923154296875,-0.9822845458984375,-0.2267608642578125,0.035430908203125
1751013399880258600,4.602258544921875,-0.9791412353515625,-0.2272796630859375,0.0383453369140625
1751013399890201600,4.61220166015625,-0.980499267578125,-0.225982666015625,0.036407470703125
1751013399900144600,4.62214453125,-0.978607177734375,-0.2272186279296875,0.03411865234375
1751013399910087700,4.632087646484375,-0.9763336181640625,-0.2285003662109375,0.029052734375
1751013399920030500,4.642030517578125,-0.9794769287109375,-0.23004150390625,0.023681640625
1751013399929973200,4.65197314453125,-0.98126220703125,-0.232086181640625,0.020111083984375
1751013399939916300,4.661916259765625,-0.980926513671875,-0.233673095703125,0.0186767578125
1751013399949859300,4.671859375,-0.9787139892578125,-0.23541259765625,0.0205841064453125
1751013399959802400,4.68180224609375,-0.9759063720703125,-0.236724853515625,0.0208740234375
1751013399969746700,4.69174658203125,-0.9700927734375,-0.237091064453125,0.019287109375
1751013399979689500,4.701689453125,-0.9669189453125,-0.237060546875,0.0190277099609375
1751013399989632300,4.71163232421875,-0.966552734375,-0.23785400390625,0.0192718505859375
1751013399999575300,4.7215751953125,-0.9723663330078125,-0.2382049560546875,0.0196685791015625
1751013400009518300,4.731518310546875,-0.981475830078125,-0.2368011474609375,0.0243377685546875
1751013400019461400,4.74146142578125,-0.9904632568359375,-0.2321929931640625,0.031219482421875
1751013400029404400,4.751404296875,-0.997161865234375,-0.2306671142578125,0.0344390869140625
1751013400039347500,4.761347412109375,-0.998046875,-0.2298431396484375,0.0336456298828125
1751013400049290500,4.77129052734375,-0.99639892578125,-0.22918701171875,0.02728271484375
1751013400059233500,4.781233642578125,-0.997406005859375,-0.2253265380859375,0.0247650146484375
1751013400069177300,4.79117724609375,-0.9980926513671875,-0.2228546142578125,0.02325439453125
1751013400079120400,4.801120361328125,-0.9919891357421875,-0.225006103515625,0.02154541015625
1751013400089063400,4.8110634765625,-0.9868621826171875,-0.2273712158203125,0.0191802978515625
1751013400099006500,4.82100634765625,-0.984527587890625,-0.22967529296875,0.0181732177734375
1751013400108949500,4.830949462890625,-0.9830322265625,-0.2299652099609375,0.0194549560546875
1751013400118892500,4.840892578125,-0.980438232421875,-0.2312164306640625,0.021514892578125
1751013400128835300,4.85083544921875,-0.97662353515625,-0.2315673828125,0.0239105224609375
1751013400138778400,4.8607783203125,-0.97918701171875,-0.2299652099609375,0.0260009765625
1751013400148721400,4.870721435546875,-0.977294921875,-0.2317657470703125,0.027069091796875
1751013400158664400,4.88066455078125,-0.98114013671875,-0.229217529296875,0.02520751953125
1751013400168608500,4.8906083984375,-0.9847412109375,-0.2282562255859375,0.0262451171875
1751013400178551600,4.900551513671875,-0.982940673828125,-0.228668212890625,0.0289459228515625
1751013400188494300,4.910494384765625,-0.9822998046875,-0.22930908203125,0.0301971435546875
1751013400198437400,4.920437255859375,-0.9770355224609375,-0.2312774658203125,0.028900146484375
1751013400208380400,4.93038037109375,-0.976470947265625,-0.23358154296875,0.0287322998046875
1751013400218323500,4.940323486328125,-0.9788970947265625,-0.2352447509765625,0.0294647216796875
1751013400228266500,4.9502666015625,-0.98358154296875,-0.2379150390625,0.0297393798828125
1751013400238209500,4.96020947265625,-0.9872283935546875,-0.2408447265625,0.0308685302734375
1751013400248152600,4.970152587890625,-0.98663330078125,-0.240875244140625,0.0323486328125
1751013400258095600,4.980095703125,-0.9888458251953125,-0.2414093017578125,0.0348358154296875
1751013400268038400,4.990038330078125,-0.991790771484375,-0.2375640869140625,0.038665771484375
1751013400277982500,4.999982421875,-0.9946136474609375,-0.2357025146484375,0.0413360595703125
1751013400287925500,5.009925537109375,-0.9998626708984375,-0.235107421875,0.0422210693359375
1751013400297868500,5.01986865234375,-0.9979095458984375,-0.2330169677734375,0.04052734375
1751013400307811600,5.0298115234375,-0.997344970703125,-0.2315826416015625,0.0420074462890625
1751013400317755100,5.039755126953125,-0.9917144775390625,-0.2306365966796875,0.0431671142578125
1751013400327698200,5.0496982421875,-0.9877471923828125,-0.230560302734375,0.041656494140625
1751013400337641200,5.05964111328125,-0.9890594482421875,-0.2325286865234375,0.0390167236328125
1751013400347584300,5.069584228515625,-0.989471435546875,-0.2363128662109375,0.0352325439453125
1751013400357527300,5.07952734375,-0.9889373779296875,-0.2377777099609375,0.0303497314453125
1751013400367470300,5.08947021484375,-0.9859161376953125,-0.239105224609375,0.0262298583984375
1751013400377414100,5.0994140625,-0.9824676513671875,-0.2389984130859375,0.0246734619140625
1751013400387357200,5.109357177734375,-0.9810333251953125,-0.2376251220703125,0.0252685546875
1751013400397300200,5.11930029296875,-0.983184814453125,-0.2371368408203125,0.0272674560546875
1751013400407243300,5.1292431640625,-0.9830780029296875,-0.2353668212890625,0.028717041015625
1751013400417186300,5.139186279296875,-0.9841766357421875,-0.23162841796875,0.0290374755859375
1751013400427129300,5.14912939453125,-0.985260009765625,-0.2294158935546875,0.0280303955078125
1751013400437072400,5.159072265625,-0.9866943359375,-0.227325439453125,0.029052734375
1751013400447015200,5.16901513671875,-0.9842681884765625,-0.2269287109375,0.0289459228515625
1751013400456958200,5.178958251953125,-0.981536865234375,-0.2274017333984375,0.0261688232421875
1751013400466901200,5.1889013671875,-0.9786224365234375,-0.230316162109375,0.0240325927734375
1751013400476845300,5.19884521484375,-0.9777984619140625,-0.2337493896484375,0.0208740234375
1751013400486788400,5.208788330078125,-0.97796630859375,-0.2350616455078125,0.017303466796875
1751013400496731400,5.2187314453125,-0.9823455810546875,-0.23443603515625,0.0185546875
1751013400506674200,5.228674072265625,-0.9889984130859375,-0.2321014404296875,0.0212554931640625
1751013400516617200,5.2386171875,-0.998046875,-0.2284088134765625,0.022430419921875
1751013400526560300,5.248560302734375,-1.003997802734375,-0.2269287109375,0.0239105224609375
1751013400536503300,5.25850341796875,-1.0041656494140625,-0.2266845703125,0.01934814453125
1751013400546446300,5.2684462890625,-1.0018310546875,-0.228302001953125,0.0153961181640625
1751013400556389400,5.278389404296875,-1,-0.2285919189453125,0.0118560791015625
1751013400566332400,5.28833251953125,-0.99847412109375,-0.228240966796875,0.0088958740234375
1751013400576276200,5.298276123046875,-0.9985198974609375,-0.2285308837890625,0.0096893310546875
1751013400586219300,5.30821923828125,-1.001617431640625,-0.229034423828125,0.007904052734375
1751013400596162300,5.318162353515625,-0.9923553466796875,-0.22650146484375,0.0057525634765625
1751013400606105300,5.328105224609375,-0.9757537841796875,-0.226959228515625,0.007232666015625
1751013400616048400,5.33804833984375,-0.9641876220703125,-0.232177734375,0.0106201171875
1751013400625991200,5.3479912109375,-0.953094482421875,-0.23919677734375,0.013336181640625
1751013400635934200,5.357934326171875,-0.94366455078125,-0.24530029296875,0.02081298828125
1751013400645877200,5.367877197265625,-0.9437103271484375,-0.250762939453125,0.022796630859375
1751013400655820000,5.377820068359375,-0.948394775390625,-0.256439208984375,0.0248870849609375
1751013400665763000,5.38776318359375,-0.9589080810546875,-0.2568817138671875,0.0272064208984375
1751013400675707400,5.397707275390625,-0.964508056640625,-0.2550811767578125,0.0284576416015625
1751013400685650200,5.407650146484375,-0.9700775146484375,-0.2544708251953125,0.0310516357421875
1751013400695593200,5.41759326171875,-0.9768524169921875,-0.2506561279296875,0.0358428955078125
1751013400705536000,5.427535888671875,-0.980621337890625,-0.2465057373046875,0.0399627685546875
1751013400715479000,5.43747900390625,-0.9837799072265625,-0.2455596923828125,0.0399627685546875
1751013400725422000,5.447422119140625,-0.9904022216796875,-0.24456787109375,0.0404815673828125
1751013400735365000,5.457365234375,-0.9979248046875,-0.2431488037109375,0.0439910888671875
1751013400745308200,5.46730810546875,-1.0080413818359375,-0.2422637939453125,0.0418701171875
1751013400755251200,5.477251220703125,-1.011322021484375,-0.2440032958984375,0.040191650390625
1751013400765194200,5.4871943359375,-1.0118408203125,-0.2392120361328125,0.0284576416015625
1751013400775138000,5.497137939453125,-1.0164642333984375,-0.2324981689453125,0.024505615234375
1751013400785081000,5.5070810546875,-1.03076171875,-0.2263641357421875,0.0218658447265625
1751013400795024100,5.517024169921875,-1.0383148193359375,-0.2243804931640625,0.019744873046875
1751013400804967200,5.52696728515625,-1.0331878662109375,-0.2220458984375,0.01788330078125
1751013400814910200,5.53691015625,-1.0241546630859375,-0.22076416015625,0.015960693359375
1751013400824853200,5.546853271484375,-1.011260986328125,-0.2197723388671875,0.014617919921875
1751013400834796300,5.55679638671875,-0.9962310791015625,-0.21942138671875,0.014678955078125
1751013400844739000,5.566739013671875,-0.98516845703125,-0.2180328369140625,0.016326904296875
1751013400854682000,5.57668212890625,-0.9774322509765625,-0.219085693359375,0.021453857421875
1751013400864625200,5.586625244140625,-0.9694976806640625,-0.22259521484375,0.02557373046875
1751013400874569200,5.5965693359375,-0.9633636474609375,-0.2282867431640625,0.02667236328125
1751013400884512300,5.60651220703125,-0.95684814453125,-0.2352752685546875,0.0255126953125
1751013400894455300,5.616455322265625,-0.9489288330078125,-0.23455810546875,0.0268402099609375
1751013400904398000,5.626398193359375,-0.947845458984375,-0.2291107177734375,0.033660888671875
1751013400914341000,5.636341064453125,-0.953643798828125,-0.2295684814453125,0.0364990234375
1751013400924284200,5.6462841796875,-0.95648193359375,-0.2325592041015625,0.0381317138671875
1751013400934227200,5.656227294921875,-0.9600067138671875,-0.2330169677734375,0.0372161865234375
1751013400944170200,5.666170166015625,-0.9656219482421875,-0.2334747314453125,0.0391693115234375
1751013400954113300,5.67611328125,-0.9724884033203125,-0.2324981689453125,0.0404052734375
1751013400964056300,5.686056396484375,-0.979705810546875,-0.229400634765625,0.0423431396484375
1751013400974000000,5.696000244140625,-0.9870758056640625,-0.229095458984375,0.0411529541015625
1751013400983943200,5.705943115234375,-0.991912841796875,-0.2315521240234375,0.0409393310546875
1751013400993886200,5.71588623046875,-0.99493408203125,-0.232696533203125,0.037506103515625
1751013401003829200,5.725829345703125,-0.996612548828125,-0.2351531982421875,0.033233642578125
1751013401013772300,5.735772216796875,-1.0018463134765625,-0.239898681640625,0.0283966064453125
1751013401023715300,5.74571533203125,-1.002471923828125,-0.2422943115234375,0.0242156982421875
1751013401033658400,5.755658447265625,-1.0020904541015625,-0.2407073974609375,0.0203094482421875
1751013401043601200,5.76560107421875,-1.00372314453125,-0.2408599853515625,0.0166473388671875
1751013401053544200,5.775544189453125,-1.005157470703125,-0.24163818359375,0.0173797607421875
1751013401063487200,5.7854873046875,-1.0027618408203125,-0.24212646484375,0.0181732177734375
1751013401073431300,5.795431396484375,-1.004852294921875,-0.2429962158203125,0.0169219970703125
1751013401083374300,5.805374267578125,-1.007476806640625,-0.244659423828125,0.0185546875
1751013401093317400,5.8153173828125,-1.010101318359375,-0.2453460693359375,0.022735595703125
1751013401103260200,5.82526025390625,-1.0028839111328125,-0.244598388671875,0.0240936279296875
1751013401113203200,5.835203125,-0.99560546875,-0.2452850341796875,0.0235748291015625
1751013401123146200,5.845146240234375,-0.9918670654296875,-0.2477569580078125,0.017852783203125
1751013401133089300,5.85508935546875,-0.9881744384765625,-0.250732421875,0.0139617919921875
1751013401143032300,5.8650322265625,-0.98309326171875,-0.252197265625,0.0139617919921875
1751013401152975400,5.874975341796875,-0.9829254150390625,-0.2568817138671875,0.014862060546875
1751013401162918400,5.88491845703125,-0.983001708984375,-0.2599945068359375,0.0074615478515625
1751013401172862200,5.8948623046875,-0.975067138671875,-0.2598724365234375,0.0102996826171875
1751013401182805200,5.90480517578125,-0.976593017578125,-0.2680816650390625,0.014495849609375
1751013401192748300,5.914748291015625,-0.954437255859375,-0.2787017822265625,0.015869140625
1751013401202691300,5.92469140625,-0.93878173828125,-0.2856292724609375,0.01312255859375
1751013401212634400,5.93463427734375,-0.9765472412109375,-0.2672576904296875,-0.016357421875
1751013401222577400,5.944577392578125,-0.9615631103515625,-0.2770843505859375,0.0062713623046875
1751013401232520400,5.9545205078125,-0.9705352783203125,-0.19757080078125,-0.0290679931640625
1751013401242463200,5.964463134765625,-1.0211181640625,-0.2197418212890625,-0.0389862060546875
1751013401252406000,5.974406005859375,-1.0406036376953125,-0.226654052734375,0.0139923095703125
1751013401262349000,5.98434912109375,-1.047332763671875,-0.2100677490234375,0.0323028564453125
1751013401272293400,5.99429345703125,-1.029327392578125,-0.205841064453125,0.0106048583984375
1751013401282236400,6.004236328125,-1.0047607421875,-0.21417236328125,0.0033721923828125
1751013401292179200,6.01417919921875,-1.011871337890625,-0.2132568359375,0.01751708984375
1751013401302122200,6.024122314453125,-1.0186767578125,-0.20916748046875,0.0301055908203125
1751013401312064800,6.034064697265625,-1.0064239501953125,-0.2109375,0.0383453369140625
1751013401322007600,6.044007568359375,-0.991180419921875,-0.2180023193359375,0.034942626953125
1751013401331950600,6.05395068359375,-0.973114013671875,-0.2201690673828125,0.02740478515625
1751013401341893600,6.0638935546875,-0.9592132568359375,-0.224609375,0.0189666748046875
1751013401351836700,6.073836669921875,-0.9515228271484375,-0.2326507568359375,0.0113067626953125
1751013401361779700,6.08377978515625,-0.94677734375,-0.2410736083984375,0.0091094970703125
1751013401371723800,6.093723876953125,-0.9361572265625,-0.25225830078125,0.0152740478515625
1751013401381666600,6.10366650390625,-0.9259796142578125,-0.26513671875,0.0221710205078125
1751013401391609600,6.113609619140625,-0.9179229736328125,-0.2754669189453125,0.02838134765625
1751013401401552600,6.123552734375,-0.911285400390625,-0.284576416015625,0.037841796875
1751013401411495700,6.13349560546875,-0.906707763671875,-0.291351318359375,0.0515594482421875
1751013401421438700,6.143438720703125,-0.9008026123046875,-0.2983856201171875,0.0663299560546875
1751013401431381800,6.1533818359375,-0.89825439453125,-0.306549072265625,0.0826568603515625
1751013401441324800,6.16332470703125,-0.9027252197265625,-0.30950927734375,0.0861053466796875
1751013401451267600,6.173267578125,-0.9115447998046875,-0.3108367919921875,0.07403564453125
1751013401461210400,6.18321044921875,-0.9205780029296875,-0.309112548828125,0.063323974609375
1751013401471154700,6.19315478515625,-0.93951416015625,-0.305419921875,0.0598602294921875
1751013401481097700,6.20309765625,-0.96038818359375,-0.3011474609375,0.0647125244140625
1751013401491040800,6.213040771484375,-0.9768829345703125,-0.2928314208984375,0.073211669921875
1751013401500983800,6.22298388671875,-0.9896240234375,-0.2786407470703125,0.0759124755859375
1751013401510926600,6.232926513671875,-0.9970703125,-0.259521484375,0.072845458984375
1751013401520869400,6.242869384765625,-1.00946044921875,-0.242431640625,0.0671234130859375
1751013401530812400,6.2528125,-1.0233306884765625,-0.2280731201171875,0.0638885498046875
1751013401540755500,6.26275537109375,-1.0310821533203125,-0.2149658203125,0.060577392578125
1751013401550698500,6.272698486328125,-1.0338897705078125,-0.2063446044921875,0.0499725341796875
1751013401560641500,6.2826416015625,-1.0391998291015625,-0.198974609375,0.0419769287109375
1751013401570585600,6.292585693359375,-1.0386962890625,-0.1930389404296875,0.032470703125
1751013401580528400,6.3025283203125,-1.0386199951171875,-0.187042236328125,0.02520751953125
1751013401590471400,6.312471435546875,-1.040252685546875,-0.18585205078125,0.0201263427734375
1751013401600414500,6.32241455078125,-1.0474853515625,-0.1870269775390625,0.01904296875
1751013401610357500,6.332357421875,-1.0568084716796875,-0.19085693359375,0.018402099609375
1751013401620300500,6.342300537109375,-1.0553741455078125,-0.1933135986328125,0.0140380859375
1751013401630243600,6.35224365234375,-1.046844482421875,-0.1936798095703125,0.0062255859375
1751013401640186600,6.3621865234375,-1.0366973876953125,-0.1961212158203125,0.001251220703125
1751013401650129700,6.372129638671875,-1.027587890625,-0.200775146484375,0.002410888671875
1751013401660073500,6.382073486328125,-1.0153961181640625,-0.2044525146484375,0.0009765625
1751013401670016500,6.3920166015625,-1.001983642578125,-0.205657958984375,0.000518798828125
1751013401679959600,6.40195947265625,-0.989288330078125,-0.209075927734375,0.00262451171875
1751013401689902600,6.411902587890625,-0.9783477783203125,-0.2146453857421875,0.0119781494140625
1751013401699845600,6.421845703125,-0.97015380859375,-0.2160797119140625,0.02178955078125
1751013401709788700,6.43178857421875,-0.96173095703125,-0.2183380126953125,0.028900146484375
1751013401719731500,6.4417314453125,-0.9583587646484375,-0.2205963134765625,0.0336761474609375
1751013401729674500,6.451674560546875,-0.9560699462890625,-0.223175048828125,0.03350830078125
1751013401739617500,6.461617431640625,-0.9559326171875,-0.227691650390625,0.0310516357421875
1751013401749560600,6.471560546875,-0.951751708984375,-0.2316741943359375,0.0323638916015625
1751013401759504600,6.481504638671875,-0.9459991455078125,-0.2335205078125,0.0362548828125
1751013401769447700,6.49144775390625,-0.9432830810546875,-0.2363739013671875,0.0394287109375
1751013401779390500,6.501390380859375,-0.939361572265625,-0.24188232421875,0.04193115234375
1751013401789333500,6.51133349609375,-0.933746337890625,-0.247467041015625,0.03912353515625
1751013401799276500,6.521276611328125,-0.93048095703125,-0.2498779296875,0.0361328125
1751013401809219600,6.531219482421875,-0.933197021484375,-0.2517547607421875,0.03582763671875
1751013401819162600,6.54116259765625,-0.9396209716796875,-0.25299072265625,0.04193115234375
1751013401829105700,6.551105712890625,-0.9480438232421875,-0.2517242431640625,0.04913330078125
1751013401839048700,6.561048583984375,-0.9607696533203125,-0.2458648681640625,0.0587005615234375
1751013401848992500,6.570992431640625,-0.9834442138671875,-0.2392730712890625,0.0648040771484375
1751013401858935600,6.580935546875,-1.003143310546875,-0.2330322265625,0.0714569091796875
1751013401868878600,6.590878662109375,-1.0186309814453125,-0.224365234375,0.069427490234375
1751013401878821600,6.600821533203125,-1.0305023193359375,-0.211273193359375,0.0578765869140625
1751013401888764700,6.6107646484375,-1.035400390625,-0.2062225341796875,0.0602264404296875
1751013401898707700,6.620707763671875,-1.034759521484375,-0.2135772705078125,0.0597991943359375
1751013401908650800,6.630650634765625,-1.0248565673828125,-0.2164306640625,0.051361083984375
1751013401918593500,6.640593505859375,-1.0117645263671875,-0.2107391357421875,0.04119873046875
1751013401928536600,6.65053662109375,-1.009307861328125,-0.205841064453125,0.0394134521484375
1751013401938479600,6.660479736328125,-1.0156402587890625,-0.2049713134765625,0.0451812744140625
1751013401948423700,6.670423583984375,-1.0163421630859375,-0.20892333984375,0.058013916015625
1751013401958366700,6.68036669921875,-1.007843017578125,-0.21258544921875,0.066162109375
1751013401968309800,6.690309814453125,-0.99188232421875,-0.2138214111328125,0.069732666015625
1751013401978252500,6.70025244140625,-0.9787750244140625,-0.2167816162109375,0.073516845703125
1751013401988195600,6.710195556640625,-0.97235107421875,-0.222412109375,0.073883056640625
1751013401998138600,6.720138671875,-0.964996337890625,-0.2255401611328125,0.0703887939453125
1751013402008081700,6.73008154296875,-0.9611663818359375,-0.2273101806640625,0.071807861328125
1751013402018024700,6.740024658203125,-0.963348388671875,-0.23309326171875,0.0742950439453125
1751013402027967700,6.7499677734375,-0.9683685302734375,-0.2359466552734375,0.072906494140625
1751013402037911600,6.75991162109375,-0.9725341796875,-0.232635498046875,0.066802978515625
1751013402047854600,6.7698544921875,-0.9777984619140625,-0.2277069091796875,0.0572662353515625
1751013402057797600,6.779797607421875,-0.98358154296875,-0.2248687744140625,0.0506439208984375
1751013402067740700,6.78974072265625,-0.9938507080078125,-0.223480224609375,0.0508270263671875
1751013402077683700,6.79968359375,-0.99853515625,-0.2237548828125,0.0527191162109375
1751013402087626800,6.809626708984375,-0.9947509765625,-0.2235565185546875,0.0551910400390625
1751013402097569800,6.81956982421875,-0.98968505859375,-0.2234039306640625,0.0552215576171875
1751013402107512800,6.829512939453125,-0.9874725341796875,-0.2253570556640625,0.0523223876953125
1751013402117455400,6.839455322265625,-0.9875030517578125,-0.22802734375,0.0508575439453125
1751013402127398400,6.8493984375,-0.985595703125,-0.231170654296875,0.0496368408203125
1751013402137342700,6.8593427734375,-0.9939117431640625,-0.23004150390625,0.04638671875
1751013402147285800,6.86928564453125,-1.0023345947265625,-0.229705810546875,0.0418243408203125
1751013402157228800,6.879228759765625,-0.9996490478515625,-0.23101806640625,0.041748046875
1751013402167171800,6.889171875,-0.9931182861328125,-0.2314300537109375,0.0471343994140625
1751013402177114400,6.8991142578125,-0.979400634765625,-0.2297515869140625,0.048583984375
1751013402187057400,6.909057373046875,-0.9774017333984375,-0.2284088134765625,0.0518341064453125
1751013402197000400,6.91900048828125,-0.974365234375,-0.23046875,0.0555572509765625
1751013402206943500,6.928943603515625,-0.972259521484375,-0.2284088134765625,0.0566253662109375
1751013402216886500,6.938886474609375,-0.97418212890625,-0.2263336181640625,0.057647705078125
1751013402226830600,6.94883056640625,-0.97723388671875,-0.22564697265625,0.0590057373046875
1751013402236773400,6.9587734375,-0.977752685546875,-0.2263946533203125,0.056182861328125
1751013402246716400,6.96871630859375,-0.9788665771484375,-0.2262725830078125,0.0518341064453125
1751013402256659500,6.978659423828125,-0.9785003662109375,-0.226409912109375,0.0480499267578125
1751013402266602500,6.9886025390625,-0.97564697265625,-0.2272491455078125,0.0468902587890625
1751013402276545500,6.998545654296875,-0.974273681640625,-0.2285919189453125,0.046173095703125
1751013402286488600,7.008488525390625,-0.974151611328125,-0.230499267578125,0.0425872802734375
1751013402296431600,7.018431640625,-0.97259521484375,-0.2341461181640625,0.042266845703125
1751013402306374700,7.028374755859375,-0.9730224609375,-0.238311767578125,0.03997802734375
1751013402316318000,7.03831787109375,-0.9712066650390625,-0.24041748046875,0.0397186279296875
1751013402326261000,7.048260986328125,-0.9697418212890625,-0.2407684326171875,0.0408172607421875
1751013402336204000,7.0582041015625,-0.9671478271484375,-0.2401885986328125,0.0423583984375
1751013402346147000,7.06814697265625,-0.96685791015625,-0.239105224609375,0.045562744140625
1751013402356090000,7.078090087890625,-0.9703521728515625,-0.2376708984375,0.0490264892578125
1751013402366033200,7.088033203125,-0.9715423583984375,-0.23809814453125,0.0494842529296875
1751013402375976200,7.09797607421875,-0.9700164794921875,-0.2379302978515625,0.0504302978515625
1751013402385919000,7.1079189453125,-0.970123291015625,-0.2371063232421875,0.053680419921875
1751013402395862000,7.117862060546875,-0.9707489013671875,-0.2336273193359375,0.0548858642578125
1751013402405806000,7.12780615234375,-0.97161865234375,-0.2303314208984375,0.0532379150390625
1751013402415749000,7.1377490234375,-0.9757843017578125,-0.22552490234375,0.056060791015625
1751013402425692200,7.147692138671875,-0.98004150390625,-0.2206878662109375,0.0569610595703125
1751013402435635200,7.15763525390625,-0.9781341552734375,-0.218048095703125,0.059783935546875
1751013402445578000,7.167577880859375,-0.9747314453125,-0.217681884765625,0.0611572265625
1751013402455521000,7.17752099609375,-0.975830078125,-0.21826171875,0.05828857421875
1751013402465464000,7.187464111328125,-0.974334716796875,-0.2167205810546875,0.0538787841796875
1751013402475407000,7.197406982421875,-0.9763336181640625,-0.2137603759765625,0.05169677734375
1751013402485350100,7.20735009765625,-0.98486328125,-0.2164764404296875,0.052215576171875
1751013402495293200,7.217293212890625,-0.9916534423828125,-0.221649169921875,0.0517730712890625
1751013402505237000,7.227237060546875,-0.9930877685546875,-0.2221527099609375,0.0491485595703125
1751013402515180000,7.237179931640625,-0.997802734375,-0.2217559814453125,0.0452423095703125
1751013402525123000,7.247123046875,-1.0011138916015625,-0.22125244140625,0.0430145263671875
1751013402535066000,7.257066162109375,-1.0026092529296875,-0.2186737060546875,0.041717529296875
1751013402545009200,7.267009033203125,-1.0032196044921875,-0.217041015625,0.0413055419921875
1751013402554952200,7.2769521484375,-0.998321533203125,-0.2186431884765625,0.0428924560546875
1751013402564895200,7.286895263671875,-0.9942169189453125,-0.2203216552734375,0.0441131591796875
1751013402574838300,7.29683837890625,-0.9917755126953125,-0.2178802490234375,0.0482940673828125
1751013402584781000,7.306781005859375,-0.9872894287109375,-0.2162628173828125,0.051788330078125
1751013402594725000,7.31672509765625,-0.983673095703125,-0.216766357421875,0.05279541015625
1751013402604668200,7.326668212890625,-0.9793243408203125,-0.2181549072265625,0.057464599609375
1751013402614611200,7.336611083984375,-0.9770355224609375,-0.218109130859375,0.0593414306640625
1751013402624554200,7.34655419921875,-0.9768524169921875,-0.215240478515625,0.060211181640625
1751013402634497300,7.356497314453125,-0.978729248046875,-0.214080810546875,0.06207275390625
1751013402644440000,7.366440185546875,-0.9827423095703125,-0.2154083251953125,0.06317138671875
1751013402654383000,7.376383056640625,-0.988311767578125,-0.21539306640625,0.06256103515625
1751013402664326100,7.386326171875,-0.9932098388671875,-0.2108612060546875,0.059661865234375
1751013402674270200,7.396270263671875,-0.99639892578125,-0.20855712890625,0.0571441650390625
1751013402684213200,7.406213134765625,-0.9950714111328125,-0.21099853515625,0.048065185546875
1751013402694156300,7.41615625,-0.995025634765625,-0.211700439453125,0.0381011962890625
1751013402704099000,7.42609912109375,-0.9991912841796875,-0.20843505859375,0.04339599609375
1751013402714042000,7.4360419921875,-1.0005340576171875,-0.20965576171875,0.043701171875
1751013402723985200,7.445985107421875,-0.99566650390625,-0.2125701904296875,0.0386810302734375
1751013402733928200,7.45592822265625,-0.9879913330078125,-0.213043212890625,0.037567138671875
1751013402743871200,7.465871337890625,-0.9887542724609375,-0.21429443359375,0.041900634765625
1751013402753814000,7.47581396484375,-0.989349365234375,-0.2173614501953125,0.0447845458984375
1751013402763758000,7.485758056640625,-1.000457763671875,-0.2137451171875,0.046661376953125
1751013402773701000,7.495701171875,-1.0410919189453125,-0.2046661376953125,0.0431365966796875
1751013402783644200,7.50564404296875,-1.006866455078125,-0.213348388671875,0.0308380126953125
1751013402793587200,7.515587158203125,-0.9839630126953125,-0.2161102294921875,0.0516357421875
1751013402803530200,7.5255302734375,-1.0107879638671875,-0.20819091796875,0.0574951171875
1751013402813473000,7.53547314453125,-1.0134735107421875,-0.2065582275390625,0.0575714111328125
1751013402823416000,7.545416015625,-1.001373291015625,-0.20892333984375,0.0576934814453125
1751013402833359000,7.555359130859375,-0.9913787841796875,-0.21087646484375,0.0691986083984375
1751013402843302000,7.565302001953125,-1.002899169921875,-0.21795654296875,0.0730133056640625
1751013402853246200,7.57524609375,-1.00439453125,-0.215240478515625,0.071929931640625
1751013402863189000,7.58518896484375,-0.997467041015625,-0.213623046875,0.070068359375
1751013402873132000,7.595132080078125,-0.99114990234375,-0.2163238525390625,0.0693359375
1751013402883075000,7.605074951171875,-0.9951324462890625,-0.21697998046875,0.065093994140625
1751013402893018000,7.61501806640625,-0.99993896484375,-0.2149658203125,0.0582122802734375
1751013402902961000,7.6249609375,-1.002960205078125,-0.21160888671875,0.055511474609375
1751013402912904000,7.634904052734375,-1.005279541015625,-0.207733154296875,0.0542755126953125
1751013402922847000,7.644846923828125,-1.007415771484375,-0.203094482421875,0.05657958984375
1751013402932790000,7.6547900390625,-1.0093994140625,-0.197662353515625,0.060394287109375
1751013402942734000,7.664734130859375,-1.0059661865234375,-0.1952972412109375,0.06219482421875
1751013402952677000,7.674677001953125,-1.0016326904296875,-0.197174072265625,0.0620574951171875
1751013402962620000,7.684619873046875,-1.000701904296875,-0.1965789794921875,0.0617828369140625
1751013402972563000,7.69456298828125,-0.9974822998046875,-0.2021484375,0.05682373046875
1751013402982506000,7.704506103515625,-0.9952392578125,-0.2064666748046875,0.0536041259765625
1751013402992449000,7.714448974609375,-0.99151611328125,-0.2030792236328125,0.0512542724609375
1751013403002392000,7.72439208984375,-0.9858856201171875,-0.2001190185546875,0.0484771728515625
1751013403012335000,7.734335205078125,-0.9935455322265625,-0.198883056640625,0.047149658203125
1751013403022278100,7.744278076171875,-0.99859619140625,-0.201629638671875,0.0465087890625
1751013403032222000,7.754221923828125,-0.9965667724609375,-0.1998291015625,0.0491485595703125
1751013403042165000,7.7641650390625,-0.9983062744140625,-0.199737548828125,0.050689697265625
1751013403052108000,7.77410791015625,-1.000579833984375,-0.2005157470703125,0.052398681640625
1751013403062051000,7.784051025390625,-1.0045623779296875,-0.2006988525390625,0.0537109375
1751013403071994000,7.793994140625,-1.0103759765625,-0.2024078369140625,0.05377197265625
1751013403081937200,7.803937255859375,-1.007904052734375,-0.202667236328125,0.055419921875
1751013403091880200,7.813880126953125,-1.000823974609375,-0.20501708984375,0.0597991943359375
1751013403101823000,7.823822998046875,-0.9915313720703125,-0.20611572265625,0.0602264404296875
1751013403111767000,7.83376708984375,-0.988189697265625,-0.2068634033203125,0.0588531494140625
1751013403121710000,7.8437099609375,-0.9834747314453125,-0.2076263427734375,0.0573883056640625
1751013403131653000,7.853653076171875,-0.9805450439453125,-0.208282470703125,0.0576629638671875
1751013403141596200,7.86359619140625,-0.9767303466796875,-0.2088623046875,0.057891845703125
1751013403151539200,7.873539306640625,-0.9732818603515625,-0.210113525390625,0.0550079345703125
1751013403161482000,7.88348193359375,-0.9705963134765625,-0.2117919921875,0.039031982421875
1751013403171425000,7.893425048828125,-0.968902587890625,-0.225311279296875,0.034423828125
1751013403181368000,7.9033681640625,-0.9618377685546875,-0.2389068603515625,0.0673370361328125
1751013403191311000,7.91331103515625,-0.9574127197265625,-0.2326507568359375,0.0574188232421875
1751013403201255200,7.923255126953125,-0.9659576416015625,-0.2319488525390625,0.0403594970703125
1751013403211198200,7.9331982421875,-0.97283935546875,-0.232086181640625,0.05078125
1751013403221141000,7.94314111328125,-0.9689178466796875,-0.2247467041015625,0.061981201171875
1751013403231084000,7.953083984375,-0.96649169921875,-0.216949462890625,0.0657806396484375
1751013403241027000,7.963027099609375,-0.968475341796875,-0.2169036865234375,0.062744140625
1751013403250970000,7.97297021484375,-0.9700775146484375,-0.2228546142578125,0.0546875
1751013403260913200,7.9829130859375,-0.972381591796875,-0.22515869140625,0.055267333984375
1751013403270856200,7.992856201171875,-0.9752197265625,-0.2252349853515625,0.0546722412109375
1751013403280799200,8.00279931640625,-0.9810638427734375,-0.2242889404296875,0.0547943115234375
1751013403290743000,8.012742919921875,-0.988616943359375,-0.2245635986328125,0.0534515380859375
1751013403300686000,8.02268603515625,-0.9891510009765625,-0.2223663330078125,0.05120849609375
1751013403310629000,8.032629150390624,-0.9873046875,-0.2182159423828125,0.0529632568359375
1751013403320573700,8.04257373046875,-0.9866790771484375,-0.213104248046875,0.055938720703125
1751013403330516700,8.052516845703124,-0.9882965087890625,-0.21148681640625,0.0553741455078125
1751013403340459800,8.062459716796875,-0.991180419921875,-0.210479736328125,0.05413818359375
1751013403350402800,8.07240283203125,-0.9904022216796875,-0.2109375,0.0542449951171875
1751013403360345900,8.082345947265624,-0.9902496337890625,-0.212127685546875,0.0545501708984375
1751013403370290000,8.0922900390625,-0.98876953125,-0.2152252197265625,0.0550537109375
1751013403380232700,8.102232666015626,-0.9882049560546875,-0.2188873291015625,0.054290771484375
1751013403390175700,8.11217578125,-0.987457275390625,-0.2185821533203125,0.0539398193359375
1751013403400118800,8.122118896484375,-0.9882659912109375,-0.217315673828125,0.051116943359375
1751013403410061800,8.132061767578126,-0.9930572509765625,-0.2147064208984375,0.0530242919921875
1751013403420004600,8.142004638671875,-0.997894287109375,-0.2119598388671875,0.0578765869140625
1751013403429947600,8.15194775390625,-0.998779296875,-0.2098846435546875,0.0607147216796875
1751013403439890700,8.161890625,-0.994537353515625,-0.208984375,0.0607147216796875
1751013403449833700,8.171833740234375,-0.9917755126953125,-0.206085205078125,0.0597991943359375
1751013403459777800,8.18177783203125,-0.9896392822265625,-0.2052459716796875,0.060516357421875
1751013403469720800,8.191720947265624,-0.989837646484375,-0.2051544189453125,0.062469482421875
1751013403479663600,8.20166357421875,-0.9908905029296875,-0.2062530517578125,0.06329345703125
1751013403489606700,8.211606689453125,-0.98809814453125,-0.206085205078125,0.0641326904296875
1751013403499549700,8.2215498046875,-0.98797607421875,-0.20562744140625,0.0652618408203125
1751013403509492700,8.23149267578125,-0.989013671875,-0.202972412109375,0.0653076171875
1751013403519435500,8.241435546875,-0.9891357421875,-0.201812744140625,0.0621490478515625
1751013403529378600,8.251378662109374,-0.9917144775390625,-0.201416015625,0.060333251953125
1751013403539321600,8.261321533203125,-0.993194580078125,-0.2008056640625,0.0588531494140625
1751013403549265700,8.271265625,-0.9910430908203125,-0.20166015625,0.0557861328125
1751013403559208700,8.281208740234375,-0.992218017578125,-0.2039337158203125,0.0542449951171875
1751013403569151700,8.29115185546875,-0.9913330078125,-0.2056121826171875,0.0528564453125
1751013403579094500,8.301094482421876,-0.98895263671875,-0.204437255859375,0.0541839599609375
1751013403589037600,8.31103759765625,-0.9883880615234375,-0.2036590576171875,0.05517578125
1751013403598980600,8.320980712890625,-0.9904632568359375,-0.203765869140625,0.05694580078125
1751013403608923600,8.330923583984376,-0.99310302734375,-0.204742431640625,0.0573272705078125
1751013403618866700,8.34086669921875,-0.9943084716796875,-0.2039337158203125,0.059173583984375
1751013403628810800,8.350810791015626,-0.9950408935546875,-0.2031707763671875,0.0606842041015625
1751013403638753500,8.36075341796875,-1.000335693359375,-0.2015533447265625,0.0626678466796875
1751013403648696600,8.370696533203125,-1.0013275146484375,-0.2006988525390625,0.0660400390625
1751013403658639600,8.3806396484375,-0.9988250732421875,-0.1998291015625,0.0662384033203125
1751013403668582700,8.390582763671874,-1.000579833984375,-0.1992034912109375,0.06842041015625
1751013403678525700,8.400525634765625,-1.0011444091796875,-0.1972503662109375,0.0720062255859375
1751013403688468700,8.41046875,-1.002593994140625,-0.1985626220703125,0.0633544921875
1751013403698411800,8.420411865234374,-1.001220703125,-0.20367431640625,0.05645751953125
1751013403708354800,8.430354736328125,-1.0013580322265625,-0.206024169921875,0.047454833984375
1751013403718298600,8.440298583984376,-0.9982452392578125,-0.2068939208984375,0.0423583984375
1751013403728241700,8.45024169921875,-0.9939727783203125,-0.208160400390625,0.041961669921875
1751013403738184700,8.460184814453125,-0.9930419921875,-0.208465576171875,0.0428009033203125
1751013403748127700,8.470127685546874,-0.9948883056640625,-0.2084197998046875,0.0406951904296875
1751013403758070800,8.48007080078125,-0.99591064453125,-0.2093658447265625,0.0398101806640625
1751013403768013800,8.490013916015625,-0.997283935546875,-0.2094268798828125,0.040008544921875
1751013403777956600,8.49995654296875,-0.99481201171875,-0.208251953125,0.041229248046875
1751013403787899600,8.509899658203125,-0.98876953125,-0.209869384765625,0.0434417724609375
1751013403797843700,8.51984375,-0.98431396484375,-0.210784912109375,0.04315185546875
1751013403807786800,8.529786865234374,-0.98626708984375,-0.2104949951171875,0.0404052734375
1751013403817729800,8.539729736328125,-0.9875335693359375,-0.2115020751953125,0.039642333984375
1751013403827672800,8.5496728515625,-0.98651123046875,-0.2135467529296875,0.03863525390625
1751013403837615600,8.55961572265625,-0.98419189453125,-0.21258544921875,0.0409088134765625
1751013403847558700,8.56955859375,-0.9826507568359375,-0.2115478515625,0.044189453125
1751013403857501700,8.579501708984376,-0.98809814453125,-0.2090911865234375,0.04486083984375
1751013403867444700,8.58944482421875,-0.991424560546875,-0.2062835693359375,0.045654296875
1751013403877388800,8.599388916015625,-0.9938812255859375,-0.202789306640625,0.0466766357421875
1751013403887331800,8.609331787109374,-0.9987335205078125,-0.1995391845703125,0.0507049560546875
1751013403897274600,8.619274658203125,-1.0024261474609375,-0.19683837890625,0.0532989501953125
1751013403907217700,8.6292177734375,-1.00506591796875,-0.1961669921875,0.0553436279296875
1751013403917160700,8.63916064453125,-1.003997802734375,-0.1964263916015625,0.0546875
1751013403927103700,8.649103759765625,-1.00128173828125,-0.1974639892578125,0.0543060302734375
1751013403937046800,8.659046875,-0.997100830078125,-0.198577880859375,0.0567474365234375
1751013403946989800,8.66898974609375,-0.9940185546875,-0.1998291015625,0.0564117431640625
1751013403956932900,8.678932861328125,-0.993865966796875,-0.200408935546875,0.0575408935546875
1751013403966876700,8.688876708984376,-0.992279052734375,-0.2012176513671875,0.0599365234375
1751013403976819700,8.69881982421875,-0.992340087890625,-0.2005462646484375,0.0633087158203125
1751013403986762800,8.7087626953125,-0.9900360107421875,-0.20062255859375,0.063720703125
1751013403996705800,8.718705810546876,-0.9895782470703125,-0.2003936767578125,0.0631256103515625
1751013404006648800,8.72864892578125,-0.9904327392578125,-0.20147705078125,0.0619354248046875
1751013404016592000,8.738591796875,-0.987823486328125,-0.204437255859375,0.0606842041015625
1751013404026535000,8.748534912109376,-0.9829559326171875,-0.2032928466796875,0.058837890625
1751013404036477700,8.758477783203125,-0.978668212890625,-0.2047271728515625,0.0582733154296875
1751013404046421800,8.768421875,-0.9780731201171875,-0.2069244384765625,0.0604248046875
1751013404056364800,8.77836474609375,-0.9803466796875,-0.205169677734375,0.0630950927734375
1751013404066307800,8.788307861328125,-0.981536865234375,-0.2031402587890625,0.0652923583984375
1751013404076251000,8.7982509765625,-0.9840240478515625,-0.2023773193359375,0.0686187744140625
1751013404086194000,8.80819384765625,-0.989410400390625,-0.2019500732421875,0.06927490234375
1751013404096136700,8.81813671875,-0.992919921875,-0.1988525390625,0.066192626953125
1751013404106079700,8.828079833984376,-0.9972381591796875,-0.1970062255859375,0.0626678466796875
1751013404116022800,8.838022705078124,-0.9985504150390625,-0.19769287109375,0.05889892578125
1751013404125965800,8.8479658203125,-0.99774169921875,-0.1968231201171875,0.0574188232421875
1751013404135910000,8.857909912109376,-0.9940643310546875,-0.195831298828125,0.0563507080078125
1751013404145853000,8.86785302734375,-0.992919921875,-0.1968536376953125,0.0537567138671875
1751013404155795700,8.877795654296875,-0.9963226318359375,-0.196502685546875,0.0536346435546875
1751013404165738800,8.88773876953125,-0.99786376953125,-0.1961822509765625,0.0546417236328125
1751013404175681800,8.897681884765625,-0.99725341796875,-0.19744873046875,0.05499267578125
1751013404185624800,8.907624755859375,-0.9957275390625,-0.198089599609375,0.0538330078125
1751013404195567600,8.917567626953126,-0.9947357177734375,-0.2001800537109375,0.056427001953125
1751013404205510700,8.9275107421875,-0.9896392822265625,-0.2019195556640625,0.0568389892578125
1751013404215454700,8.937454833984376,-0.9859161376953125,-0.2015533447265625,0.0574188232421875
1751013404225397800,8.947397705078124,-0.98297119140625,-0.2018890380859375,0.0575103759765625
1751013404235340800,8.9573408203125,-0.98419189453125,-0.20159912109375,0.0563507080078125
1751013404245283800,8.967283935546876,-0.986663818359375,-0.2008819580078125,0.056884765625
1751013404255226600,8.9772265625,-0.9850616455078125,-0.2003173828125,0.0561981201171875
1751013404265169700,8.987169677734375,-0.9845733642578125,-0.201507568359375,0.05535888671875
1751013404275112700,8.99711279296875,-0.987060546875,-0.20013427734375,0.055511474609375
1751013404285055700,9.0070556640625,-0.988922119140625,-0.2011566162109375,0.054168701171875
1751013404294999800,9.016999755859375,-0.9892730712890625,-0.2003021240234375,0.0546417236328125
1751013404304942600,9.026942626953126,-0.9920501708984375,-0.1994781494140625,0.0543975830078125
1751013404314884400,9.03688427734375,-0.996734619140625,-0.1977691650390625,0.0574951171875
1751013404324827400,9.046827392578125,-0.998260498046875,-0.1946563720703125,0.0600433349609375
1751013404334770400,9.0567705078125,-0.99664306640625,-0.1922454833984375,0.059967041015625
1751013404344713500,9.06671337890625,-0.995513916015625,-0.192108154296875,0.05615234375
1751013404354656500,9.076656494140625,-0.9937591552734375,-0.1909637451171875,0.0530853271484375
1751013404364599600,9.086599609375,-0.9917144775390625,-0.188812255859375,0.0516204833984375
1751013404374542300,9.096542236328125,-1.00177001953125,-0.1925201416015625,0.05029296875
1751013404384486400,9.106486328125,-0.9989166259765625,-0.1969146728515625,0.0488128662109375
1751013404394429400,9.116429443359374,-0.99249267578125,-0.1942291259765625,0.050750732421875
1751013404404372500,9.12637255859375,-0.991241455078125,-0.1910552978515625,0.0534515380859375
1751013404414315500,9.1363154296875,-0.994049072265625,-0.1942901611328125,0.053070068359375
1751013404424258300,9.14625830078125,-0.99017333984375,-0.1946563720703125,0.0514984130859375
1751013404434201300,9.156201416015625,-0.9877471923828125,-0.1925201416015625,0.05133056640625
1751013404444144000,9.16614404296875,-0.989288330078125,-0.1895294189453125,0.0519561767578125
1751013404454087200,9.176087158203124,-0.9925079345703125,-0.191009521484375,0.05419921875
1751013404464031500,9.186031494140625,-0.992828369140625,-0.1934661865234375,0.055816650390625
1751013404473974500,9.195974609375,-0.9911346435546875,-0.1948394775390625,0.055572509765625
1751013404483917300,9.205917236328125,-0.99090576171875,-0.194793701171875,0.053253173828125
1751013404493860400,9.2158603515625,-0.989288330078125,-0.1951904296875,0.0510711669921875
1751013404503803100,9.22580322265625,-0.9889373779296875,-0.1949005126953125,0.052001953125
1751013404513746200,9.23574609375,-0.9901275634765625,-0.193023681640625,0.0564422607421875
1751013404523689200,9.245689208984375,-0.9941558837890625,-0.19000244140625,0.058349609375
1751013404533632300,9.25563232421875,-0.9967498779296875,-0.1897430419921875,0.0592498779296875
1751013404543575300,9.2655751953125,-0.9960784912109375,-0.1907806396484375,0.0585784912109375
1751013404553519400,9.275519287109375,-0.9940185546875,-0.189544677734375,0.0570068359375
1751013404563462100,9.285462158203124,-0.9926300048828125,-0.1893310546875,0.05352783203125
1751013404573405200,9.2954052734375,-0.9919586181640625,-0.1898651123046875,0.0504150390625
1751013404583348200,9.30534814453125,-0.9924774169921875,-0.1895904541015625,0.0489044189453125
1751013404593291300,9.315291259765624,-0.9930877685546875,-0.190826416015625,0.0491943359375
1751013404603234300,9.325234375,-0.9984588623046875,-0.1920928955078125,0.0492706298828125
1751013404613177300,9.33517724609375,-1.0023651123046875,-0.19049072265625,0.0518341064453125
1751013404623120400,9.345120361328124,-1.00274658203125,-0.1883087158203125,0.055145263671875
1751013404633064200,9.355064208984375,-1.0010223388671875,-0.1884765625,0.058380126953125
1751013404643007200,9.36500732421875,-1.00323486328125,-0.1879730224609375,0.0607452392578125
1751013404652950300,9.3749501953125,-1.003662109375,-0.18597412109375,0.0590362548828125
1751013404662893300,9.384893310546875,-1.0014495849609375,-0.1862335205078125,0.0583038330078125
1751013404672836400,9.39483642578125,-1.000335693359375,-0.1884307861328125,0.0572662353515625
1751013404682779400,9.404779296875,-0.9994354248046875,-0.1902008056640625,0.05609130859375
1751013404692722400,9.414722412109375,-0.9978485107421875,-0.1884918212890625,0.05523681640625
1751013404702665200,9.424665283203124,-0.995147705078125,-0.1870574951171875,0.0539703369140625
1751013404712609300,9.434609375,-0.9930419921875,-0.1882781982421875,0.053802490234375
1751013404722552300,9.44455224609375,-0.992767333984375,-0.191864013671875,0.05413818359375
1751013404732495400,9.454495361328124,-0.9940185546875,-0.19195556640625,0.0552825927734375
1751013404742438400,9.4644384765625,-0.9913330078125,-0.1914825439453125,0.0554962158203125
1751013404752381400,9.47438134765625,-0.9893341064453125,-0.191192626953125,0.055999755859375
1751013404762324200,9.48432421875,-0.988677978515625,-0.1898651123046875,0.05633544921875
1751013404772267300,9.494267333984375,-0.9901123046875,-0.1889495849609375,0.0554046630859375
1751013404782210300,9.504210205078126,-0.989776611328125,-0.18914794921875,0.0524444580078125
1751013404792154400,9.514154296875,-0.9912872314453125,-0.1885986328125,0.0522003173828125
1751013404802097400,9.524097412109375,-0.99407958984375,-0.1903533935546875,0.049957275390625
1751013404812040400,9.53404052734375,-0.9945068359375,-0.192047119140625,0.0503692626953125
1751013404821983200,9.543983154296875,-0.99688720703125,-0.19012451171875,0.0554351806640625
1751013404831926300,9.55392626953125,-1.0003204345703125,-0.190155029296875,0.0562744140625
1751013404841869300,9.563869384765624,-1.00299072265625,-0.1926422119140625,0.055816650390625
1751013404851812400,9.573812255859375,-1.0007781982421875,-0.193267822265625,0.056640625
1751013404861755400,9.58375537109375,-0.996368408203125,-0.19317626953125,0.0582733154296875
1751013404871698400,9.593698486328124,-0.989349365234375,-0.19482421875,0.0544281005859375
1751013404881642200,9.603642333984375,-0.9867401123046875,-0.197235107421875,0.05133056640625
1751013404891585300,9.613585205078126,-0.98919677734375,-0.1991424560546875,0.05157470703125
1751013404901528300,9.6235283203125,-0.98876953125,-0.1988525390625,0.0492706298828125
1751013404911471400,9.633471435546875,-0.994171142578125,-0.1975250244140625,0.049957275390625
1751013404921414400,9.643414306640626,-0.9946746826171875,-0.1973114013671875,0.0529327392578125
1751013404931357400,9.653357421875,-0.991058349609375,-0.19732666015625,0.051788330078125
1751013404941300500,9.663300537109375,-0.9938812255859375,-0.1981658935546875,0.0507965087890625
1751013404951243500,9.673243408203126,-1.0002899169921875,-0.197540283203125,0.0478363037109375
1751013404961187300,9.683187255859375,-1.005767822265625,-0.1983642578125,0.04962158203125
1751013404971130400,9.69313037109375,-0.996307373046875,-0.202972412109375,0.053070068359375
1751013404981073400,9.703073486328124,-0.9940032958984375,-0.2015380859375,0.0477752685546875
1751013404991016400,9.713016357421875,-0.993011474609375,-0.2010955810546875,0.046417236328125
1751013405000959500,9.72295947265625,-0.9881439208984375,-0.2031097412109375,0.046661376953125
1751013405010902500,9.732902587890624,-0.989349365234375,-0.2033538818359375,0.0466461181640625
1751013405020845300,9.74284521484375,-0.98663330078125,-0.2046661376953125,0.049957275390625
1751013405030788400,9.752788330078126,-0.9826202392578125,-0.2060546875,0.0515594482421875
1751013405040732400,9.762732421875,-0.983551025390625,-0.2086181640625,0.05108642578125
1751013405050675500,9.772675537109375,-0.9829559326171875,-0.2108612060546875,0.0489501953125
1751013405060618500,9.782618408203126,-0.9814605712890625,-0.210693359375,0.0470428466796875
1751013405070561500,9.7925615234375,-0.9806365966796875,-0.21087646484375,0.0467376708984375
1751013405080504300,9.80250439453125,-0.98150634765625,-0.20965576171875,0.049835205078125
1751013405090447400,9.812447265625,-0.9836578369140625,-0.2053375244140625,0.053192138671875
1751013405100390400,9.822390380859375,-0.9859771728515625,-0.2028656005859375,0.056610107421875
1751013405110333400,9.83233349609375,-0.9887542724609375,-0.2023162841796875,0.058197021484375
1751013405120277500,9.842277587890624,-0.9906005859375,-0.2014923095703125,0.0522613525390625
1751013405130220300,9.85222021484375,-0.9882354736328125,-0.2017822265625,0.0474090576171875
1751013405140163300,9.862163330078126,-0.989593505859375,-0.2043304443359375,0.045806884765625
1751013405150106400,9.8721064453125,-0.9906768798828125,-0.205657958984375,0.04620361328125
1751013405160049400,9.88204931640625,-0.9897613525390625,-0.2064971923828125,0.0489349365234375
1751013405169992400,9.891992431640626,-0.9920654296875,-0.2070770263671875,0.0482635498046875
1751013405179935500,9.901935546875,-0.9945526123046875,-0.206756591796875,0.0475311279296875
1751013405189878500,9.91187841796875,-0.99371337890625,-0.206573486328125,0.048736572265625
1751013405199821300,9.9218212890625,-0.990478515625,-0.2054595947265625,0.050445556640625
1751013405209765400,9.931765380859375,-0.9916534423828125,-0.201141357421875,0.051910400390625
1751013405219708400,9.94170849609375,-0.98974609375,-0.2015380859375,0.0530548095703125
1751013405229651500,9.9516513671875,-0.9878082275390625,-0.205841064453125,0.0509796142578125
1751013405239594500,9.961594482421875,-0.988037109375,-0.2076416015625,0.04931640625
1751013405249537300,9.971537353515625,-0.9880218505859375,-0.2076873779296875,0.0489959716796875
1751013405259480300,9.981480224609374,-0.9880828857421875,-0.207977294921875,0.04962158203125
1751013405269423400,9.99142333984375,-0.98858642578125,-0.2054901123046875,0.0504608154296875
1751013405279366100,10.0013662109375,-0.98895263671875,-0.2028045654296875,0.0537261962890625
1751013405289310500,10.011310546875,-0.9893646240234375,-0.20245361328125,0.055084228515625
1751013405299253500,10.02125341796875,-0.9896392822265625,-0.2020721435546875,0.0558319091796875
1751013405309196300,10.0311962890625,-0.992340087890625,-0.2016143798828125,0.0543212890625
1751013405319139600,10.0411396484375,-0.991943359375,-0.2039642333984375,0.0535888671875
1751013405329082400,10.051082275390625,-0.992401123046875,-0.208160400390625,0.0501556396484375
1751013405339025400,10.061025390625,-0.9929962158203125,-0.2078704833984375,0.0496368408203125
1751013405348968400,10.070968505859375,-0.9926300048828125,-0.2064361572265625,0.05035400390625
1751013405358912500,10.08091259765625,-0.9912872314453125,-0.2070159912109375,0.052703857421875
1751013405368855600,10.09085546875,-0.9910430908203125,-0.205841064453125,0.054229736328125
1751013405378798600,10.100798583984375,-0.995086669921875,-0.205596923828125,0.0553131103515625
1751013405388741400,10.110741455078125,-0.9962158203125,-0.2046051025390625,0.0559539794921875
1751013405398684400,10.120684326171874,-0.99591064453125,-0.205963134765625,0.0556488037109375
1751013405408627200,10.130627197265625,-0.996002197265625,-0.2080230712890625,0.055511474609375
1751013405418570200,10.1405703125,-0.99725341796875,-0.2063446044921875,0.0547943115234375
1751013405428513300,10.15051318359375,-0.99560546875,-0.205657958984375,0.0545196533203125
1751013405438456300,10.160456298828125,-0.9933013916015625,-0.2059478759765625,0.0558929443359375
1751013405448400400,10.170400390625,-0.993408203125,-0.20440673828125,0.0550537109375
1751013405458343400,10.180343505859375,-0.991424560546875,-0.20379638671875,0.0550384521484375
1751013405468286200,10.1902861328125,-0.9895172119140625,-0.202911376953125,0.0559844970703125
1751013405478229200,10.200229248046876,-0.9898681640625,-0.204376220703125,0.05615234375
1751013405488172300,10.21017236328125,-0.992156982421875,-0.2037353515625,0.0559234619140625
1751013405498115300,10.220115234375,-0.9928436279296875,-0.2033538818359375,0.0558319091796875
1751013405508058400,10.230058349609376,-0.99072265625,-0.2038421630859375,0.05450439453125
1751013405518001400,10.24000146484375,-0.9911041259765625,-0.2062225341796875,0.0515899658203125
1751013405527945200,10.2499453125,-0.9916229248046875,-0.204315185546875,0.0530548095703125
1751013405537888300,10.25988818359375,-0.989166259765625,-0.20184326171875,0.054168701171875
1751013405547831300,10.269831298828125,-0.9889984130859375,-0.201751708984375,0.0572357177734375
1751013405557774300,10.2797744140625,-0.9902496337890625,-0.2022857666015625,0.0580902099609375
1751013405567717400,10.28971728515625,-0.9862060546875,-0.2041168212890625,0.056121826171875
1751013405577660400,10.299660400390625,-0.9820098876953125,-0.2069549560546875,0.052215576171875
1751013405587603500,10.309603515625,-0.9844512939453125,-0.208282470703125,0.049285888671875
1751013405597546200,10.319546142578124,-0.9860076904296875,-0.2062530517578125,0.0493927001953125
1751013405607490300,10.329490234375,-0.98663330078125,-0.2037811279296875,0.0514678955078125
1751013405617433300,10.339433349609376,-0.9886016845703125,-0.2019500732421875,0.05230712890625
1751013405627376400,10.34937646484375,-0.9920806884765625,-0.2012176513671875,0.05303955078125
1751013405637319400,10.3593193359375,-0.9912261962890625,-0.200958251953125,0.0547027587890625
1751013405647262200,10.36926220703125,-0.9895172119140625,-0.201202392578125,0.057952880859375
1751013405657205200,10.379205322265625,-0.99102783203125,-0.2015533447265625,0.0579681396484375
1751013405667148300,10.389148193359375,-0.9962005615234375,-0.2020721435546875,0.0563812255859375
1751013405677091300,10.39909130859375,-0.999114990234375,-0.2032012939453125,0.055572509765625
1751013405687035400,10.409035400390625,-0.9983673095703125,-0.202789306640625,0.053466796875
1751013405696978400,10.418978515625,-0.9972076416015625,-0.202606201171875,0.052642822265625
1751013405706921200,10.428921142578124,-0.9952545166015625,-0.20599365234375,0.0503082275390625
1751013405716864300,10.4388642578125,-0.993408203125,-0.2063751220703125,0.0485992431640625
1751013405726807300,10.448807373046876,-0.99261474609375,-0.20391845703125,0.0495758056640625
1751013405736750300,10.458750244140624,-0.9957733154296875,-0.2006683349609375,0.05322265625
1751013405746693400,10.468693359375,-0.9916839599609375,-0.1997528076171875,0.05828857421875
1751013405756636400,10.478636474609376,-0.9906463623046875,-0.1967620849609375,0.0648193359375
1751013405766580200,10.488580322265625,-0.99932861328125,-0.195953369140625,0.0650177001953125
1751013405776523300,10.498523193359375,-1.001617431640625,-0.19781494140625,0.0602264404296875
1751013405786466300,10.50846630859375,-1.00299072265625,-0.2012786865234375,0.058807373046875
1751013405796409300,10.518409423828125,-0.9968719482421875,-0.20404052734375,0.057403564453125
1751013405806352400,10.528352294921875,-0.9860687255859375,-0.2075653076171875,0.05780029296875
1751013405816295400,10.53829541015625,-0.982147216796875,-0.2095947265625,0.057647705078125
1751013405826238500,10.548238525390625,-0.9561614990234375,-0.2041168212890625,0.0564117431640625
1751013405836181500,10.558181396484375,-0.9130706787109375,-0.1940155029296875,0.070159912109375
1751013405846125300,10.568125244140624,-0.9654083251953125,-0.1941070556640625,0.079437255859375
1751013405856068400,10.578068359375,-0.996429443359375,-0.212158203125,0.069122314453125
1751013405866011400,10.588011474609376,-1.018585205078125,-0.221435546875,0.0643157958984375
1751013405875954400,10.597954345703124,-1.0263519287109375,-0.21832275390625,0.0652008056640625
1751013405885897500,10.6078974609375,-1.0239410400390625,-0.218170166015625,0.0648040771484375
1751013405895840500,10.617840576171876,-1.0200653076171875,-0.2231903076171875,0.0603485107421875
1751013405905783300,10.627783203125,-1.02325439453125,-0.2246551513671875,0.050079345703125
1751013405915726300,10.637726318359375,-1.02056884765625,-0.223602294921875,0.0436859130859375
1751013405925670400,10.64767041015625,-1.0170135498046875,-0.220001220703125,0.0617218017578125
