time,seconds_elapsed,z,y,x
1751013395404407300,0.1264072265625,-383.5906066894531,-199.79696655273438,-19.337905883789062
1751013395414449400,0.136449462890625,-383.43182373046875,-199.89356994628906,-19.328704833984375
1751013395424491500,0.146491455078125,-383.61090087890625,-199.86392211914062,-19.659881591796875
1751013395434533400,0.156533447265625,-383.3316955566406,-200.34483337402344,-19.58538818359375
1751013395444574500,0.166574462890625,-383.85601806640625,-199.92471313476562,-19.393890380859375
1751013395454616300,0.1766162109375,-384.01702880859375,-200.25315856933594,-19.21142578125
1751013395464659500,0.186659423828125,-383.86041259765625,-200.04660034179688,-19.456329345703125
1751013395474700500,0.196700439453125,-383.62982177734375,-200.3992919921875,-19.68701171875
1751013395484741400,0.206741455078125,-383.8157958984375,-200.26136779785156,-19.6795654296875
1751013395494783500,0.216783447265625,-383.52923583984375,-200.16986083984375,-19.355056762695312
1751013395504824300,0.22682421875,-383.90740966796875,-200.02072143554688,-19.497543334960938
1751013395514867200,0.2368671875,-384.173095703125,-200.37869262695312,-19.77099609375
1751013395524909300,0.246909423828125,-384.09124755859375,-200.11297607421875,-19.331710815429688
1751013395534952400,0.256952392578125,-384.12255859375,-200.01513671875,-19.587936401367188
1751013395544994300,0.266994384765625,-383.67529296875,-199.58168029785156,-19.351776123046875
1751013395555038500,0.27703857421875,-384.15533447265625,-199.88449096679688,-19.507522583007812
1751013395565080300,0.287080322265625,-383.50091552734375,-200.0340118408203,-19.550567626953125
1751013395575121400,0.297121337890625,-384.2059326171875,-200.38787841796875,-19.76287841796875
1751013395585164300,0.307164306640625,-383.9385681152344,-199.9132843017578,-19.64678955078125
1751013395595207400,0.31720751953125,-384.00830078125,-200.07212829589844,-19.46881103515625
1751013395605251300,0.327251220703125,-384.24896240234375,-199.95352172851562,-19.429733276367188
1751013395615290400,0.337290283203125,-384.3697814941406,-199.82945251464844,-19.355056762695312
1751013395625338400,0.34733837890625,-384.02239990234375,-199.84747314453125,-19.348846435546875
1751013395635380200,0.357380126953125,-384.256103515625,-199.9372100830078,-19.497024536132812
1751013395645422300,0.36742236328125,-383.9690246582031,-199.9753875732422,-19.615264892578125
1751013395655463400,0.37746337890625,-383.8101806640625,-199.89309692382812,-19.417800903320312
1751013395665506300,0.38750634765625,-383.45892333984375,-200.09754943847656,-19.338607788085938
1751013395675548400,0.39754833984375,-383.9527587890625,-199.91014099121094,-19.414688110351562
1751013395685591600,0.407591552734375,-384.24603271484375,-200.11631774902344,-19.21563720703125
1751013395695633400,0.41763330078125,-383.49365234375,-199.62588500976562,-18.722015380859375
1751013395705675300,0.42767529296875,-383.6253662109375,-199.9059600830078,-19.226226806640625
1751013395715717400,0.43771728515625,-383.4601745605469,-199.9467010498047,-19.206527709960938
1751013395725759200,0.44775927734375,-383.4787902832031,-199.79098510742188,-19.370147705078125
1751013395735801300,0.45780126953125,-383.979736328125,-200.20034790039062,-18.941848754882812
1751013395745842400,0.467842529296875,-383.71075439453125,-199.82994079589844,-18.996871948242188
1751013395755884300,0.47788427734375,-383.7293701171875,-200.37852478027344,-19.204345703125
1751013395765926400,0.487926513671875,-384.30010986328125,-199.75155639648438,-19.24932861328125
1751013395775969300,0.49796923828125,-383.673583984375,-199.84011840820312,-19.209686279296875
1751013395786011400,0.508011474609375,-383.8658142089844,-200.07322692871094,-19.3677978515625
1751013395796053500,0.518053466796875,-383.72833251953125,-199.72914123535156,-19.527908325195312
1751013395806094300,0.52809423828125,-383.1302185058594,-199.8108673095703,-18.980331420898438
1751013395816136400,0.538136474609375,-383.3914794921875,-199.98878479003906,-19.330032348632812
1751013395826178300,0.54817822265625,-383.6584167480469,-200.23748779296875,-18.889312744140625
1751013395836221400,0.558221435546875,-383.9296875,-199.8495330810547,-19.160385131835938
1751013395846263300,0.56826318359375,-383.64691162109375,-199.8829345703125,-18.956939697265625
1751013395856305400,0.578305419921875,-383.4646301269531,-199.87417602539062,-18.96343994140625
1751013395866348300,0.588348388671875,-383.7750244140625,-199.85130310058594,-18.920623779296875
1751013395876391400,0.598391357421875,-383.6274719238281,-200.02481079101562,-19.2359619140625
1751013395886429200,0.60842919921875,-383.7712097167969,-200.05218505859375,-18.723403930664062
1751013395896476200,0.61847607421875,-383.65252685546875,-199.93783569335938,-18.76611328125
1751013395906518500,0.6285185546875,-383.5655212402344,-199.92906188964844,-19.056610107421875
1751013395916561400,0.6385615234375,-383.747314453125,-199.97036743164062,-19.170333862304688
1751013395926603300,0.648603271484375,-383.19134521484375,-199.80856323242188,-19.106658935546875
1751013395936646400,0.658646484375,-383.3455505371094,-199.947998046875,-18.923187255859375
1751013395946687500,0.6686875,-383.73046875,-200.32394409179688,-19.252166748046875
1751013395956729300,0.678729248046875,-383.0556335449219,-200.1749725341797,-19.164535522460938
1751013395966772200,0.688772216796875,-383.3697509765625,-200.05433654785156,-19.344863891601562
1751013395976814300,0.698814453125,-382.9703369140625,-199.96981811523438,-19.217819213867188
1751013395986857500,0.708857421875,-383.204833984375,-199.80178833007812,-19.32135009765625
1751013395996900400,0.718900390625,-383.3375549316406,-200.11093139648438,-19.1650390625
1751013396006943500,0.728943603515625,-383.9159851074219,-200.18177795410156,-19.248397827148438
1751013396016987400,0.7389873046875,-383.5870361328125,-200.0611114501953,-18.722076416015625
1751013396027029200,0.749029296875,-383.6650390625,-200.22071838378906,-18.922500610351562
1751013396037073400,0.759073486328125,-383.75494384765625,-200.3126678466797,-18.893341064453125
1751013396047116300,0.7691162109375,-383.64697265625,-200.06832885742188,-18.98846435546875
1751013396057159400,0.779159423828125,-383.3556823730469,-200.19970703125,-18.923202514648438
1751013396067200500,0.789200439453125,-383.3702392578125,-200.00131225585938,-18.789581298828125
1751013396077243400,0.799243408203125,-383.5702209472656,-200.02218627929688,-19.13519287109375
1751013396087285200,0.80928515625,-383.488037109375,-200.3854522705078,-19.016326904296875
1751013396097328400,0.819328369140625,-383.5400390625,-199.97055053710938,-19.170974731445312
1751013396107369500,0.829369384765625,-383.1287841796875,-200.29685974121094,-18.97015380859375
1751013396117412400,0.839412353515625,-383.5357666015625,-200.45957946777344,-18.870681762695312
1751013396127453400,0.849453369140625,-383.34552001953125,-200.09616088867188,-18.854888916015625
1751013396137496300,0.859496337890625,-383.34417724609375,-200.08132934570312,-19.664596557617188
1751013396147539500,0.86953955078125,-383.15869140625,-200.3727264404297,-19.384811401367188
1751013396157581300,0.879581298828125,-383.40704345703125,-200.4813232421875,-19.00067138671875
1751013396167625500,0.88962548828125,-383.53387451171875,-199.88807678222656,-18.8751220703125
1751013396177668400,0.89966845703125,-383.38494873046875,-200.5105743408203,-19.017868041992188
1751013396187710200,0.909710205078125,-383.7016906738281,-200.42022705078125,-19.027297973632812
1751013396197751300,0.919751220703125,-383.1028747558594,-200.556640625,-18.803146362304688
1751013396207793200,0.929793212890625,-383.1605529785156,-200.23963928222656,-19.070632934570312
1751013396217835500,0.93983544921875,-382.6361083984375,-200.78225708007812,-18.844818115234375
1751013396227877400,0.94987744140625,-382.96343994140625,-200.0885467529297,-18.850753784179688
1751013396237920300,0.959920166015625,-383.038818359375,-200.4773406982422,-19.250274658203125
1751013396247962000,0.969962158203125,-383.13604736328125,-199.9806365966797,-19.224884033203125
1751013396258004500,0.98000439453125,-383.466064453125,-200.38955688476562,-19.271453857421875
1751013396268047400,0.99004736328125,-383.49456787109375,-200.53358459472656,-19.386306762695312
1751013396278089200,1.000089111328125,-382.7262268066406,-200.5035858154297,-18.847274780273438
1751013396288131300,1.01013134765625,-382.88800048828125,-200.17291259765625,-19.117996215820312
1751013396298174500,1.020174560546875,-382.98126220703125,-200.30548095703125,-18.760467529296875
1751013396308217600,1.030217529296875,-383.082275390625,-200.1539306640625,-19.246429443359375
1751013396318259700,1.040259765625,-383.1310729980469,-200.45635986328125,-19.017440795898438
1751013396328301600,1.050301513671875,-383.66900634765625,-199.96629333496094,-18.895919799804688
1751013396338343700,1.06034375,-383.23504638671875,-199.9693603515625,-18.82275390625
1751013396348384500,1.070384521484375,-384.052490234375,-200.2494354248047,-18.706298828125
1751013396358426600,1.080426513671875,-383.545654296875,-200.1430206298828,-18.612747192382812
1751013396368468500,1.090468505859375,-383.4980163574219,-200.2222900390625,-18.97210693359375
1751013396378511600,1.10051171875,-383.23370361328125,-200.3186798095703,-18.935897827148438
1751013396388554500,1.110554443359375,-383.096923828125,-200.11575317382812,-18.888076782226562
1751013396398597600,1.12059765625,-383.13446044921875,-200.32847595214844,-19.051971435546875
1751013396408640500,1.130640625,-383.18408203125,-200.2360382080078,-18.9742431640625
1751013396418683600,1.14068359375,-383.1953430175781,-200.194580078125,-18.964553833007812
1751013396428726800,1.150726806640625,-383.16802978515625,-200.03875732421875,-19.511932373046875
1751013396438767600,1.160767578125,-383.0279235839844,-200.14601135253906,-18.910415649414062
1751013396448810500,1.170810546875,-383.13031005859375,-200.05526733398438,-19.174240112304688
1751013396458852600,1.1808525390625,-383.26422119140625,-200.64877319335938,-19.3624267578125
1751013396468894500,1.19089453125,-382.93414306640625,-200.35708618164062,-19.15362548828125
1751013396478936600,1.2009365234375,-383.12872314453125,-200.40557861328125,-19.03277587890625
1751013396488976600,1.2109765625,-383.55126953125,-200.3069305419922,-19.200271606445312
1751013396499017700,1.221017822265625,-382.9827880859375,-200.72610473632812,-19.157073974609375
1751013396509057500,1.2310576171875,-382.9447021484375,-200.45718383789062,-19.610336303710938
1751013396519099600,1.241099609375,-383.62713623046875,-200.67279052734375,-19.23541259765625
1751013396529140700,1.251140625,-383.7492980957031,-200.41236877441406,-19.222869873046875
1751013396539181800,1.261181884765625,-383.2055358886719,-200.80661010742188,-19.212661743164062
1751013396549222700,1.27122265625,-383.3955383300781,-200.74961853027344,-19.211181640625
1751013396559262500,1.281262451171875,-383.2662048339844,-200.23519897460938,-18.847702026367188
1751013396569304800,1.291304931640625,-383.5089111328125,-200.29275512695312,-18.976547241210938
1751013396579345700,1.301345703125,-383.40863037109375,-200.349853515625,-19.075759887695312
1751013396589387800,1.3113876953125,-383.4576416015625,-200.33811950683594,-19.253189086914062
1751013396599429600,1.3214296875,-383.692626953125,-200.58477783203125,-19.04473876953125
1751013396609470700,1.331470703125,-383.22137451171875,-200.4852752685547,-18.846908569335938
1751013396619513600,1.341513671875,-383.2043762207031,-200.3355712890625,-18.727493286132812
1751013396629554400,1.351554443359375,-383.12835693359375,-200.4046173095703,-19.189971923828125
1751013396639595500,1.361595458984375,-383.2966003417969,-200.43194580078125,-18.903854370117188
1751013396649637600,1.3716376953125,-383.5008544921875,-200.68492126464844,-18.77630615234375
1751013396659678700,1.3816787109375,-383.88427734375,-200.64039611816406,-18.871627807617188
1751013396669719800,1.3917197265625,-383.54248046875,-200.4761199951172,-18.725250244140625
1751013396679760600,1.4017607421875,-383.45166015625,-201.04888916015625,-19.211883544921875
1751013396689800400,1.411800537109375,-383.19769287109375,-200.6304168701172,-18.977340698242188
1751013396699840500,1.421840576171875,-383.480712890625,-200.83665466308594,-18.947006225585938
1751013396709881600,1.431881591796875,-383.17266845703125,-200.6862335205078,-18.898361206054688
1751013396719922400,1.44192236328125,-382.889404296875,-200.867431640625,-19.093780517578125
1751013396729964500,1.451964599609375,-383.33642578125,-200.77569580078125,-18.90142822265625
1751013396740005400,1.46200537109375,-383.5406494140625,-200.6861572265625,-19.303909301757812
1751013396750046500,1.47204638671875,-382.87841796875,-200.24966430664062,-18.70037841796875
1751013396760087600,1.482087646484375,-383.68231201171875,-200.74940490722656,-18.918869018554688
1751013396770128400,1.49212841796875,-383.6397399902344,-200.77577209472656,-18.90264892578125
1751013396780168400,1.50216845703125,-382.99041748046875,-200.53245544433594,-19.01324462890625
1751013396790209500,1.51220947265625,-383.45538330078125,-200.9518280029297,-19.1888427734375
1751013396800251400,1.52225146484375,-382.86578369140625,-200.88917541503906,-19.095230102539062
1751013396810292500,1.53229248046875,-383.2278747558594,-200.86907958984375,-18.8316650390625
1751013396820334600,1.54233447265625,-383.50091552734375,-200.54434204101562,-19.063461303710938
1751013396830375700,1.552375732421875,-383.44964599609375,-200.50863647460938,-18.720199584960938
1751013396840417500,1.56241748046875,-383.3681640625,-200.44105529785156,-18.7889404296875
1751013396850459600,1.572459716796875,-383.31671142578125,-200.2992401123047,-18.847198486328125
1751013396860501500,1.58250146484375,-383.6103515625,-200.46224975585938,-18.923858642578125
1751013396870544600,1.592544677734375,-383.2677001953125,-200.4330596923828,-18.858688354492188
1751013396880586800,1.602586669921875,-383.35662841796875,-200.7319793701172,-18.8533935546875
1751013396890629600,1.612629638671875,-383.31549072265625,-200.8594512939453,-18.90325927734375
1751013396900672800,1.6226728515625,-383.0614013671875,-200.50143432617188,-19.300491333007812
1751013396910715600,1.632715576171875,-383.29913330078125,-200.6703643798828,-19.192550659179688
1751013396920756500,1.642756591796875,-383.2521057128906,-200.3093719482422,-19.205184936523438
1751013396930798600,1.652798583984375,-383.69036865234375,-200.7890167236328,-19.167343139648438
1751013396940841700,1.662841796875,-384.03350830078125,-200.55752563476562,-19.049575805664062
1751013396950883600,1.672883544921875,-383.331787109375,-200.86196899414062,-18.948638916015625
1751013396960924700,1.682924560546875,-383.1952209472656,-200.80039978027344,-19.147354125976562
1751013396970966500,1.692966552734375,-383.482666015625,-200.8302459716797,-19.139236450195312
1751013396981007600,1.703007568359375,-383.14276123046875,-200.68701171875,-18.837554931640625
1751013396991048400,1.71304833984375,-383.6427917480469,-201.20758056640625,-18.948532104492188
1751013397001090600,1.723090576171875,-383.3370666503906,-200.91000366210938,-18.9793701171875
1751013397011132700,1.733132568359375,-383.52880859375,-200.57818603515625,-18.90338134765625
1751013397021175600,1.743175537109375,-383.7640686035156,-200.66030883789062,-19.235061645507812
1751013397031216600,1.753216552734375,-382.9921875,-200.74801635742188,-18.851821899414062
1751013397041257700,1.7632578125,-383.20831298828125,-200.25326538085938,-18.696090698242188
1751013397051299600,1.773299560546875,-383.55859375,-200.7398681640625,-18.60888671875
1751013397061340700,1.783340576171875,-383.53460693359375,-200.46295166015625,-18.9371337890625
1751013397071382500,1.793382568359375,-383.39971923828125,-200.7594757080078,-19.262619018554688
1751013397081425700,1.80342578125,-383.52325439453125,-200.4222869873047,-19.16448974609375
1751013397091469600,1.813469482421875,-383.5595703125,-200.62376403808594,-18.94085693359375
1751013397101512700,1.8235126953125,-383.77789306640625,-200.34228515625,-19.017532348632812
1751013397111555600,1.8335556640625,-383.9088134765625,-200.7556610107422,-19.025131225585938
1751013397121598500,1.843598388671875,-383.54510498046875,-200.7976531982422,-19.126800537109375
1751013397131641600,1.8536416015625,-383.1431884765625,-200.3733673095703,-18.845413208007812
1751013397141683500,1.863683349609375,-383.3172302246094,-200.52072143554688,-19.312286376953125
1751013397151727600,1.8737275390625,-383.2029113769531,-200.65768432617188,-18.7626953125
1751013397161769700,1.883769775390625,-383.60211181640625,-200.6853485107422,-19.386245727539062
1751013397171812600,1.8938125,-383.2016296386719,-200.97662353515625,-19.17242431640625
1751013397181854500,1.9038544921875,-383.38177490234375,-200.41517639160156,-19.0677490234375
1751013397191897600,1.913897705078125,-383.5233154296875,-200.6708526611328,-18.49151611328125
1751013397201939500,1.923939453125,-383.7113037109375,-200.64297485351562,-19.186355590820312
1751013397211981600,1.933981689453125,-383.12762451171875,-200.94189453125,-19.079376220703125
1751013397222023400,1.9440234375,-383.2552185058594,-200.40283203125,-19.119537353515625
1751013397232065800,1.954065673828125,-383.57684326171875,-200.91246032714844,-18.846267700195312
1751013397242108700,1.964108642578125,-383.95220947265625,-200.43942260742188,-18.917739868164062
1751013397252150500,1.974150634765625,-383.55108642578125,-201.09571838378906,-19.0743408203125
1751013397262192400,1.9841923828125,-383.53875732421875,-200.66859436035156,-18.978363037109375
1751013397272235500,1.994235595703125,-383.5699462890625,-200.9602813720703,-19.080657958984375
1751013397282278700,2.004278564453125,-383.18145751953125,-200.30523681640625,-18.710205078125
1751013397292321800,2.01432177734375,-383.01947021484375,-200.66734313964844,-18.948348999023438
1751013397302363600,2.02436376953125,-383.13873291015625,-200.45745849609375,-18.917144775390625
1751013397312405500,2.034405517578125,-383.6229248046875,-200.69732666015625,-18.849685668945312
1751013397322448400,2.044448486328125,-383.4965515136719,-200.26937866210938,-18.967330932617188
1751013397332491500,2.054491455078125,-383.558837890625,-201.15618896484375,-19.116134643554688
1751013397342533600,2.06453369140625,-383.6204833984375,-200.3119354248047,-19.29876708984375
1751013397352576500,2.074576416015625,-383.5684509277344,-200.82652282714844,-18.926651000976562
1751013397362620700,2.08462060546875,-383.69451904296875,-200.38922119140625,-18.997802734375
1751013397372662500,2.09466259765625,-383.57098388671875,-200.81817626953125,-18.864028930664062
1751013397382704400,2.104704345703125,-383.5511474609375,-200.4234161376953,-18.911514282226562
1751013397392747500,2.11474755859375,-383.64434814453125,-200.46556091308594,-18.957199096679688
1751013397402789400,2.124789306640625,-383.5496826171875,-200.3170166015625,-18.87164306640625
1751013397412833500,2.13483349609375,-382.9953918457031,-200.38882446289062,-18.686248779296875
1751013397422875400,2.14487548828125,-383.40576171875,-200.23187255859375,-18.897552490234375
1751013397432919600,2.15491943359375,-383.049560546875,-200.5326385498047,-18.50189208984375
1751013397442962400,2.16496240234375,-382.9710693359375,-200.32533264160156,-18.517745971679688
1751013397453005600,2.175005615234375,-383.0542907714844,-200.7151336669922,-18.737594604492188
1751013397463047400,2.18504736328125,-383.29754638671875,-200.49583435058594,-18.750564575195312
1751013397473090300,2.19509033203125,-383.48773193359375,-200.79757690429688,-18.947708129882812
1751013397483133400,2.205133544921875,-383.05047607421875,-200.4691619873047,-18.686309814453125
1751013397493176600,2.215176513671875,-383.33050537109375,-200.79544067382812,-19.010482788085938
1751013397503219500,2.225219482421875,-383.32342529296875,-200.58482360839844,-19.05340576171875
1751013397513262600,2.2352626953125,-382.70306396484375,-200.4861602783203,-18.900970458984375
1751013397523304400,2.245304443359375,-383.11480712890625,-200.56182861328125,-18.923355102539062
1751013397533346300,2.25534619140625,-383.2236328125,-200.89744567871094,-18.55194091796875
1751013397543389400,2.265389404296875,-382.2802734375,-200.80007934570312,-19.052932739257812
1751013397553432600,2.2754326171875,-382.98065185546875,-201.23110961914062,-19.118026733398438
1751013397563475500,2.285475341796875,-383.408203125,-200.46742248535156,-18.734481811523438
1751013397573518600,2.2955185546875,-383.4122009277344,-200.759033203125,-18.85296630859375
1751013397583561500,2.3055615234375,-383.5014953613281,-200.44168090820312,-19.137420654296875
1751013397593604600,2.3156044921875,-383.0314636230469,-200.73805236816406,-19.232376098632812
1751013397603648500,2.3256484375,-383.3814392089844,-200.50875854492188,-18.95489501953125
1751013397613691600,2.335691650390625,-383.46002197265625,-200.81748962402344,-18.86260986328125
1751013397623734500,2.345734619140625,-382.9555969238281,-200.6555633544922,-18.820205688476562
1751013397633776400,2.3557763671875,-383.51177978515625,-200.7018585205078,-18.991989135742188
1751013397643818500,2.365818603515625,-383.24432373046875,-200.74203491210938,-18.91705322265625
1751013397653860600,2.375860595703125,-383.3121032714844,-200.72923278808594,-18.893661499023438
1751013397663903500,2.385903564453125,-383.309326171875,-200.75669860839844,-19.042327880859375
1751013397673945300,2.3959453125,-383.23382568359375,-200.6549530029297,-19.047592163085938
1751013397683988500,2.405988525390625,-383.2498779296875,-200.67044067382812,-19.044158935546875
1751013397694032400,2.416032470703125,-383.55865478515625,-200.71556091308594,-19.2347412109375
1751013397704074500,2.426074462890625,-383.0567626953125,-200.75791931152344,-18.773178100585938
1751013397714116600,2.43611669921875,-383.12408447265625,-200.78683471679688,-19.04052734375
1751013397724158500,2.446158447265625,-383.96954345703125,-200.67428588867188,-19.305862426757812
1751013397734200600,2.45620068359375,-383.17657470703125,-200.7187042236328,-19.040878295898438
1751013397744242400,2.466242431640625,-383.9515686035156,-200.476806640625,-19.099899291992188
1751013397754283500,2.476283447265625,-382.66143798828125,-200.7052001953125,-19.128799438476562
1751013397764325400,2.486325439453125,-383.05426025390625,-200.6282958984375,-18.968002319335938
1751013397774367500,2.496367431640625,-383.2391662597656,-200.8128662109375,-19.125885009765625
1751013397784409600,2.50640966796875,-383.9226379394531,-200.3927001953125,-18.90728759765625
1751013397794452500,2.516452392578125,-383.4478454589844,-200.65432739257812,-18.907272338867188
1751013397804494300,2.526494384765625,-383.69659423828125,-200.59033203125,-18.817855834960938
1751013397814536400,2.536536376953125,-383.3585205078125,-200.73193359375,-18.632217407226562
1751013397824578600,2.54657861328125,-382.78399658203125,-200.5576629638672,-18.428558349609375
1751013397834620400,2.556620361328125,-383.640380859375,-200.77427673339844,-18.696029663085938
1751013397844662500,2.56666259765625,-382.7536315917969,-200.45553588867188,-18.412429809570312
1751013397854704400,2.576704345703125,-383.3056640625,-200.76144409179688,-18.961578369140625
1751013397864746500,2.58674658203125,-383.51171875,-200.76797485351562,-18.874298095703125
1751013397874787600,2.59678759765625,-383.5321350097656,-200.3719024658203,-19.163909912109375
1751013397884829400,2.606829345703125,-383.4890441894531,-200.51263427734375,-18.936569213867188
1751013397894870500,2.61687060546875,-383.7586669921875,-201.11849975585938,-19.120651245117188
1751013397904911600,2.62691162109375,-383.0816650390625,-200.51296997070312,-18.845840454101562
1751013397914952400,2.636952392578125,-383.52056884765625,-200.6860809326172,-19.274276733398438
1751013397924993500,2.64699365234375,-383.21832275390625,-200.72694396972656,-18.704910278320312
1751013397935035400,2.657035400390625,-383.3337097167969,-200.4962158203125,-19.047927856445312
1751013397945076500,2.667076416015625,-383.24737548828125,-200.52943420410156,-18.884445190429688
1751013397955117600,2.67711767578125,-383.7774658203125,-200.3952178955078,-19.068954467773438
1751013397965159400,2.687159423828125,-383.69244384765625,-200.33692932128906,-18.978561401367188
1751013397975200500,2.697200439453125,-383.50689697265625,-200.7971954345703,-18.8905029296875
1751013397985242400,2.707242431640625,-382.98419189453125,-200.72036743164062,-18.699417114257812
1751013397995284500,2.717284423828125,-383.44647216796875,-200.55654907226562,-19.101943969726562
1751013398005326600,2.72732666015625,-383.8330383300781,-200.78445434570312,-18.969879150390625
1751013398015368400,2.737368408203125,-383.73736572265625,-200.83786010742188,-18.875045776367188
1751013398025410300,2.747410400390625,-383.19866943359375,-200.74864196777344,-18.485519409179688
1751013398035452400,2.757452392578125,-383.51177978515625,-201.03741455078125,-18.923690795898438
1751013398045494500,2.76749462890625,-383.48577880859375,-200.27264404296875,-18.489700317382812
1751013398055536400,2.777536376953125,-383.7412414550781,-200.81614685058594,-18.7384033203125
1751013398065577500,2.787577392578125,-383.0805358886719,-200.4673309326172,-18.468673706054688
1751013398075618600,2.79761865234375,-383.62445068359375,-200.6451416015625,-18.683685302734375
1751013398085661400,2.807661376953125,-383.231689453125,-200.46121215820312,-18.950057983398438
1751013398095702500,2.81770263671875,-383.28594970703125,-200.5176239013672,-18.989364624023438
1751013398105743400,2.827743408203125,-383.7959289550781,-200.46385192871094,-18.461959838867188
1751013398115785500,2.837785400390625,-383.505859375,-200.760498046875,-18.95953369140625
1751013398125826300,2.847826416015625,-383.6922607421875,-200.9146270751953,-18.829757690429688
1751013398135867400,2.857867431640625,-383.7137756347656,-200.88998413085938,-18.667404174804688
1751013398145909500,2.867909423828125,-383.534423828125,-200.60760498046875,-18.56317138671875
1751013398155951600,2.87795166015625,-383.42755126953125,-200.80519104003906,-18.854721069335938
1751013398165993500,2.887993408203125,-383.6199951171875,-200.25003051757812,-18.97509765625
1751013398176035300,2.898035400390625,-383.69207763671875,-200.91583251953125,-18.882339477539062
1751013398186077400,2.908077392578125,-383.569580078125,-200.64927673339844,-18.785430908203125
1751013398196120600,2.91812060546875,-383.23956298828125,-200.36245727539062,-18.948440551757812
1751013398206163500,2.92816357421875,-383.4530029296875,-200.12155151367188,-18.651641845703125
1751013398216206600,2.93820654296875,-383.4074401855469,-200.6573028564453,-18.891754150390625
1751013398226247400,2.948247314453125,-383.561767578125,-200.4542694091797,-18.745803833007812
1751013398236289500,2.95828955078125,-383.154052734375,-200.7211151123047,-18.748947143554688
1751013398246331400,2.968331298828125,-383.0113525390625,-200.4749298095703,-18.687637329101562
1751013398256372500,2.97837255859375,-383.40216064453125,-200.61727905273438,-18.681442260742188
1751013398266414300,2.988414306640625,-383.852783203125,-200.80531311035156,-18.822158813476562
1751013398276457500,2.99845751953125,-383.3385009765625,-200.39942932128906,-18.6094970703125
1751013398286499600,3.00849951171875,-383.41845703125,-200.45777893066406,-18.518951416015625
1751013398296540400,3.01854052734375,-383.59912109375,-200.45826721191406,-18.804916381835938
1751013398306582500,3.02858251953125,-384.04754638671875,-200.39202880859375,-18.800750732421875
1751013398316627000,3.038626953125,-384.0312194824219,-200.42864990234375,-18.564468383789062
1751013398326669000,3.0486689453125,-384.0849304199219,-200.4677734375,-18.853317260742188
1751013398336710000,3.0587099609375,-383.70135498046875,-200.7101593017578,-18.546432495117188
1751013398346751000,3.0687509765625,-383.7259521484375,-200.67982482910156,-18.731414794921875
1751013398356788000,3.0787880859375,-383.5660705566406,-200.4215850830078,-18.523193359375
1751013398366836000,3.0888359375,-383.67730712890625,-200.4791259765625,-18.669189453125
1751013398376878000,3.098878173828125,-383.12713623046875,-200.329345703125,-18.139572143554688
1751013398386921000,3.1089208984375,-382.94140625,-200.367919921875,-18.689956665039062
1751013398396962800,3.118962890625,-383.38671875,-200.62020874023438,-18.46331787109375
1751013398407006000,3.129005859375,-383.4198913574219,-200.60470581054688,-18.663162231445312
1751013398417048000,3.139048095703125,-383.07281494140625,-200.2519073486328,-18.553955078125
1751013398427092000,3.149092041015625,-383.16827392578125,-200.25523376464844,-18.516555786132812
1751013398437133000,3.159133056640625,-383.21661376953125,-200.55392456054688,-18.14862060546875
1751013398447174100,3.169174072265625,-382.68487548828125,-200.43858337402344,-18.339324951171875
1751013398457217000,3.179217041015625,-382.99591064453125,-200.68148803710938,-18.415008544921875
1751013398467259000,3.1892587890625,-383.16094970703125,-200.310791015625,-18.081756591796875
1751013398477302000,3.199302001953125,-383.56866455078125,-200.22914123535156,-18.26788330078125
1751013398487344000,3.20934423828125,-382.93115234375,-200.719482421875,-18.2955322265625
1751013398497387000,3.219386962890625,-383.04388427734375,-200.69216918945312,-18.305389404296875
1751013398507430100,3.22943017578125,-383.4961242675781,-200.90354919433594,-17.969497680664062
1751013398517473000,3.23947314453125,-383.8666687011719,-200.3701934814453,-18.568023681640625
1751013398527515000,3.249514892578125,-383.6583251953125,-200.55043029785156,-18.2852783203125
1751013398537558000,3.25955810546875,-383.7355651855469,-200.7162628173828,-18.345108032226562
1751013398547600100,3.26960009765625,-383.06805419921875,-200.37701416015625,-18.471694946289062
1751013398557642000,3.27964208984375,-382.61981201171875,-200.2628936767578,-18.45281982421875
1751013398567683800,3.289683837890625,-383.2364501953125,-200.48928833007812,-18.45965576171875
1751013398577723100,3.29972314453125,-383.6227722167969,-200.79063415527344,-18.427719116210938
1751013398587771000,3.30977099609375,-383.21820068359375,-200.5449676513672,-18.281967163085938
1751013398597814000,3.31981396484375,-383.1581115722656,-200.65528869628906,-18.355010986328125
1751013398607857000,3.32985693359375,-383.6174011230469,-200.68727111816406,-18.383209228515625
1751013398617901000,3.339901123046875,-383.57098388671875,-200.6317138671875,-18.58477783203125
1751013398627943000,3.34994287109375,-383.12451171875,-200.70042419433594,-18.253677368164062
1751013398637986000,3.359986083984375,-383.66070556640625,-200.58450317382812,-18.684585571289062
1751013398648028000,3.37002783203125,-383.3725891113281,-200.42054748535156,-18.50250244140625
1751013398658069000,3.380069091796875,-382.8182678222656,-200.45008850097656,-18.131851196289062
1751013398668111000,3.390111083984375,-383.1519775390625,-200.29478454589844,-18.547271728515625
1751013398678152200,3.400152099609375,-383.8131408691406,-200.50115966796875,-18.213943481445312
1751013398688195000,3.410195068359375,-383.6370849609375,-200.66810607910156,-18.379623413085938
1751013398698237000,3.42023681640625,-383.74359130859375,-200.38027954101562,-18.807891845703125
1751013398708278800,3.43027880859375,-383.27740478515625,-200.3574676513672,-18.396499633789062
1751013398718319900,3.44031982421875,-383.8853759765625,-200.58041381835938,-18.7535400390625
1751013398728361000,3.45036083984375,-383.3536682128906,-200.67874145507812,-18.482223510742188
1751013398738401800,3.46040185546875,-383.04815673828125,-200.3855438232422,-18.690628051757812
1751013398748443000,3.47044287109375,-383.46417236328125,-200.34530639648438,-18.469863891601562
1751013398758485000,3.480485107421875,-383.7406311035156,-200.2637939453125,-18.710113525390625
1751013398768527000,3.490527099609375,-383.12603759765625,-200.36798095703125,-18.664382934570312
1751013398778568000,3.50056787109375,-383.08837890625,-200.74671936035156,-18.4866943359375
1751013398788609000,3.510609130859375,-382.9458923339844,-200.5001678466797,-18.286407470703125
1751013398798650000,3.520650146484375,-383.3591003417969,-200.4159698486328,-18.954330444335938
1751013398808692000,3.53069189453125,-382.980712890625,-200.63621520996094,-18.7740478515625
1751013398818733000,3.540733154296875,-383.2828063964844,-200.25088500976562,-18.496597290039062
1751013398828775000,3.55077490234375,-382.9812927246094,-200.31346130371094,-18.699203491210938
1751013398838816800,3.560816650390625,-383.25677490234375,-200.40975952148438,-18.5631103515625
1751013398848859100,3.570859130859375,-383.13958740234375,-200.24404907226562,-18.798355102539062
1751013398858899000,3.58089892578125,-383.4952697753906,-200.25953674316406,-18.75439453125
1751013398868941000,3.590941162109375,-383.2444152832031,-200.17686462402344,-18.697265625
1751013398878983000,3.60098291015625,-383.1025390625,-200.60443115234375,-18.997756958007812
1751013398889024000,3.61102392578125,-383.53143310546875,-200.73870849609375,-18.73468017578125
1751013398899064000,3.62106396484375,-383.3175048828125,-200.76527404785156,-18.464859008789062
1751013398909102800,3.631102783203125,-383.2377624511719,-200.71591186523438,-18.800613403320312
1751013398919143000,3.641142822265625,-383.32598876953125,-200.5802764892578,-18.64898681640625
1751013398929182000,3.651181884765625,-382.80718994140625,-200.29598999023438,-18.675460815429688
1751013398939221000,3.661220947265625,-383.30853271484375,-200.88742065429688,-18.5772705078125
1751013398949261000,3.671260986328125,-383.46771240234375,-200.7828369140625,-18.565032958984375
1751013398959301000,3.681301025390625,-383.14202880859375,-200.81109619140625,-18.593612670898438
1751013398969342000,3.691342041015625,-383.147216796875,-200.8873291015625,-18.598052978515625
1751013398979382000,3.701382080078125,-383.07196044921875,-200.7267608642578,-18.758468627929688
1751013398989423000,3.711423095703125,-382.7734375,-200.59646606445312,-18.945343017578125
1751013398999463200,3.721463134765625,-383.2772521972656,-200.41329956054688,-18.622482299804688
1751013399009503000,3.7315029296875,-382.80499267578125,-200.8561248779297,-18.456207275390625
1751013399019543800,3.741543701171875,-383.204833984375,-200.224853515625,-18.561370849609375
1751013399029585000,3.7515849609375,-383.06390380859375,-200.47708129882812,-18.880722045898438
1751013399039626000,3.7616259765625,-383.08099365234375,-200.51983642578125,-18.841461181640625
1751013399049666000,3.771666015625,-382.9521789550781,-200.5475616455078,-18.95880126953125
1751013399059709200,3.781709228515625,-383.0873107910156,-200.2950897216797,-18.891891479492188
1751013399069752000,3.791751953125,-383.0123291015625,-200.50482177734375,-18.959930419921875
1751013399079793000,3.80179296875,-383.47442626953125,-200.35910034179688,-18.846832275390625
1751013399089835800,3.811835693359375,-383.4175720214844,-200.9521026611328,-19.111541748046875
1751013399099880000,3.8218798828125,-383.6652526855469,-200.31268310546875,-18.860458374023438
1751013399109921000,3.831921142578125,-383.90570068359375,-200.6024169921875,-18.79608154296875
1751013399119961000,3.841961181640625,-383.5084533691406,-200.3363037109375,-18.735443115234375
1751013399130002000,3.852001953125,-383.580322265625,-200.1928253173828,-18.455154418945312
1751013399140043000,3.86204296875,-383.62109375,-199.81019592285156,-18.871109008789062
1751013399150084000,3.872083984375,-383.6861572265625,-200.29995727539062,-18.907379150390625
1751013399160126000,3.8821259765625,-383.7856140136719,-200.5120391845703,-18.937728881835938
1751013399170167000,3.8921669921875,-383.5498046875,-200.31900024414062,-18.885452270507812
1751013399180207000,3.90220703125,-383.93927001953125,-199.9734344482422,-18.876556396484375
1751013399190247200,3.9122470703125,-383.15350341796875,-200.32554626464844,-18.820388793945312
1751013399200288000,3.9222880859375,-383.60748291015625,-200.09567260742188,-18.880722045898438
1751013399210326800,3.932326904296875,-383.33294677734375,-200.1735076904297,-18.727752685546875
1751013399220366800,3.942366943359375,-383.2667541503906,-200.163818359375,-19.002792358398438
1751013399230408000,3.952407958984375,-383.2354736328125,-200.68345642089844,-19.1673583984375
1751013399240449000,3.962448974609375,-383.0144958496094,-200.16053771972656,-19.126815795898438
1751013399250489000,3.972489013671875,-383.89569091796875,-200.3831787109375,-18.829208374023438
1751013399260530000,3.982530029296875,-383.8138122558594,-200.01406860351562,-19.07489013671875
1751013399270572000,3.992572021484375,-383.632080078125,-200.49932861328125,-18.9775390625
1751013399280612900,4.00261279296875,-383.84515380859375,-200.38101196289062,-18.902297973632812
1751013399290654000,4.012654052734375,-383.72216796875,-200.61329650878906,-18.897598266601562
1751013399300695000,4.022695068359375,-383.5079345703125,-200.1373748779297,-19.058090209960938
1751013399310737000,4.03273681640625,-384.1903076171875,-200.38685607910156,-19.150054931640625
1751013399320775400,4.042775390625,-383.83258056640625,-200.29869079589844,-19.251617431640625
1751013399330816500,4.05281640625,-383.404296875,-200.66192626953125,-19.1693115234375
1751013399340858400,4.0628583984375,-383.5639953613281,-200.31637573242188,-19.264678955078125
1751013399350899500,4.0728994140625,-383.4725341796875,-200.45933532714844,-19.034576416015625
1751013399360940500,4.0829404296875,-383.33819580078125,-200.24588012695312,-19.282455444335938
1751013399370980600,4.092980712890625,-383.6908874511719,-200.3860321044922,-19.008224487304688
1751013399381021400,4.103021484375,-384.0138854980469,-199.8197479248047,-19.150588989257812
1751013399391062500,4.1130625,-383.4878845214844,-200.24951171875,-18.978927612304688
1751013399401103600,4.123103515625,-383.9732666015625,-199.84619140625,-19.275192260742188
1751013399411144400,4.13314453125,-383.61865234375,-200.79998779296875,-19.172332763671875
1751013399421185500,4.143185546875,-383.7679443359375,-200.0424041748047,-19.076644897460938
1751013399431226400,4.153226318359375,-383.504150390625,-200.1621551513672,-18.76123046875
1751013399441267500,4.163267333984375,-383.46514892578125,-200.09461975097656,-18.89007568359375
1751013399451309600,4.1733095703125,-383.3763122558594,-200.48388671875,-18.748580932617188
1751013399461350400,4.183350341796875,-383.7384033203125,-200.3485870361328,-18.647552490234375
1751013399471392500,4.193392578125,-383.98193359375,-200.44158935546875,-18.579391479492188
1751013399481434600,4.2034345703125,-383.76470947265625,-200.2098388671875,-19.055435180664062
1751013399491475500,4.213475341796875,-383.81134033203125,-200.73291015625,-19.069107055664062
1751013399501517600,4.223517578125,-383.36181640625,-200.221923828125,-18.734786987304688
1751013399511557600,4.2335576171875,-383.9363098144531,-200.3138427734375,-18.827438354492188
1751013399521593600,4.243593505859375,-383.741455078125,-200.06082153320312,-19.327835083007812
1751013399531642400,4.253642333984375,-383.02899169921875,-200.5821533203125,-18.896392822265625
1751013399541685500,4.263685546875,-383.5823974609375,-200.37767028808594,-18.978103637695312
1751013399551728400,4.273728271484375,-383.52471923828125,-200.37493896484375,-18.86151123046875
1751013399561771500,4.283771484375,-383.2068176269531,-199.98162841796875,-18.640518188476562
1751013399571812400,4.293812255859375,-383.4789123535156,-200.28713989257812,-18.537811279296875
1751013399581856500,4.3038564453125,-384.1258544921875,-200.11549377441406,-18.699249267578125
1751013399591898400,4.3138984375,-383.9516296386719,-200.20657348632812,-18.647872924804688
1751013399601940500,4.3239404296875,-383.7095642089844,-200.09120178222656,-18.738113403320312
1751013399611982600,4.333982666015625,-384.1750793457031,-200.2233123779297,-18.847564697265625
1751013399622024400,4.3440244140625,-383.8272399902344,-199.81361389160156,-19.041366577148438
1751013399632068400,4.354068359375,-383.5609130859375,-200.13986206054688,-18.994049072265625
1751013399642110500,4.3641103515625,-383.45513916015625,-200.15164184570312,-19.091156005859375
1751013399652151600,4.374151611328125,-383.8267517089844,-200.28579711914062,-18.870681762695312
1751013399662194400,4.3841943359375,-384.28631591796875,-200.18038940429688,-18.9853515625
1751013399672237300,4.3942373046875,-383.71624755859375,-199.84117126464844,-18.814910888671875
1751013399682280400,4.404280517578125,-383.85980224609375,-199.60166931152344,-19.002670288085938
1751013399692323300,4.4143232421875,-383.9525146484375,-200.09263610839844,-18.84600830078125
1751013399702367500,4.424367431640625,-382.9031677246094,-199.81326293945312,-18.474075317382812
1751013399712410400,4.434410400390625,-383.70941162109375,-200.0096435546875,-18.821807861328125
1751013399722452500,4.444452392578125,-383.19537353515625,-199.84031677246094,-18.632858276367188
1751013399732495600,4.45449560546875,-383.5196533203125,-199.8280029296875,-18.600692749023438
1751013399742534400,4.464534423828125,-383.64959716796875,-199.91033935546875,-18.59130859375
1751013399752583400,4.47458349609375,-383.518310546875,-200.26531982421875,-18.999038696289062
1751013399762627300,4.48462744140625,-383.05926513671875,-199.95787048339844,-18.82196044921875
1751013399772667400,4.49466748046875,-383.4490051269531,-199.9456329345703,-18.713226318359375
1751013399782716400,4.50471630859375,-383.4949951171875,-200.01461791992188,-18.50518798828125
1751013399792760300,4.51476025390625,-383.1346130371094,-200.13201904296875,-18.729507446289062
1751013399802799400,4.52479931640625,-383.3652648925781,-199.76731872558594,-18.734054565429688
1751013399812847400,4.534847412109375,-383.44073486328125,-199.87167358398438,-18.853958129882812
1751013399822890500,4.544890380859375,-383.6822814941406,-200.1517791748047,-19.216522216796875
1751013399832933400,4.554933349609375,-383.44610595703125,-200.0023651123047,-19.070663452148438
1751013399842974500,4.564974365234375,-383.4468688964844,-200.3313446044922,-18.995346069335938
1751013399853016300,4.575016357421875,-383.1913146972656,-200.2231903076172,-19.019332885742188
1751013399863058700,4.58505859375,-383.65936279296875,-200.0053253173828,-18.95166015625
1751013399873100500,4.5951005859375,-383.4628601074219,-200.14370727539062,-18.950973510742188
1751013399883142400,4.605142333984375,-384.0402526855469,-200.00820922851562,-19.420013427734375
1751013399893184500,4.6151845703125,-383.7977294921875,-200.24786376953125,-18.897125244140625
1751013399903226400,4.625226318359375,-382.71612548828125,-200.27317810058594,-18.929702758789062
1751013399913268500,4.6352685546875,-383.681884765625,-200.41610717773438,-18.868804931640625
1751013399923309600,4.6453095703125,-383.61053466796875,-200.18858337402344,-18.927413940429688
1751013399933350700,4.6553505859375,-383.4687194824219,-200.34478759765625,-18.97412109375
1751013399943390500,4.665390380859375,-383.233154296875,-200.36203002929688,-19.123123168945312
1751013399953432600,4.6754326171875,-383.04876708984375,-200.28602600097656,-19.528152465820312
1751013399963473700,4.6854736328125,-383.154541015625,-199.82679748535156,-19.018356323242188
1751013399973515500,4.695515625,-383.7000732421875,-199.81724548339844,-19.097640991210938
1751013399983557400,4.705557373046875,-383.8745422363281,-200.10845947265625,-18.873382568359375
1751013399993599500,4.715599609375,-383.1377868652344,-200.0479278564453,-19.039031982421875
1751013400003642600,4.725642578125,-383.2001647949219,-199.8525848388672,-18.870773315429688
1751013400013684500,4.7356845703125,-383.5208435058594,-200.2145538330078,-18.926544189453125
1751013400023726300,4.745726318359375,-383.705078125,-199.94781494140625,-19.110504150390625
1751013400033768400,4.7557685546875,-383.24969482421875,-200.04403686523438,-19.001220703125
1751013400043810300,4.765810302734375,-383.5502014160156,-200.095947265625,-18.850601196289062
1751013400053852700,4.775852783203125,-383.6551513671875,-200.3811492919922,-19.35186767578125
1751013400063893500,4.7858935546875,-383.16900634765625,-200.1144256591797,-18.832733154296875
1751013400073935600,4.795935546875,-383.459228515625,-200.18699645996094,-18.922531127929688
1751013400083977500,4.8059775390625,-382.9732971191406,-200.13143920898438,-18.997909545898438
1751013400094020400,4.816020263671875,-383.55133056640625,-200.51600646972656,-19.116439819335938
1751013400104064500,4.826064453125,-383.59661865234375,-200.28961181640625,-18.825210571289062
1751013400114106400,4.8361064453125,-383.4434509277344,-200.51815795898438,-19.132049560546875
1751013400124148500,4.8461484375,-383.6449890136719,-200.11561584472656,-18.4991455078125
1751013400134191600,4.856191650390625,-383.550048828125,-200.4639434814453,-19.272979736328125
1751013400144230400,4.86623046875,-383.25640869140625,-200.18240356445312,-18.869476318359375
1751013400154279400,4.876279541015625,-383.5224914550781,-200.39320373535156,-18.794876098632812
1751013400164321500,4.886321533203125,-383.21112060546875,-200.1536407470703,-18.839080810546875
1751013400174364700,4.89636474609375,-382.95684814453125,-200.22349548339844,-18.5555419921875
1751013400184408300,4.906408203125,-382.99530029296875,-200.48175048828125,-19.099777221679688
1751013400194450400,4.916450439453125,-383.69775390625,-199.9827880859375,-18.937774658203125
1751013400204494600,4.92649462890625,-383.62054443359375,-200.35963439941406,-18.84320068359375
1751013400214536400,4.936536376953125,-383.8196105957031,-200.2111358642578,-19.00396728515625
1751013400224578300,4.946578369140625,-383.8685302734375,-200.34695434570312,-19.266357421875
1751013400234622500,4.95662255859375,-383.5726318359375,-200.45803833007812,-18.99969482421875
1751013400244666600,4.96666650390625,-383.833984375,-200.43057250976562,-19.11822509765625
1751013400254710500,4.97671044921875,-383.52020263671875,-200.3613739013672,-19.018142700195312
1751013400264753700,4.986753662109375,-383.6221923828125,-200.3079833984375,-19.27728271484375
1751013400274797300,4.99679736328125,-383.53631591796875,-200.3295440673828,-19.274429321289062
1751013400284840700,5.0068408203125,-383.82550048828125,-200.19488525390625,-19.347152709960938
1751013400294883600,5.016883544921875,-383.0885009765625,-200.41073608398438,-19.082748413085938
1751013400304925400,5.026925537109375,-383.208984375,-200.77003479003906,-19.191024780273438
1751013400314969300,5.03696923828125,-383.59246826171875,-200.28160095214844,-19.00537109375
1751013400325012200,5.04701220703125,-383.3699951171875,-200.35983276367188,-18.885330200195312
1751013400335055000,5.05705517578125,-383.7322998046875,-200.2581329345703,-19.280899047851562
1751013400345099300,5.067099365234375,-383.69635009765625,-199.97024536132812,-19.101425170898438
1751013400355142100,5.07714208984375,-383.5269470214844,-200.09019470214844,-18.908294677734375
1751013400365185300,5.087185302734375,-383.686279296875,-200.13912963867188,-19.090164184570312
1751013400375229200,5.097229248046875,-383.8155212402344,-199.82525634765625,-18.891159057617188
1751013400385272300,5.107272216796875,-383.65753173828125,-200.27471923828125,-19.222015380859375
1751013400395315200,5.117315185546875,-383.3228759765625,-200.0858154296875,-18.848373413085938
1751013400405353200,5.127353271484375,-383.539794921875,-200.02471923828125,-19.216445922851562
1751013400415397000,5.137397216796875,-383.2169189453125,-200.36859130859375,-19.001190185546875
1751013400425446100,5.147446044921875,-383.87884521484375,-200.06646728515625,-19.124710083007812
1751013400435489300,5.1574892578125,-383.94024658203125,-200.303955078125,-19.089569091796875
1751013400445533200,5.167533203125,-384.00067138671875,-200.45948791503906,-19.003448486328125
1751013400455576000,5.177576171875,-383.2401428222656,-200.30010986328125,-19.014541625976562
1751013400465619200,5.187619140625,-383.6343078613281,-200.2154998779297,-19.231658935546875
1751013400475662300,5.197662353515625,-383.45098876953125,-200.431640625,-19.36676025390625
1751013400485705200,5.207705322265625,-383.7216796875,-200.33816528320312,-19.216888427734375
1751013400495749000,5.2177490234375,-383.20159912109375,-200.50650024414062,-18.943862915039062
1751013400505793300,5.227793212890625,-384.07403564453125,-200.296875,-19.058807373046875
1751013400515836200,5.237836181640625,-383.41070556640625,-200.00025939941406,-19.338485717773438
1751013400525878300,5.247878173828125,-383.91082763671875,-200.38565063476562,-19.191299438476562
1751013400535920000,5.257920166015625,-383.40545654296875,-200.2230224609375,-19.10357666015625
1751013400545963300,5.26796337890625,-383.9117431640625,-200.5100555419922,-19.073944091796875
1751013400556007200,5.278007080078125,-383.416015625,-200.3360595703125,-18.953033447265625
1751013400566049300,5.28804931640625,-383.1868591308594,-200.41444396972656,-19.19927978515625
1751013400576093200,5.29809326171875,-383.93658447265625,-200.23472595214844,-19.150421142578125
1751013400586135000,5.308135009765625,-383.49822998046875,-200.22605895996094,-19.175567626953125
1751013400596177400,5.318177490234375,-383.478515625,-200.163330078125,-18.694839477539062
1751013400606220300,5.32822021484375,-383.52069091796875,-199.93661499023438,-19.34564208984375
1751013400616262100,5.33826220703125,-383.8410949707031,-200.15232849121094,-19.077255249023438
1751013400626304300,5.34830419921875,-383.844970703125,-200.50062561035156,-19.14007568359375
1751013400636347400,5.358347412109375,-383.4388732910156,-200.58905029296875,-19.024948120117188
1751013400646390300,5.368390380859375,-383.6346740722656,-200.49441528320312,-19.043075561523438
1751013400656434200,5.37843408203125,-383.43621826171875,-200.11520385742188,-19.131820678710938
1751013400666477300,5.388477294921875,-383.41546630859375,-200.51217651367188,-18.789108276367188
1751013400676521200,5.398521240234375,-383.5713806152344,-200.68963623046875,-19.087127685546875
1751013400686564000,5.408564208984375,-383.4405517578125,-200.2577362060547,-19.25640869140625
1751013400696606200,5.418606201171875,-383.518310546875,-200.50045776367188,-18.897796630859375
1751013400706647000,5.42864697265625,-383.4917297363281,-200.189697265625,-19.079238891601562
1751013400716688100,5.438688232421875,-383.6888427734375,-200.2754364013672,-19.107223510742188
1751013400726730000,5.44872998046875,-383.3641357421875,-200.08949279785156,-18.903564453125
1751013400736771000,5.45877099609375,-383.14532470703125,-200.25949096679688,-19.140304565429688
1751013400746813200,5.468813232421875,-383.96026611328125,-200.30772399902344,-18.900177001953125
1751013400756855300,5.478855224609375,-383.549560546875,-200.17208862304688,-18.753997802734375
1751013400766897200,5.488897216796875,-383.6160888671875,-199.70608520507812,-18.769927978515625
1751013400776940000,5.49893994140625,-383.81976318359375,-200.0784912109375,-18.741958618164062
1751013400786982400,5.508982421875,-383.616455078125,-200.22482299804688,-18.72039794921875
1751013400797023200,5.519023193359375,-384.10150146484375,-200.49562072753906,-19.01776123046875
1751013400807065300,5.5290654296875,-383.6883544921875,-199.992431640625,-19.105758666992188
1751013400817107200,5.539107177734375,-383.9837341308594,-199.84796142578125,-19.021728515625
1751013400827149000,5.549149169921875,-383.98541259765625,-199.9824981689453,-18.876983642578125
1751013400837191200,5.559191162109375,-383.8072509765625,-200.50250244140625,-18.770462036132812
1751013400847232300,5.569232177734375,-383.69000244140625,-200.28318786621094,-18.8048095703125
1751013400857274400,5.5792744140625,-383.68463134765625,-200.23611450195312,-18.96142578125
1751013400867315200,5.589315185546875,-383.46466064453125,-200.34393310546875,-18.782089233398438
1751013400877358000,5.599358154296875,-383.5142517089844,-200.2314453125,-18.836944580078125
1751013400887399200,5.609399169921875,-383.46826171875,-200.33236694335938,-19.207717895507812
1751013400897440300,5.619440185546875,-383.52288818359375,-200.45582580566406,-19.1365966796875
1751013400907480300,5.629480224609375,-383.3477783203125,-200.2997283935547,-19.003662109375
1751013400917521200,5.639521240234375,-383.44329833984375,-200.76412963867188,-19.024932861328125
1751013400927561200,5.649561279296875,-383.28790283203125,-200.34487915039062,-19.03436279296875
1751013400937602300,5.659602294921875,-383.92327880859375,-200.36734008789062,-18.860336303710938
1751013400947642400,5.669642333984375,-383.5823669433594,-200.01670837402344,-18.731216430664062
1751013400957682200,5.67968212890625,-383.9044189453125,-200.3187255859375,-19.1885986328125
1751013400967722200,5.68972216796875,-383.5494384765625,-199.77130126953125,-18.950393676757812
1751013400977763000,5.69976318359375,-383.0461120605469,-200.5184326171875,-19.101394653320312
1751013400987805200,5.70980517578125,-383.1405029296875,-200.35874938964844,-19.104248046875
1751013400997847300,5.719847412109375,-383.4613952636719,-200.30374145507812,-18.966598510742188
1751013401007889200,5.72988916015625,-383.7056579589844,-200.3376922607422,-18.92474365234375
1751013401017931300,5.73993115234375,-383.6256103515625,-200.2481689453125,-18.880722045898438
1751013401027973000,5.74997314453125,-383.37310791015625,-200.08255004882812,-19.10748291015625
1751013401038016300,5.760016357421875,-383.87249755859375,-199.8092041015625,-18.591781616210938
1751013401048058400,5.770058349609375,-383.55157470703125,-200.02159118652344,-18.9095458984375
1751013401058101200,5.780101318359375,-383.60333251953125,-200.47103881835938,-19.253860473632812
1751013401068144400,5.790144287109375,-383.09710693359375,-200.32171630859375,-18.741455078125
1751013401078186200,5.800186279296875,-383.2065734863281,-200.3159637451172,-18.965911865234375
1751013401088224300,5.810224365234375,-382.98046875,-200.3943328857422,-19.35968017578125
1751013401098271200,5.820271240234375,-383.2125244140625,-200.59417724609375,-19.117446899414062
1751013401108315100,5.830315185546875,-382.94805908203125,-200.63446044921875,-19.118576049804688
1751013401118357200,5.840357177734375,-383.2252197265625,-200.3014678955078,-19.391738891601562
1751013401128398000,5.850398193359375,-382.96942138671875,-200.53402709960938,-19.363494873046875
1751013401138440200,5.860440185546875,-383.0986633300781,-200.53948974609375,-19.33807373046875
1751013401148481000,5.87048095703125,-383.24169921875,-200.60751342773438,-19.156341552734375
1751013401158523400,5.8805234375,-383.259033203125,-200.70211791992188,-19.363723754882812
1751013401168566300,5.890566162109375,-383.41595458984375,-200.71420288085938,-19.269546508789062
1751013401178608000,5.900608154296875,-383.2010803222656,-200.8244171142578,-19.195663452148438
1751013401188650200,5.910650146484375,-383.40985107421875,-200.85206604003906,-19.020843505859375
1751013401198691000,5.920691162109375,-383.45245361328125,-200.75164794921875,-19.290435791015625
1751013401208732200,5.930732177734375,-383.6885070800781,-200.69219970703125,-18.95135498046875
1751013401218774300,5.940774169921875,-382.67059326171875,-200.620361328125,-19.160964965820312
1751013401228816400,5.95081640625,-383.5179443359375,-200.421875,-18.85699462890625
1751013401238859300,5.960859375,-383.41156005859375,-200.58026123046875,-19.322998046875
1751013401248900000,5.970900146484375,-384.115966796875,-200.7071990966797,-19.042465209960938
1751013401258943200,5.980943115234375,-384.0128173828125,-200.2409210205078,-19.156936645507812
1751013401268985300,5.9909853515625,-383.1034851074219,-200.70310974121094,-19.122543334960938
1751013401279026200,6.001026123046875,-383.47125244140625,-200.3197479248047,-18.830703735351562
1751013401289067300,6.0110673828125,-383.1977233886719,-200.39491271972656,-19.120574951171875
1751013401299107300,6.021107421875,-383.7110595703125,-200.38230895996094,-19.1990966796875
1751013401309150200,6.031150146484375,-383.54803466796875,-200.8057861328125,-18.752288818359375
1751013401319191800,6.04119189453125,-383.386962890625,-200.3744354248047,-18.971771240234375
1751013401329233700,6.051233642578125,-383.34881591796875,-200.67404174804688,-18.634780883789062
1751013401339275500,6.061275634765625,-383.26251220703125,-200.70602416992188,-19.120864868164062
1751013401349317600,6.071317626953125,-382.7984924316406,-200.73985290527344,-18.675689697265625
1751013401359358500,6.0813583984375,-383.05535888671875,-200.489990234375,-19.199996948242188
1751013401369400600,6.091400634765625,-383.0263366699219,-201.1004180908203,-18.832855224609375
1751013401379441400,6.10144140625,-383.02276611328125,-201.16851806640625,-19.03363037109375
1751013401389482500,6.111482421875,-382.36328125,-201.33779907226562,-18.517547607421875
1751013401399521500,6.121521484375,-382.6243896484375,-201.6790313720703,-18.865371704101562
1751013401409562600,6.131562744140625,-382.7476806640625,-201.2615966796875,-18.715362548828125
1751013401419602700,6.141602783203125,-382.52679443359375,-201.22984313964844,-19.15093994140625
1751013401429643500,6.1516435546875,-382.54779052734375,-201.63658142089844,-18.812164306640625
1751013401439684600,6.1616845703125,-382.41796875,-201.2858428955078,-18.98944091796875
1751013401449725700,6.1717255859375,-381.9810791015625,-201.50006103515625,-18.85418701171875
1751013401459764500,6.181764404296875,-382.8564453125,-200.99063110351562,-19.13037109375
1751013401469805800,6.191805908203125,-382.554931640625,-201.1018829345703,-18.853302001953125
1751013401479847700,6.20184765625,-382.8119812011719,-200.45895385742188,-18.721282958984375
1751013401489889500,6.2118896484375,-382.48992919921875,-200.65536499023438,-18.690902709960938
1751013401499931600,6.221931640625,-383.61260986328125,-200.24765014648438,-18.770584106445312
1751013401509973500,6.231973388671875,-383.5578918457031,-200.64552307128906,-18.509735107421875
1751013401520015600,6.242015625,-383.67437744140625,-199.9915008544922,-18.22772216796875
1751013401530057700,6.2520576171875,-383.68304443359375,-200.30502319335938,-18.091659545898438
1751013401540099600,6.262099609375,-383.88055419921875,-199.6470947265625,-18.272979736328125
1751013401550142500,6.272142578125,-383.73248291015625,-200.21864318847656,-18.2562255859375
1751013401560184800,6.282184814453125,-383.59002685546875,-199.4088897705078,-18.429916381835938
1751013401570226700,6.292226806640625,-383.2234802246094,-199.8515625,-18.535919189453125
1751013401580268500,6.3022685546875,-383.42694091796875,-200.0800018310547,-18.844757080078125
1751013401590310700,6.312310546875,-383.3306884765625,-200.35430908203125,-18.5054931640625
1751013401600351500,6.3223515625,-383.45709228515625,-199.93385314941406,-18.47088623046875
1751013401610392600,6.332392578125,-383.04998779296875,-199.8721923828125,-18.366378784179688
1751013401620433700,6.34243359375,-384.08306884765625,-199.62625122070312,-18.591827392578125
1751013401630474500,6.352474609375,-383.4912109375,-200.13575744628906,-18.640228271484375
1751013401640515600,6.362515625,-383.4537353515625,-199.5408477783203,-18.749343872070312
1751013401650556700,6.372556640625,-383.67047119140625,-200.00128173828125,-18.643295288085938
1751013401660598500,6.3825986328125,-383.4999084472656,-199.6822052001953,-18.597885131835938
1751013401670639600,6.3926396484375,-383.0909118652344,-199.98316955566406,-18.67877197265625
1751013401680681700,6.402681640625,-383.4560241699219,-199.93988037109375,-19.270156860351562
1751013401690722800,6.412722900390625,-383.2019348144531,-200.08303833007812,-18.667236328125
1751013401700763600,6.422763671875,-383.8916015625,-199.80548095703125,-18.899429321289062
1751013401710803500,6.432803466796875,-383.4547119140625,-200.2619171142578,-18.965911865234375
1751013401720842500,6.442842529296875,-383.0918884277344,-199.89999389648438,-18.506301879882812
1751013401730882600,6.452882568359375,-383.02655029296875,-200.22769165039062,-18.444000244140625
1751013401740921600,6.462921630859375,-383.214111328125,-200.37472534179688,-18.763275146484375
1751013401750961700,6.472961669921875,-382.95947265625,-200.38768005371094,-18.766021728515625
1751013401761001500,6.48300146484375,-383.25616455078125,-199.8910369873047,-18.744140625
1751013401771041500,6.49304150390625,-382.8854675292969,-200.3240966796875,-18.861724853515625
1751013401781081600,6.50308154296875,-383.4891357421875,-200.41624450683594,-18.859848022460938
1751013401791120600,6.51312060546875,-383.27813720703125,-200.4990692138672,-18.661773681640625
1751013401801161500,6.523161376953125,-383.1290283203125,-200.2418212890625,-19.029922485351562
1751013401811202600,6.53320263671875,-383.2960205078125,-200.50970458984375,-18.84832763671875
1751013401821243600,6.54324365234375,-382.676025390625,-200.2650146484375,-18.66326904296875
1751013401831284500,6.553284423828125,-382.99188232421875,-200.44810485839844,-18.5555419921875
1751013401841325600,6.56332568359375,-383.57879638671875,-199.99082946777344,-18.439971923828125
1751013401851365600,6.57336572265625,-383.6512756347656,-200.2776641845703,-18.30743408203125
1751013401861406500,6.583406494140625,-383.4971923828125,-199.93788146972656,-18.54034423828125
1751013401871447600,6.593447509765625,-383.40771484375,-200.0552978515625,-18.328506469726562
1751013401881488600,6.603488525390625,-383.6029357910156,-199.69488525390625,-18.1590576171875
1751013401891529500,6.613529541015625,-383.88226318359375,-199.73841857910156,-18.273544311523438
1751013401901570600,6.623570556640625,-384.0826110839844,-199.29864501953125,-18.582107543945312
1751013401911610600,6.633610595703125,-384.1749267578125,-199.60546875,-18.221771240234375
1751013401921651700,6.643651611328125,-383.5550537109375,-199.20828247070312,-18.023147583007812
1751013401931691500,6.65369140625,-383.5578308105469,-199.2377166748047,-17.966018676757812
1751013401941732600,6.663732666015625,-383.4838562011719,-199.30947875976562,-17.972030639648438
1751013401951772700,6.673772705078125,-383.6309814453125,-199.71066284179688,-17.82269287109375
1751013401961813800,6.683813720703125,-383.5299377441406,-199.39356994628906,-17.710968017578125
1751013401971854600,6.6938544921875,-383.4879150390625,-199.59634399414062,-18.022811889648438
1751013401981894400,6.703894287109375,-383.56866455078125,-199.14532470703125,-17.50921630859375
1751013401991936800,6.713936767578125,-382.9129638671875,-199.3579864501953,-17.554367065429688
1751013402001977600,6.7239775390625,-383.6365966796875,-199.6936492919922,-17.754440307617188
1751013402012018700,6.734018798828125,-383.1854553222656,-199.68194580078125,-17.526519775390625
1751013402022060500,6.744060546875,-383.5501708984375,-199.57518005371094,-17.633193969726562
1751013402032101600,6.7541015625,-383.4758605957031,-199.93678283691406,-18.017364501953125
1751013402042142700,6.764142822265625,-383.90692138671875,-199.64450073242188,-17.693572998046875
1751013402052183600,6.77418359375,-382.87176513671875,-199.7678985595703,-17.825408935546875
1751013402062225700,6.7842255859375,-383.64544677734375,-200.03053283691406,-17.976593017578125
1751013402072266500,6.7942666015625,-383.2000732421875,-199.81053161621094,-17.914031982421875
1751013402082306600,6.804306640625,-383.15399169921875,-200.0352783203125,-17.8807373046875
1751013402092347600,6.81434765625,-383.28009033203125,-200.10464477539062,-17.866806030273438
1751013402102388700,6.824388671875,-383.25018310546875,-199.88270568847656,-18.103164672851562
1751013402112429600,6.8344296875,-383.10491943359375,-200.3969268798828,-18.276901245117188
1751013402122471700,6.8444716796875,-383.58135986328125,-199.80235290527344,-18.111099243164062
1751013402132511500,6.854511474609375,-383.2569274902344,-199.85215759277344,-18.30755615234375
1751013402142552600,6.864552490234375,-383.27252197265625,-200.1510772705078,-18.1322021484375
1751013402152593700,6.87459375,-383.214111328125,-200.06686401367188,-17.976699829101562
1751013402162634500,6.884634521484375,-383.2147216796875,-200.0615234375,-18.269439697265625
1751013402172675600,6.894675537109375,-382.9711608886719,-199.68194580078125,-18.185821533203125
1751013402182716700,6.904716552734375,-383.29388427734375,-199.51272583007812,-18.020980834960938
1751013402192757500,6.914757568359375,-383.3330383300781,-199.64930725097656,-18.201690673828125
1751013402202798600,6.924798583984375,-382.88226318359375,-199.9104461669922,-18.005584716796875
1751013402212840400,6.93484033203125,-383.10260009765625,-199.80738830566406,-18.213851928710938
1751013402222881500,6.944881591796875,-382.86541748046875,-199.62240600585938,-17.563705444335938
1751013402232923400,6.95492333984375,-383.69561767578125,-200.06924438476562,-18.341156005859375
1751013402242965800,6.9649658203125,-383.22015380859375,-199.70651245117188,-18.110443115234375
1751013402253007600,6.975007568359375,-383.1815185546875,-200.125244140625,-18.005508422851562
1751013402263048700,6.985048583984375,-383.2459716796875,-199.90945434570312,-18.164093017578125
1751013402273090600,6.995090576171875,-383.617919921875,-199.78390502929688,-17.9742431640625
1751013402283131600,7.005131591796875,-383.5413818359375,-199.77880859375,-17.827560424804688
1751013402293173500,7.015173583984375,-383.5948486328125,-199.83045959472656,-17.963363647460938
1751013402303214600,7.025214599609375,-383.383056640625,-199.98143005371094,-17.9947509765625
1751013402313256400,7.03525634765625,-383.0051574707031,-199.9390411376953,-18.095077514648438
1751013402323298300,7.04529833984375,-383.0364074707031,-200.0577850341797,-18.09808349609375
1751013402333341200,7.055341064453125,-383.48956298828125,-200.20452880859375,-18.0797119140625
1751013402343384000,7.065384033203125,-383.34283447265625,-200.13795471191406,-18.014846801757812
1751013402353426000,7.075426025390625,-383.31402587890625,-200.17506408691406,-17.933837890625
1751013402363468300,7.08546826171875,-383.59014892578125,-200.30931091308594,-17.58612060546875
1751013402373508000,7.095508056640625,-383.742919921875,-200.1204833984375,-18.146591186523438
1751013402383550200,7.10555029296875,-383.719970703125,-200.0172119140625,-18.028915405273438
1751013402393591000,7.115591064453125,-383.5467224121094,-200.3597869873047,-17.962997436523438
1751013402403632000,7.125632080078125,-383.7203674316406,-200.0912322998047,-17.926666259765625
1751013402413672200,7.135672119140625,-383.4793701171875,-200.05987548828125,-18.074188232421875
1751013402423714000,7.145714111328125,-383.596923828125,-199.77809143066406,-17.810592651367188
1751013402433755100,7.155755126953125,-383.7000732421875,-199.90548706054688,-17.970321655273438
1751013402443796200,7.165796142578125,-383.3074035644531,-199.9812469482422,-17.991897583007812
1751013402453838000,7.175838134765625,-383.7460632324219,-199.9163818359375,-17.877059936523438
1751013402463880000,7.1858798828125,-383.39453125,-199.8429718017578,-17.799911499023438
1751013402473921000,7.195921142578125,-383.58544921875,-199.9173126220703,-17.886871337890625
1751013402483963100,7.205963134765625,-383.7205505371094,-199.41751098632812,-17.988739013671875
1751013402494004000,7.21600390625,-383.75433349609375,-199.70266723632812,-17.858322143554688
1751013402504045000,7.226045166015625,-384.04791259765625,-199.60105895996094,-17.642074584960938
1751013402514087200,7.236087158203125,-383.9046630859375,-199.81207275390625,-17.930465698242188
1751013402524128300,7.246128173828125,-384.1575927734375,-199.49554443359375,-17.9842529296875
1751013402534169000,7.256169189453125,-384.02166748046875,-199.88070678710938,-17.827606201171875
1751013402544210200,7.266210205078125,-384.4759521484375,-199.81687927246094,-17.994247436523438
1751013402554251300,7.276251220703125,-384.5869140625,-199.77944946289062,-17.84454345703125
1751013402564292000,7.2862919921875,-384.0498046875,-199.6349639892578,-17.861831665039062
1751013402574333200,7.296333251953125,-384.28265380859375,-199.881103515625,-17.811553955078125
1751013402584375000,7.306375,-384.13397216796875,-199.38978576660156,-18.462890625
1751013402594416000,7.316416015625,-384.46014404296875,-199.64288330078125,-17.995040893554688
1751013402604457200,7.326457275390625,-384.6839599609375,-199.36380004882812,-18.127548217773438
1751013402614499000,7.3364990234375,-384.31463623046875,-199.63656616210938,-18.114898681640625
1751013402624540200,7.3465400390625,-383.9552917480469,-199.4210968017578,-17.849411010742188
1751013402634581000,7.3565810546875,-383.742431640625,-199.50123596191406,-17.883453369140625
1751013402644623000,7.366623046875,-383.6485900878906,-199.48548889160156,-18.01177978515625
1751013402654665000,7.3766650390625,-383.88482666015625,-199.6427459716797,-18.106826782226562
1751013402664707000,7.38670703125,-383.9600830078125,-199.44654846191406,-18.278915405273438
1751013402674748200,7.396748046875,-383.92779541015625,-199.496826171875,-18.072036743164062
1751013402684792000,7.4067919921875,-383.77117919921875,-199.3532257080078,-18.060684204101562
1751013402694834000,7.416833984375,-383.7996826171875,-199.18450927734375,-17.891769409179688
1751013402704875000,7.426875,-383.74481201171875,-199.53961181640625,-18.099227905273438
1751013402714918100,7.436918212890625,-383.8590393066406,-199.236328125,-18.0006103515625
1751013402724959200,7.446959228515625,-383.6156005859375,-199.08950805664062,-18.035446166992188
1751013402735001000,7.4570009765625,-383.6297912597656,-199.49940490722656,-18.283035278320312
1751013402745042200,7.467042236328125,-384.0672302246094,-199.4848175048828,-17.956069946289062
1751013402755082200,7.477082275390625,-383.9175720214844,-199.5013885498047,-17.950225830078125
1751013402765124000,7.4871240234375,-383.490478515625,-199.3614501953125,-18.2265625
1751013402775164200,7.4971640625,-384.0688781738281,-199.5835723876953,-18.1414794921875
1751013402785205200,7.507205322265625,-384.0091552734375,-199.48867797851562,-18.104705810546875
1751013402795246000,7.51724609375,-383.85504150390625,-199.49105834960938,-18.146438598632812
1751013402805288200,7.5272880859375,-384.5415954589844,-199.30740356445312,-17.863815307617188
1751013402815329000,7.5373291015625,-383.8998718261719,-199.17788696289062,-17.7257080078125
1751013402825370000,7.5473701171875,-383.69677734375,-198.99913024902344,-18.238052368164062
1751013402835411000,7.557410888671875,-384.01025390625,-199.58119201660156,-17.981796264648438
1751013402845451000,7.567450927734375,-383.9921875,-199.40281677246094,-18.097274780273438
1751013402855491000,7.577490966796875,-383.9285888671875,-199.60000610351562,-17.976181030273438
1751013402865533200,7.587533203125,-384.020751953125,-199.18458557128906,-18.06256103515625
1751013402875575000,7.597574951171875,-383.6322937011719,-199.00146484375,-18.122726440429688
1751013402885617000,7.607616943359375,-383.5699462890625,-199.4710235595703,-17.849258422851562
1751013402895660300,7.617660400390625,-383.5314636230469,-199.21722412109375,-17.951263427734375
1751013402905703200,7.627703125,-383.7267761230469,-199.18624877929688,-17.985855102539062
1751013402915745000,7.6377451171875,-384.1078186035156,-199.1964874267578,-18.014419555664062
1751013402925787100,7.647787109375,-384.1531982421875,-199.10118103027344,-18.112640380859375
1751013402935830000,7.657830078125,-384.2286376953125,-198.9903106689453,-18.078399658203125
1751013402945872100,7.6678720703125,-383.95721435546875,-199.1902313232422,-17.985305786132812
1751013402955915300,7.677915283203125,-383.86083984375,-199.42941284179688,-17.88543701171875
1751013402965956000,7.6879560546875,-383.63720703125,-198.86045837402344,-17.772567749023438
1751013402975997200,7.6979970703125,-383.66461181640625,-199.03466796875,-17.856201171875
1751013402986038300,7.708038330078125,-384.21575927734375,-199.30712890625,-17.88818359375
1751013402996079000,7.7180791015625,-383.9954833984375,-199.7044677734375,-17.649124145507812
1751013403006120200,7.7281201171875,-383.3422546386719,-199.29470825195312,-17.716064453125
1751013403016161300,7.738161376953125,-383.72119140625,-199.37554931640625,-18.01837158203125
1751013403026202000,7.7482021484375,-384.01422119140625,-199.63499450683594,-18.172088623046875
1751013403036244200,7.758244140625,-383.68682861328125,-199.0821533203125,-18.145950317382812
1751013403046285000,7.76828515625,-383.8297119140625,-199.2730712890625,-17.98004150390625
1751013403056327200,7.7783271484375,-384.0791015625,-199.35890197753906,-17.685211181640625
1751013403066369000,7.788369140625,-383.712890625,-198.96351623535156,-17.809494018554688
1751013403076412200,7.798412109375,-383.68292236328125,-199.41757202148438,-18.12628173828125
1751013403086454300,7.808454345703125,-384.07574462890625,-199.39256286621094,-17.8974609375
1751013403096497200,7.8184970703125,-383.68304443359375,-199.42030334472656,-18.137496948242188
1751013403106539000,7.8285390625,-383.8660888671875,-199.50494384765625,-18.117156982421875
1751013403116580000,7.838580078125,-383.90899658203125,-199.56707763671875,-17.641372680664062
1751013403126622200,7.848622314453125,-383.717529296875,-199.15576171875,-18.004837036132812
1751013403136664000,7.8586640625,-383.58123779296875,-199.7274627685547,-18.110214233398438
1751013403146704100,7.8687041015625,-383.459716796875,-199.72335815429688,-18.026336669921875
1751013403156745200,7.8787451171875,-383.2539367675781,-199.93365478515625,-17.6591796875
1751013403166785000,7.888784912109375,-383.3505859375,-199.69541931152344,-18.193374633789062
1751013403176826000,7.898826171875,-383.31085205078125,-199.59523010253906,-18.099899291992188
1751013403186867000,7.908866943359375,-383.03515625,-199.55169677734375,-18.17706298828125
1751013403196908000,7.918907958984375,-382.9730224609375,-199.81385803222656,-18.195388793945312
1751013403206949000,7.92894921875,-383.0777587890625,-199.77963256835938,-18.053741455078125
1751013403216991200,7.9389912109375,-383.23199462890625,-200.01612854003906,-18.492538452148438
1751013403227032000,7.949031982421875,-383.22088623046875,-199.95216369628906,-17.943832397460938
1751013403237073200,7.9590732421875,-383.36798095703125,-199.78375244140625,-17.99359130859375
1751013403247115000,7.969114990234375,-383.72314453125,-199.8424835205078,-18.389999389648438
1751013403257157000,7.9791572265625,-383.1793212890625,-199.8976593017578,-18.38287353515625
1751013403267200000,7.989199951171875,-383.067138671875,-199.64437866210938,-17.810745239257812
1751013403277242000,7.9992421875,-383.25518798828125,-199.8619384765625,-18.044281005859375
1751013403287284200,8.0092841796875,-383.2626953125,-199.8118896484375,-18.043304443359375
1751013403297326000,8.019326171875,-383.93365478515625,-199.47300720214844,-18.089309692382812
1751013403307368000,8.029367919921874,-383.335693359375,-199.8592529296875,-17.607498168945312
1751013403317410800,8.039410888671876,-383.68865966796875,-199.64205932617188,-18.079330444335938
1751013403327451600,8.04945166015625,-384.2252197265625,-199.73434448242188,-18.182815551757812
1751013403337492700,8.05949267578125,-383.70947265625,-199.3777313232422,-18.062423706054688
1751013403347534600,8.06953466796875,-383.6147155761719,-199.90469360351562,-18.1702880859375
1751013403357575700,8.07957568359375,-383.8711242675781,-199.39859008789062,-17.994842529296875
1751013403367616800,8.08961669921875,-383.9453125,-199.4103546142578,-18.118453979492188
1751013403377657600,8.09965771484375,-383.321533203125,-199.7074432373047,-18.16339111328125
1751013403387698700,8.10969873046875,-383.7721252441406,-199.78851318359375,-18.04931640625
1751013403397740800,8.11974072265625,-383.92578125,-199.22421264648438,-18.175643920898438
1751013403407782000,8.129781982421875,-383.8450622558594,-199.59754943847656,-17.718475341796875
1751013403417823700,8.13982373046875,-383.96209716796875,-199.54531860351562,-18.002471923828125
1751013403427864800,8.14986474609375,-383.66802978515625,-199.56166076660156,-17.807022094726562
1751013403437906700,8.15990673828125,-383.84930419921875,-199.6747283935547,-18.170394897460938
1751013403447947800,8.16994775390625,-384.1060791015625,-199.2666473388672,-17.938735961914062
1751013403457988900,8.17998876953125,-384.0574951171875,-199.2487030029297,-17.955398559570312
1751013403468028700,8.190028564453126,-383.74041748046875,-199.66981506347656,-17.720748901367188
1751013403478069800,8.20006982421875,-384.10302734375,-199.4573211669922,-18.00201416015625
1751013403488110800,8.21011083984375,-384.68017578125,-199.96661376953125,-18.14361572265625
1751013403498152700,8.220152587890626,-383.7196960449219,-199.26065063476562,-18.009963989257812
1751013403508195600,8.230195556640625,-383.9980163574219,-199.60147094726562,-17.6591796875
1751013403518238000,8.240238037109375,-384.3973083496094,-199.7315216064453,-17.787490844726562
1751013403528280800,8.25028076171875,-384.6343994140625,-199.62869262695312,-17.765182495117188
1751013403538323700,8.26032373046875,-384.53558349609375,-199.19989013671875,-18.196487426757812
1751013403548366800,8.270366943359376,-384.2506103515625,-199.6923828125,-17.523208618164062
1751013403558408700,8.28040869140625,-384.1773986816406,-199.20985412597656,-18.034332275390625
1751013403568449800,8.29044970703125,-384.1083068847656,-199.3695068359375,-17.735824584960938
1751013403578489900,8.30048974609375,-384.14886474609375,-199.007568359375,-17.966705322265625
1751013403588530000,8.310530029296874,-384.234375,-199.58705139160156,-17.733810424804688
1751013403598570800,8.32057080078125,-384.2597961425781,-199.18447875976562,-18.150772094726562
1751013403608611800,8.33061181640625,-383.6431579589844,-199.52040100097656,-18.295822143554688
1751013403618653700,8.34065380859375,-384.1331787109375,-199.4993133544922,-18.062515258789062
1751013403628694800,8.35069482421875,-384.2105407714844,-199.63128662109375,-18.38330078125
1751013403638736600,8.360736572265624,-384.22589111328125,-199.41249084472656,-18.1099853515625
1751013403648777700,8.37077783203125,-383.8095703125,-199.52769470214844,-18.007843017578125
1751013403658818800,8.38081884765625,-383.77435302734375,-199.1063690185547,-18.215744018554688
1751013403668859000,8.39085888671875,-384.62188720703125,-199.40443420410156,-18.398162841796875
1751013403678898700,8.400898681640625,-384.21661376953125,-199.21737670898438,-18.221923828125
1751013403688939800,8.410939697265626,-384.60491943359375,-199.47027587890625,-18.141738891601562
1751013403698979600,8.4209794921875,-384.1993103027344,-199.21144104003906,-18.389984130859375
1751013403709021700,8.431021728515624,-384.06463623046875,-199.9070281982422,-18.397613525390625
1751013403719063800,8.441063720703125,-384.40789794921875,-199.19940185546875,-18.42138671875
1751013403729105700,8.451105712890625,-384.3660888671875,-199.67623901367188,-18.4342041015625
1751013403739145700,8.461145751953126,-383.9503173828125,-199.0684051513672,-18.3302001953125
1751013403749187600,8.4711875,-384.6990966796875,-199.6855010986328,-18.437637329101562
1751013403759228700,8.481228759765624,-384.3004150390625,-199.57254028320312,-18.5872802734375
1751013403769270800,8.491270751953126,-384.4093322753906,-199.51988220214844,-18.200180053710938
1751013403779311600,8.5013115234375,-384.1475830078125,-199.41139221191406,-18.522247314453125
1751013403789353700,8.511353759765624,-383.94403076171875,-199.98663330078125,-18.315933227539062
1751013403799392800,8.521392822265625,-383.97509765625,-199.30795288085938,-18.354537963867188
1751013403809434600,8.5314345703125,-384.47784423828125,-199.71859741210938,-18.506072998046875
1751013403819476500,8.5414765625,-383.94781494140625,-199.1509246826172,-18.840972900390625
1751013403829518800,8.551518798828125,-383.907958984375,-199.6990509033203,-18.576156616210938
1751013403839561700,8.561561767578125,-384.06805419921875,-199.37933349609375,-18.741851806640625
1751013403849604600,8.5716044921875,-384.1756591796875,-199.72401428222656,-17.95343017578125
1751013403859646700,8.581646728515626,-383.68414306640625,-199.29910278320312,-18.477767944335938
1751013403869689600,8.591689697265625,-384.3299560546875,-199.80136108398438,-18.340774536132812
1751013403879732700,8.601732666015625,-384.0568542480469,-199.2061767578125,-18.4794921875
1751013403889775900,8.61177587890625,-384.045166015625,-199.39891052246094,-18.353164672851562
1751013403899817700,8.621817626953124,-384.6806640625,-199.2801971435547,-18.3670654296875
1751013403909859600,8.631859619140625,-384.5177307128906,-199.63900756835938,-18.166595458984375
1751013403919900700,8.641900634765625,-384.1219177246094,-199.00025939941406,-18.28387451171875
1751013403929942500,8.651942626953126,-384.4852294921875,-199.12831115722656,-18.1793212890625
1751013403939985000,8.66198486328125,-384.66851806640625,-199.2576141357422,-18.291549682617188
1751013403950026800,8.67202685546875,-384.2840576171875,-199.63783264160156,-18.298782348632812
1751013403960068600,8.682068603515624,-383.99017333984375,-199.44384765625,-18.14678955078125
1751013403970110700,8.69211083984375,-384.36590576171875,-199.61793518066406,-18.31005859375
1751013403980152600,8.702152587890625,-384.4832458496094,-199.13986206054688,-18.233322143554688
1751013403990194700,8.712194580078124,-384.05859375,-199.45416259765625,-18.261184692382812
1751013404000236800,8.72223681640625,-384.23699951171875,-199.14320373535156,-18.06597900390625
1751013404010278700,8.732278564453125,-384.1727294921875,-199.88282775878906,-18.442764282226562
1751013404020320800,8.74232080078125,-384.73968505859375,-199.11923217773438,-18.452346801757812
1751013404030361600,8.752361572265626,-384.51568603515625,-199.33489990234375,-18.48333740234375
1751013404040401700,8.762401611328125,-384.78802490234375,-199.1825714111328,-18.587326049804688
1751013404050443800,8.77244384765625,-384.1060791015625,-199.1385498046875,-17.843902587890625
1751013404060486000,8.78248583984375,-384.40985107421875,-199.36778259277344,-18.193115234375
1751013404070527700,8.79252783203125,-384.26336669921875,-199.5996856689453,-18.511489868164062
1751013404080570600,8.802570556640624,-384.2587890625,-199.4940643310547,-18.476104736328125
1751013404090611700,8.81261181640625,-384.35223388671875,-199.18553161621094,-17.966751098632812
1751013404100653600,8.822653564453125,-384.1446533203125,-199.09967041015625,-18.188385009765625
1751013404110696000,8.832696044921875,-384.33538818359375,-199.6328582763672,-18.093276977539062
1751013404120736800,8.84273681640625,-384.11846923828125,-199.31155395507812,-18.138092041015625
1751013404130777900,8.85277783203125,-384.397705078125,-199.16058349609375,-18.263931274414062
1751013404140819000,8.86281884765625,-383.9640808105469,-199.21116638183594,-18.5419921875
1751013404150859800,8.87285986328125,-383.9361572265625,-198.9834747314453,-18.042999267578125
1751013404160900900,8.88290087890625,-384.0841064453125,-199.213623046875,-18.43701171875
1751013404170942700,8.892942626953126,-383.86456298828125,-199.2148895263672,-18.559951782226562
1751013404180981800,8.902981689453124,-384.06646728515625,-199.31690979003906,-18.336441040039062
1751013404191022600,8.913022705078125,-384.1947326660156,-199.58291625976562,-18.264572143554688
1751013404201063700,8.923063720703125,-384.0554504394531,-199.51174926757812,-18.236907958984375
1751013404211104500,8.9331044921875,-384.041015625,-199.4459228515625,-18.448394775390625
1751013404221145600,8.9431455078125,-383.812255859375,-199.483642578125,-18.155532836914062
1751013404231186700,8.953186767578124,-384.4815673828125,-199.40576171875,-18.440322875976562
1751013404241227500,8.9632275390625,-384.90081787109375,-199.14947509765625,-17.978485107421875
1751013404251268600,8.9732685546875,-384.11529541015625,-199.20140075683594,-18.329132080078125
1751013404261310700,8.983310791015626,-384.74542236328125,-199.2941131591797,-18.074844360351562
1751013404271351800,8.993351806640625,-384.417236328125,-199.4794921875,-17.982742309570312
1751013404281393700,9.0033935546875,-384.4312438964844,-199.12957763671875,-18.071548461914062
1751013404291435800,9.013435791015626,-384.6851806640625,-199.49990844726562,-18.15167236328125
1751013404301478700,9.023478759765625,-384.35394287109375,-199.5699005126953,-18.290145874023438
1751013404311521800,9.033521728515625,-384.47662353515625,-199.49317932128906,-18.317703247070312
1751013404321562400,9.043562255859374,-384.45355224609375,-199.5910186767578,-18.1749267578125
1751013404331600400,9.053600341796875,-383.97479248046875,-199.62925720214844,-18.146774291992188
1751013404341647400,9.0636474609375,-384.449462890625,-199.34951782226562,-18.067337036132812
1751013404351688400,9.0736884765625,-384.0294189453125,-199.4268341064453,-18.254623413085938
1751013404361729300,9.083729248046875,-384.505859375,-199.37686157226562,-18.081192016601562
1751013404371771400,9.093771484375,-384.1048278808594,-199.3851318359375,-18.06671142578125
1751013404381812200,9.103812255859374,-384.3094482421875,-199.54736328125,-18.30517578125
1751013404391853300,9.113853271484375,-383.9523010253906,-199.30738830566406,-18.434432983398438
1751013404401896200,9.123896240234375,-383.70501708984375,-199.09686279296875,-18.073654174804688
1751013404411938300,9.133938232421874,-384.0713806152344,-199.26748657226562,-18.112686157226562
1751013404421981400,9.1439814453125,-384.447998046875,-199.52145385742188,-18.362457275390625
1751013404432024300,9.1540244140625,-384.5010986328125,-199.41993713378906,-18.443496704101562
1751013404442066400,9.16406640625,-384.1273193359375,-199.0806884765625,-18.049652099609375
1751013404452108300,9.1741083984375,-384.7762756347656,-199.3905487060547,-18.590896606445312
1751013404462152200,9.184152099609374,-384.64483642578125,-199.35792541503906,-18.5970458984375
1751013404472194600,9.194194580078126,-384.1449279785156,-199.62222290039062,-18.575103759765625
1751013404482238200,9.20423828125,-384.01171875,-199.39793395996094,-18.45684814453125
1751013404492280300,9.2142802734375,-384.57464599609375,-199.10675048828125,-18.497756958007812
1751013404502323500,9.224323486328124,-384.28558349609375,-199.11231994628906,-18.305984497070312
1751013404512365300,9.234365234375,-384.4019775390625,-199.37583923339844,-18.565322875976562
1751013404522408200,9.244408203125,-384.5233154296875,-199.29830932617188,-18.3695068359375
1751013404532451300,9.254451416015625,-384.1941833496094,-199.0088653564453,-18.5311279296875
1751013404542494200,9.264494140625,-384.79095458984375,-199.49700927734375,-18.6837158203125
1751013404552536300,9.274536376953124,-384.1312561035156,-199.49781799316406,-18.47216796875
1751013404562577200,9.2845771484375,-384.6148681640625,-199.0854949951172,-18.284591674804688
1751013404572618200,9.2946181640625,-384.1340637207031,-199.48931884765625,-18.4443359375
1751013404582660400,9.304660400390626,-384.3866271972656,-199.4454803466797,-18.353790283203125
1751013404592703200,9.314703125,-384.43804931640625,-199.4292449951172,-17.97186279296875
1751013404602745300,9.324745361328125,-384.39862060546875,-199.40701293945312,-18.267929077148438
1751013404612788500,9.33478857421875,-384.30230712890625,-199.05506896972656,-18.307785034179688
1751013404622830300,9.344830322265626,-384.30548095703125,-199.40554809570312,-18.43743896484375
1751013404632873200,9.354873291015625,-384.1064453125,-199.3613739013672,-18.069091796875
1751013404642915300,9.364915283203125,-384.4962158203125,-199.07872009277344,-18.37542724609375
1751013404652957400,9.37495751953125,-384.48583984375,-199.04318237304688,-18.481460571289062
1751013404662998500,9.38499853515625,-384.31622314453125,-198.95973205566406,-18.2783203125
1751013404673039400,9.395039306640625,-384.24627685546875,-199.34414672851562,-18.549835205078125
1751013404683081500,9.40508154296875,-383.9656677246094,-199.09402465820312,-18.3607177734375
1751013404693122300,9.415122314453125,-384.4064025878906,-199.28628540039062,-18.33258056640625
1751013404703164400,9.425164306640625,-384.78076171875,-199.20840454101562,-18.340301513671875
1751013404713206300,9.435206298828126,-384.65838623046875,-199.3570556640625,-18.153793334960938
1751013404723248000,9.445248046875,-384.45135498046875,-199.34710693359375,-18.347335815429688
1751013404733288200,9.4552880859375,-383.74798583984375,-199.256591796875,-18.199539184570312
1751013404743330300,9.465330322265626,-384.13470458984375,-199.18490600585938,-18.343719482421875
1751013404753371100,9.47537109375,-384.3188781738281,-199.51446533203125,-18.203109741210938
1751013404763413500,9.48541357421875,-384.39984130859375,-199.02699279785156,-18.273696899414062
1751013404773454300,9.495454345703125,-384.50048828125,-199.70407104492188,-18.429290771484375
1751013404783496400,9.505496337890625,-384.49072265625,-199.25379943847656,-18.659454345703125
1751013404793538300,9.515538330078124,-384.50103759765625,-199.7788543701172,-18.513763427734375
1751013404803580200,9.525580078125,-384.70562744140625,-199.4165496826172,-18.359970092773438
1751013404813621200,9.535621337890625,-384.72528076171875,-199.33499145507812,-18.5428466796875
1751013404823663400,9.545663330078124,-384.5599670410156,-199.40316772460938,-18.707427978515625
1751013404833705500,9.55570556640625,-384.8196716308594,-199.1365203857422,-18.132110595703125
1751013404843747300,9.565747314453125,-384.41455078125,-199.3266143798828,-18.364410400390625
1751013404853787400,9.575787353515626,-384.817626953125,-199.51011657714844,-18.161865234375
1751013404863829200,9.585829345703125,-384.1792907714844,-199.3719024658203,-18.443923950195312
1751013404873870300,9.595870361328124,-383.9422607421875,-199.50108337402344,-18.502105712890625
1751013404883912400,9.605912353515626,-384.46453857421875,-199.6470489501953,-18.446853637695312
1751013404893952300,9.6159521484375,-384.0213623046875,-199.57716369628906,-18.450103759765625
1751013404903993300,9.625993408203126,-384.8202209472656,-199.57028198242188,-18.528335571289062
1751013404914035200,9.63603515625,-384.48956298828125,-199.4849395751953,-18.250457763671875
1751013404924077300,9.646077392578125,-384.43756103515625,-199.09365844726562,-18.47119140625
1751013404934119400,9.656119384765624,-384.2829284667969,-199.4378662109375,-18.449432373046875
1751013404944160500,9.666160400390625,-384.18548583984375,-198.9404754638672,-18.351943969726562
1751013404954202400,9.676202392578125,-384.28216552734375,-199.61895751953125,-18.620376586914062
1751013404964245200,9.686245361328124,-384.33349609375,-199.31979370117188,-18.68609619140625
1751013404974287400,9.696287353515626,-384.0287170410156,-199.4822235107422,-19.008377075195312
1751013404984328200,9.706328125,-384.23431396484375,-199.64527893066406,-18.469955444335938
1751013404994369300,9.716369384765626,-384.3917541503906,-199.52273559570312,-18.310699462890625
1751013405004411400,9.726411376953125,-384.5369873046875,-199.78097534179688,-18.534286499023438
1751013405014453500,9.73645361328125,-384.18011474609375,-199.54901123046875,-18.339401245117188
1751013405024495400,9.746495361328124,-384.525390625,-199.60980224609375,-18.645950317382812
1751013405034536400,9.756536376953125,-384.4039001464844,-199.5790252685547,-18.36346435546875
1751013405044578300,9.766578369140625,-384.5489501953125,-199.89532470703125,-18.336318969726562
1751013405054619400,9.776619384765626,-383.9891052246094,-199.57980346679688,-18.225616455078125
1751013405064660200,9.78666015625,-384.221923828125,-199.66758728027344,-18.1485595703125
1751013405074701300,9.796701416015624,-384.39971923828125,-199.7069091796875,-18.346969604492188
1751013405084742400,9.806742431640625,-384.0910339355469,-199.78799438476562,-18.662094116210938
1751013405094783200,9.816783203125,-383.74212646484375,-199.8847198486328,-18.682830810546875
1751013405104824300,9.82682421875,-383.70318603515625,-199.59559631347656,-18.667373657226562
1751013405114865400,9.836865478515625,-384.39947509765625,-199.32125854492188,-18.748260498046875
1751013405124906200,9.84690625,-384.20904541015625,-199.3753204345703,-18.576263427734375
1751013405134948400,9.8569482421875,-384.26953125,-199.40390014648438,-18.585067749023438
1751013405144990500,9.866990478515625,-384.13470458984375,-199.4591064453125,-18.375534057617188
1751013405155032300,9.8770322265625,-384.41168212890625,-199.64547729492188,-18.53729248046875
1751013405165073400,9.887073486328125,-384.1080322265625,-199.23623657226562,-18.464630126953125
1751013405175115300,9.897115234375,-384.1615905761719,-199.42552185058594,-18.6168212890625
1751013405185157400,9.907157470703124,-384.13775634765625,-199.55548095703125,-18.84210205078125
1751013405195199200,9.91719921875,-384.07452392578125,-199.401123046875,-18.503143310546875
1751013405205242400,9.927242431640625,-383.8119812011719,-199.1781768798828,-18.069747924804688
1751013405215284200,9.9372841796875,-384.05218505859375,-199.61703491210938,-18.514678955078125
1751013405225326300,9.947326416015626,-384.10418701171875,-199.57872009277344,-18.664352416992188
1751013405235368200,9.9573681640625,-384.37274169921875,-199.36099243164062,-18.501693725585938
1751013405245410600,9.96741064453125,-384.66607666015625,-199.62428283691406,-18.559722900390625
1751013405255452400,9.977452392578124,-384.16363525390625,-199.55641174316406,-18.09136962890625
1751013405265494300,9.987494384765625,-383.9725341796875,-199.3040008544922,-18.32183837890625
1751013405275537200,9.997537109375,-383.78851318359375,-199.78431701660156,-18.359619140625
1751013405285580300,10.007580322265625,-383.8053283691406,-199.5953826904297,-18.645156860351562
1751013405295623400,10.01762353515625,-383.850830078125,-199.4508514404297,-18.031906127929688
1751013405305665300,10.027665283203126,-383.6811218261719,-199.5687713623047,-18.211944580078125
1751013405315708400,10.03770849609375,-384.1256103515625,-199.65097045898438,-18.127471923828125
1751013405325751300,10.047751220703125,-384.2882995605469,-199.43856811523438,-18.382232666015625
1751013405335794400,10.05779443359375,-384.32720947265625,-199.68243408203125,-18.411911010742188
1751013405345837300,10.06783740234375,-383.94219970703125,-199.63101196289062,-18.324752807617188
1751013405355880400,10.07788037109375,-383.931396484375,-199.5276336669922,-17.933456420898438
1751013405365923300,10.08792333984375,-383.76934814453125,-199.89263916015625,-18.341690063476562
1751013405375966200,10.09796630859375,-383.97882080078125,-199.68878173828125,-18.27423095703125
1751013405386009300,10.10800927734375,-384.29339599609375,-199.89089965820312,-18.371047973632812
1751013405396048400,10.11804833984375,-384.59161376953125,-199.40281677246094,-18.327880859375
1751013405406096400,10.128096435546874,-384.40252685546875,-199.76734924316406,-18.634841918945312
1751013405416138500,10.138138427734376,-384.259765625,-199.63894653320312,-18.462661743164062
1751013405426181400,10.148181396484375,-384.2738342285156,-200.02789306640625,-18.326248168945312
1751013405436225500,10.1582255859375,-384.68914794921875,-199.83685302734375,-18.57379150390625
1751013405446268400,10.168268310546875,-383.7088928222656,-199.26907348632812,-18.383895874023438
1751013405456310300,10.178310302734374,-384.06005859375,-199.70912170410156,-18.357452392578125
1751013405466354400,10.1883544921875,-384.329345703125,-199.74095153808594,-18.3826904296875
1751013405476397300,10.198397216796875,-384.5120849609375,-199.61837768554688,-18.356704711914062
1751013405486440400,10.2084404296875,-384.1719970703125,-199.8197479248047,-18.383026123046875
1751013405496482300,10.218482421875,-384.18231201171875,-199.57579040527344,-18.351669311523438
1751013405506526500,10.2285263671875,-384.52752685546875,-199.89088439941406,-18.432357788085938
1751013405516569300,10.2385693359375,-384.08258056640625,-199.6393280029297,-18.710556030273438
1751013405526612200,10.2486123046875,-384.01849365234375,-199.5745391845703,-18.417022705078125
1751013405536655400,10.2586552734375,-384.48681640625,-199.48193359375,-18.609359741210938
1751013405546697500,10.268697509765625,-384.5411376953125,-199.43450927734375,-18.484573364257812
1751013405556739300,10.2787392578125,-384.347900390625,-199.34478759765625,-18.83111572265625
1751013405566781200,10.28878125,-384.401611328125,-199.83786010742188,-18.494644165039062
1751013405576823600,10.298823486328125,-384.60693359375,-199.45245361328125,-18.729034423828125
1751013405586866400,10.308866455078125,-384.26580810546875,-199.85667419433594,-18.179367065429688
1751013405596909300,10.318909423828124,-384.4041748046875,-199.45050048828125,-18.685195922851562
1751013405606953500,10.328953369140624,-384.284912109375,-199.90597534179688,-18.952392578125
1751013405616995300,10.338995361328125,-384.17205810546875,-199.4636688232422,-18.803955078125
1751013405627038500,10.34903857421875,-384.38262939453125,-200.06793212890625,-18.467208862304688
1751013405637081300,10.359081298828125,-384.8086853027344,-199.882080078125,-18.69036865234375
1751013405647123500,10.36912353515625,-384.73614501953125,-200.0369110107422,-18.83502197265625
1751013405657166600,10.37916650390625,-384.868408203125,-199.74685668945312,-18.77801513671875
1751013405667209500,10.38920947265625,-384.29443359375,-199.84559631347656,-18.2060546875
1751013405677252400,10.39925244140625,-384.77313232421875,-199.78428649902344,-18.786651611328125
1751013405687296500,10.409296630859375,-384.54412841796875,-200.07643127441406,-18.446578979492188
1751013405697339400,10.41933935546875,-384.1551208496094,-199.46987915039062,-18.31610107421875
1751013405707382500,10.429382568359374,-384.4927978515625,-199.7869110107422,-18.521652221679688
1751013405717423400,10.43942333984375,-384.567626953125,-199.64846801757812,-18.521575927734375
1751013405727464400,10.44946435546875,-384.652587890625,-199.5277099609375,-18.564651489257812
1751013405737505500,10.459505615234375,-384.447509765625,-199.76271057128906,-18.55645751953125
1751013405747546400,10.46954638671875,-384.07720947265625,-199.8805389404297,-18.32049560546875
1751013405757588500,10.47958837890625,-384.1383056640625,-199.35354614257812,-18.5748291015625
1751013405767629300,10.48962939453125,-384.177490234375,-199.80587768554688,-18.320663452148438
1751013405777670400,10.49967041015625,-384.4049987792969,-199.66110229492188,-18.449295043945312
1751013405787710500,10.50971044921875,-384.0863037109375,-200.05599975585938,-18.339096069335938
1751013405797750500,10.51975048828125,-384.17364501953125,-199.69772338867188,-18.335037231445312
1751013405807791400,10.529791259765625,-384.2079772949219,-199.63031005859375,-18.4161376953125
1751013405817832400,10.53983251953125,-384.0941162109375,-199.57025146484375,-18.244354248046875
1751013405827873500,10.54987353515625,-383.22412109375,-200.0512237548828,-17.918563842773438
1751013405837914400,10.559914306640625,-383.7065124511719,-199.9291229248047,-18.223495483398438
1751013405847957200,10.569957275390625,-383.3115539550781,-200.00607299804688,-17.667770385742188
1751013405857999400,10.579999267578126,-383.68560791015625,-199.7466583251953,-18.210693359375
1751013405868040400,10.59004052734375,-383.4869384765625,-200.2845001220703,-18.04022216796875
1751013405878081300,10.600081298828124,-383.7171630859375,-199.69287109375,-18.295578002929688
1751013405888123400,10.610123291015626,-383.50958251953125,-200.01202392578125,-17.949356079101562
1751013405898164200,10.620164306640625,-383.7438659667969,-199.76280212402344,-18.17022705078125
1751013405908207400,10.630207275390624,-383.0638732910156,-200.0493927001953,-17.748886108398438
1751013405918245400,10.640245361328125,-383.5322265625,-199.73072814941406,-18.234146118164062
1751013405928294400,10.65029443359375,-383.5172119140625,-199.91586303710938,-18.238189697265625
