time,seconds_elapsed,z,y,x
1751015431027935500,0.348935546875,-0.026388198137283325,0.008821188472211361,-0.06656783819198608
1751015431037878500,0.35887841796875,-0.02617168240249157,0.01233176700770855,-0.051901012659072876
1751015431047821600,0.368821533203125,-0.030368292704224586,0.028003405779600143,-0.03621286526322365
1751015431057764600,0.3787646484375,-0.0324852392077446,0.03585094213485718,-0.022468024864792824
1751015431067707600,0.388707763671875,-0.03834046423435211,0.0437389574944973,-0.012894759885966778
1751015431077650400,0.398650390625,-0.041130926460027695,0.04261457175016403,-0.022769760340452194
1751015431087593500,0.408593505859375,-0.046067360788583755,0.027665715664625168,-0.034508708864450455
1751015431097537500,0.41853759765625,-0.047804541885852814,0.015283348970115185,-0.03813406825065613
1751015431107480600,0.42848046875,-0.053095974028110504,0.004486893769353628,-0.03699903190135956
1751015431117423600,0.438423583984375,-0.05673332139849663,-0.007470433134585619,-0.032332904636859894
1751015431127366700,0.44836669921875,-0.0535721480846405,-0.02027224749326706,-0.02455168217420578
1751015431137309400,0.458309326171875,-0.05607578530907631,-0.01932256482541561,-0.006627808790653944
1751015431147252500,0.46825244140625,-0.05860232561826706,-0.005568669643253088,0.003236539661884308
1751015431157195500,0.478195556640625,-0.05438521131873131,0.01290301512926817,0.012546418234705925
1751015431167138600,0.488138671875,-0.05357640981674194,0.02959650754928589,0.014256167225539684
1751015431177081600,0.49808154296875,-0.046179480850696564,0.0344139002263546,0.005389172583818436
1751015431187024600,0.508024658203125,-0.038768965750932693,0.028010595589876175,-0.014396250247955322
1751015431196967700,0.5179677734375,-0.030159233137965202,0.0217183455824852,-0.03376834839582443
1751015431206910700,0.52791064453125,-0.013369601219892502,0.008128766901791096,-0.05011829361319542
1751015431216853500,0.537853515625,-0.005547364708036184,0.0038919434882700443,-0.07399087399244308
1751015431226796300,0.54779638671875,0.008145544677972794,-0.0027393274940550327,-0.0887112244963646
1751015431236739300,0.5577392578125,0.016379771754145622,-0.012386628426611423,-0.09973165392875671
1751015431246682400,0.567682373046875,0.025598304346203804,-0.023791348561644554,-0.10270986706018448
1751015431256626700,0.577626708984375,0.025709357112646103,-0.021015802398324013,-0.09936866164207458
1751015431266569700,0.58756982421875,0.0362115353345871,-0.028126709163188934,-0.09000898152589798
1751015431276512500,0.597512451171875,0.038002241402864456,-0.030847128480672836,-0.07519115507602692
1751015431286455300,0.607455322265625,0.043348539620637894,-0.02406405657529831,-0.0516408234834671
1751015431296398300,0.6173984375,0.05480119585990906,-0.018387263640761375,-0.03569567948579788
1751015431306341400,0.62734130859375,0.05710722878575325,-0.02220357209444046,-0.036613937467336655
1751015431316284400,0.637284423828125,0.05943989008665085,-0.032470058649778366,-0.04349687695503235
1751015431326227500,0.6472275390625,0.0588446743786335,-0.037645380944013596,-0.0631139874458313
1751015431336170500,0.65717041015625,0.0597701221704483,-0.03389618173241615,-0.09301462769508362
1751015431346113500,0.667113525390625,0.058329883962869644,-0.0179960448294878,-0.12593582272529602
1751015431356056600,0.677056640625,0.05513568967580795,-0.0062301987782120705,-0.16712240874767303
1751015431365999400,0.686999267578125,0.0547652430832386,0.0026040389202535152,-0.2076573222875595
1751015431375942400,0.6969423828125,0.04905915632843971,0.006661364808678627,-0.23400557041168213
1751015431385885400,0.706885498046875,0.03911677747964859,-0.007200388703495264,-0.2506124973297119
1751015431395828500,0.716828369140625,0.02780792862176895,-0.019601663574576378,-0.25070464611053467
1751015431405772500,0.7267724609375,0.03523761406540871,-0.019747072830796242,-0.23900511860847473
1751015431415715600,0.736715576171875,0.04920429736375809,-0.012583170086145401,-0.22495880722999573
1751015431425658400,0.746658447265625,0.06398191303014755,0.00044341632747091353,-0.20740139484405518
1751015431435601400,0.756601318359375,0.08575325459241867,0.034330010414123535,-0.19686833024024963
1751015431445544400,0.76654443359375,0.10396208614110947,0.05378307029604912,-0.186776801943779
1751015431455487500,0.776487548828125,0.11134037375450134,0.05042695626616478,-0.17254194617271423
1751015431465430300,0.78643017578125,0.10622763633728027,0.04802718013525009,-0.1495378315448761
1751015431475373300,0.796373291015625,0.09877584874629974,0.04814835265278816,-0.12330435961484909
1751015431485316400,0.80631640625,0.09708500653505325,0.051359329372644424,-0.10595279932022095
1751015431495259400,0.81625927734375,0.09893030673265457,0.0641195997595787,-0.09850260615348816
1751015431505202200,0.8262021484375,0.11580117046833038,0.09550601243972778,-0.09973884373903275
1751015431515145200,0.836145263671875,0.1460256427526474,0.1424221247434616,-0.1072406992316246
1751015431525088300,0.846088134765625,0.17768876254558563,0.18715764582157135,-0.10771341621875763
1751015431535031300,0.85603125,0.2016923725605011,0.21887695789337158,-0.10647104680538177
1751015431544975400,0.865975341796875,0.21970732510089874,0.23820750415325165,-0.11161920428276062
1751015431554918400,0.87591845703125,0.22776098549365997,0.23853400349617004,-0.11919776350259781
1751015431564861200,0.885861083984375,0.22716976702213287,0.2352311611175537,-0.13990837335586548
1751015431574804200,0.89580419921875,0.22198618948459625,0.2215140163898468,-0.17152860760688782
1751015431584747300,0.905747314453125,0.2037816196680069,0.20766131579875946,-0.19986385107040405
1751015431594690300,0.915690185546875,0.18547292053699493,0.1923939436674118,-0.2301165610551834
1751015431604633300,0.92563330078125,0.16356682777404785,0.15741892158985138,-0.24628061056137085
1751015431614576400,0.935576416015625,0.14418619871139526,0.11739000678062439,-0.25229883193969727
1751015431624519400,0.94551953125,0.12138448655605316,0.09122604876756668,-0.24060888588428497
1751015431634462500,0.95546240234375,0.10645187646150589,0.07128589600324631,-0.21063366532325745
1751015431644405200,0.9654052734375,0.09845200181007385,0.046548325568437576,-0.1824835240840912
1751015431654348300,0.975348388671875,0.09405192732810974,0.012986372224986553,-0.16415086388587952
1751015431664291300,0.985291259765625,0.08939885348081589,-0.02244352363049984,-0.16657619178295135
1751015431674234400,0.995234375,0.08483845740556717,-0.045460425317287445,-0.19359183311462402
1751015431684177400,1.005177490234375,0.08465017378330231,-0.06635798513889313,-0.2438289076089859
1751015431694121500,1.01512158203125,0.08812772482633591,-0.08678043633699417,-0.29671236872673035
1751015431704064300,1.025064208984375,0.09042630344629288,-0.10326726734638214,-0.3383665978908539
1751015431714007300,1.03500732421875,0.08633195608854294,-0.10861755907535553,-0.35242170095443726
1751015431723950300,1.044950439453125,0.08477906882762909,-0.10402227193117142,-0.3402015268802643
1751015431733893400,1.054893310546875,0.08077766746282578,-0.08966384083032608,-0.302675724029541
1751015431743836400,1.06483642578125,0.07944502681493759,-0.07343080639839172,-0.24819914996623993
1751015431753779500,1.074779541015625,0.08526775985956192,-0.05609176307916641,-0.18035513162612915
1751015431763722500,1.084722412109375,0.08738523721694946,-0.04421033710241318,-0.12095119059085846
1751015431773665500,1.09466552734375,0.08736659586429596,-0.0542009212076664,-0.08172815293073654
1751015431783608300,1.1046083984375,0.08801747113466263,-0.059420984238386154,-0.05805265158414841
1751015431793551400,1.11455126953125,0.09368734061717987,-0.06473958492279053,-0.05217558518052101
1751015431803494400,1.124494384765625,0.09999903291463852,-0.05498229339718819,-0.05597671493887901
1751015431813437400,1.1344375,0.10632723569869995,-0.0256345234811306,-0.05895999073982239
1751015431823380500,1.14438037109375,0.10934939235448837,0.01113574206829071,-0.059594087302684784
1751015431833324500,1.154324462890625,0.09680484235286713,0.032709211111068726,-0.05656048282980919
1751015431843267300,1.164267333984375,0.07391763478517532,0.04746392369270325,-0.050451721996068954
1751015431853210400,1.17421044921875,0.051300738006830215,0.052683185786008835,-0.043291814625263214
1751015431863153400,1.1841533203125,0.03646639734506607,0.053457897156476974,-0.04337676987051964
1751015431873096400,1.194096435546875,0.027952805161476135,0.05654503405094147,-0.043602872639894485
1751015431883039500,1.20403955078125,0.013262009248137474,0.0501856729388237,-0.038550056517124176
1751015431892982500,1.213982421875,0.012972789816558361,0.045521147549152374,-0.029263878241181374
1751015431902925300,1.22392529296875,0.007339405361562967,0.04616802930831909,-0.01938062161207199
1751015431912868400,1.233868408203125,0.01119406521320343,0.04887699335813522,-0.012956012040376663
1751015431922811400,1.243811279296875,0.012871856801211834,0.05709098279476166,-0.005209675524383783
1751015431932754200,1.253754150390625,0.011091533116996288,0.06796227395534515,0.00376064982265234
1751015431942697200,1.263697265625,0.0009930927772074938,0.06205325201153755,0.009634251706302166
1751015431952640300,1.27364013671875,-0.010973022319376469,0.05817196145653725,0.0038107172586023808
1751015431962584300,1.283584228515625,-0.01818273216485977,0.056590840220451355,0.002695119008421898
1751015431972527400,1.29352734375,-0.029035380110144615,0.04123372212052345,0.00857591163367033
1751015431982470400,1.303470458984375,-0.045881472527980804,0.016234364360570908,0.01727219671010971
1751015431992413200,1.3134130859375,-0.05784305930137634,-0.014563229866325855,0.030252177268266678
1751015432002356200,1.323356201171875,-0.07396770268678665,-0.04420953989028931,0.037036314606666565
1751015432012299300,1.33329931640625,-0.08558281511068344,-0.06962514668703079,0.03864353150129318
1751015432022242300,1.3432421875,-0.08981217443943024,-0.08306266367435455,0.035361453890800476
1751015432032185300,1.353185302734375,-0.080900177359581,-0.0841955691576004,0.03364451229572296
1751015432042128400,1.36312841796875,-0.059065982699394226,-0.04607188701629639,0.05572478100657463
1751015432052071400,1.373071533203125,-0.028846561908721924,0.029138976708054543,0.09088436514139175
1751015432062014500,1.383014404296875,0.0034525219816714525,0.11125967651605606,0.12511451542377472
1751015432071957200,1.392957275390625,0.049374207854270935,0.18620263040065765,0.13475728034973145
1751015432081900300,1.402900390625,0.08350314944982529,0.23914627730846405,0.11981295049190521
1751015432091843300,1.41284326171875,0.09036877751350403,0.27670377492904663,0.08522062003612518
1751015432101787400,1.422787353515625,0.07379060238599777,0.29739654064178467,0.04273547977209091
1751015432111730400,1.43273046875,0.04258634150028229,0.3011217713356018,-0.006724747829139233
1751015432121673500,1.442673583984375,-0.02099076844751835,0.2543177604675293,-0.08033132553100586
1751015432131616300,1.4526162109375,-0.11181974411010742,0.1504901647567749,-0.20012830197811127
1751015432141559300,1.462559326171875,-0.2082834243774414,0.02045680582523346,-0.35454291105270386
1751015432151502300,1.47250244140625,-0.28837481141090393,-0.1109190583229065,-0.5092800259590149
1751015432161445400,1.4824453125,-0.3437800109386444,-0.21421456336975098,-0.6291012167930603
1751015432171388400,1.492388427734375,-0.3665044903755188,-0.2687728703022003,-0.6890854835510254
1751015432181331500,1.50233154296875,-0.36959031224250793,-0.27247440814971924,-0.6695117950439453
1751015432191274500,1.5122744140625,-0.35274606943130493,-0.25219976902008057,-0.5496433973312378
1751015432201217500,1.522217529296875,-0.3344557583332062,-0.22453777492046356,-0.31320610642433167
1751015432211160300,1.532160400390625,-0.3165401220321655,-0.1963689774274826,0.008551943115890026
1751015432221103400,1.542103271484375,-0.29758748412132263,-0.15729162096977234,0.37220364809036255
1751015432231047400,1.55204736328125,-0.2683563530445099,-0.1277819275856018,0.7452856302261353
1751015432240990500,1.561990478515625,-0.23450277745723724,-0.11505841463804245,1.0529401302337646
1751015432250933500,1.57193359375,-0.19875197112560272,-0.13447338342666626,1.2557156085968018
1751015432260876500,1.58187646484375,-0.16743293404579163,-0.16723638772964478,1.3287492990493774
1751015432270819300,1.5918193359375,-0.14212331175804138,-0.2139327973127365,1.2770382165908813
1751015432280762400,1.601762451171875,-0.10089199244976044,-0.2694533169269562,1.1251442432403564
1751015432290705400,1.611705322265625,-0.05289330706000328,-0.33920228481292725,0.9016805291175842
1751015432300648400,1.6216484375,-0.0038666436448693275,-0.378252238035202,0.641825795173645
1751015432310591500,1.631591552734375,0.027726702392101288,-0.36334916949272156,0.391030877828598
1751015432320535000,1.64153515625,0.026801787316799164,-0.30800575017929077,0.17672604322433472
1751015432330478000,1.65147802734375,0.00929203536361456,-0.23242072761058807,0.0002969424531329423
1751015432340420900,1.6614208984375,-0.006506635341793299,-0.14322559535503387,-0.14400723576545715
1751015432350364000,1.671364013671875,-0.02660497836768627,-0.04976223036646843,-0.2818412780761719
1751015432360307000,1.681306884765625,-0.040033970028162,0.04098178818821907,-0.42637768387794495
1751015432370251000,1.6912509765625,-0.05970034748315811,0.12107475847005844,-0.5673603415489197
1751015432380194000,1.701194091796875,-0.0736345425248146,0.18298447132110596,-0.6743549704551697
1751015432390136800,1.71113671875,-0.08869870752096176,0.21697892248630524,-0.7253446578979492
1751015432400080000,1.721079833984375,-0.1171383410692215,0.21257510781288147,-0.7121769189834595
1751015432410023000,1.73102294921875,-0.14313346147537231,0.19094811379909515,-0.6320432424545288
1751015432419966000,1.740966064453125,-0.16479746997356415,0.16423846781253815,-0.4896472096443176
1751015432429908700,1.75090869140625,-0.18135274946689606,0.1654752492904663,-0.30424192547798157
1751015432439851800,1.760851806640625,-0.18681834638118744,0.17272862792015076,-0.10547289997339249
1751015432449794800,1.770794921875,-0.17746160924434662,0.18410086631774902,0.08142641931772232
1751015432459737900,1.78073779296875,-0.15286464989185333,0.18429607152938843,0.22524483501911163
1751015432469681000,1.790680908203125,-0.12728817760944366,0.16685795783996582,0.314596027135849
1751015432479623700,1.800623779296875,-0.09811697900295258,0.13619539141654968,0.3572598695755005
1751015432489567700,1.810567626953125,-0.06291504949331284,0.11572526395320892,0.36225274205207825
1751015432499510800,1.8205107421875,-0.02984151802957058,0.08533220738172531,0.3334815502166748
1751015432509453800,1.830453857421875,-0.0043859598226845264,0.05922257527709007,0.27511757612228394
1751015432519396900,1.84039697265625,0.01618589460849762,0.03735323250293732,0.18767589330673218
1751015432529340000,1.85033984375,0.029617013409733772,0.028623122721910477,0.08660919219255447
1751015432539282700,1.86028271484375,0.03163355961441994,0.023492010310292244,-0.027096599340438843
1751015432549225700,1.870225830078125,0.027150128036737442,0.022249644622206688,-0.1392633467912674
1751015432559168800,1.880168701171875,0.0232283566147089,0.032282836735248566,-0.22711491584777832
1751015432569111800,1.89011181640625,0.010959707200527191,0.032767001539468765,-0.29616615176200867
1751015432579054800,1.900054931640625,-0.0031502533238381147,0.013366405852138996,-0.3343082070350647
1751015432588998000,1.909997802734375,-0.009188970550894737,0.010491256602108479,-0.33770400285720825
1751015432598941000,1.91994091796875,-0.00512951472774148,0.028352811932563782,-0.31812790036201477
1751015432608884000,1.929884033203125,0.008855010382831097,0.038654983043670654,-0.27050551772117615
1751015432618827800,1.939827880859375,0.03672712296247482,0.040951162576675415,-0.2032681703567505
1751015432628770800,1.949770751953125,0.05368399992585182,0.04168273136019707,-0.11691969633102417
1751015432638713900,1.9597138671875,0.06076081842184067,0.037090908735990524,-0.024052072316408157
1751015432648657000,1.969656982421875,0.06674493849277496,0.045515019446611404,0.0675382986664772
1751015432658600000,1.979599853515625,0.08254387974739075,0.06833804398775101,0.15599173307418823
1751015432668543000,1.98954296875,0.10783698409795761,0.09764772653579712,0.23440851271152496
1751015432678485800,1.99948583984375,0.14410364627838135,0.12037914246320724,0.30010896921157837
1751015432688428800,2.0094287109375,0.18333467841148376,0.12759125232696533,0.3696877658367157
1751015432698371800,2.019371826171875,0.2181863933801651,0.12420796602964401,0.41691067814826965
1751015432708315000,2.02931494140625,0.24110795557498932,0.09626048803329468,0.399064302444458
1751015432718258000,2.0392578125,0.2576459050178528,0.05447229743003845,0.28688955307006836
1751015432728201000,2.049200927734375,0.26786765456199646,-0.001698830397799611,0.08680147677659988
1751015432738144800,2.059144775390625,0.2548125684261322,-0.07772409170866013,-0.17169852554798126
1751015432748087800,2.069087890625,0.21201638877391815,-0.17100955545902252,-0.4362228512763977
1751015432758030800,2.07903076171875,0.17165032029151917,-0.2442193329334259,-0.64457768201828
1751015432767974000,2.088973876953125,0.1376073956489563,-0.25038081407546997,-0.7653115391731262
1751015432777917000,2.0989169921875,0.13410933315753937,-0.18963837623596191,-0.7681536674499512
1751015432787860000,2.10885986328125,0.17396646738052368,-0.04222601652145386,-0.611566424369812
1751015432797803000,2.118802978515625,0.2516396939754486,0.1664329171180725,-0.3321686089038849
1751015432807746000,2.12874609375,0.3436492383480072,0.3872649073600769,0.021797973662614822
1751015432817688800,2.138688720703125,0.41711705923080444,0.5737175941467285,0.3640756905078888
1751015432827631900,2.1486318359375,0.4737284183502197,0.6907776594161987,0.6372209191322327
1751015432837575000,2.158574951171875,0.5151669383049011,0.7457130551338196,0.8096198439598083
1751015432847518000,2.16851806640625,0.5305152535438538,0.727830708026886,0.8924793601036072
1751015432857461000,2.1784609375,0.5085188746452332,0.6183359622955322,0.8927086591720581
1751015432867405000,2.188405029296875,0.45971912145614624,0.42286205291748047,0.8178197741508484
1751015432877347800,2.198347900390625,0.39559125900268555,0.19393672049045563,0.677303671836853
1751015432887291000,2.208290771484375,0.3124742805957794,-0.039689887315034866,0.48745808005332947
1751015432897234000,2.21823388671875,0.2278486043214798,-0.23627112805843353,0.271822452545166
1751015432907177000,2.228177001953125,0.15832732617855072,-0.3747965097427368,0.05416230484843254
1751015432917120000,2.2381201171875,0.11870374530553818,-0.4580006003379822,-0.13405446708202362
1751015432927063000,2.24806298828125,0.08693729341030121,-0.49900129437446594,-0.279518187046051
1751015432937005800,2.258005859375,0.06927760690450668,-0.5108411908149719,-0.38533809781074524
1751015432946948900,2.267948974609375,0.06497021019458771,-0.47702381014823914,-0.45310038328170776
1751015432956891600,2.2778916015625,0.07561326771974564,-0.3864766061306,-0.4823474586009979
1751015432966834700,2.287834716796875,0.0919773280620575,-0.2534956634044647,-0.47880786657333374
1751015432976779000,2.297779052734375,0.1095224991440773,-0.10854005813598633,-0.4542950689792633
1751015432986721800,2.3077216796875,0.12218396365642548,0.014269483275711536,-0.4082743227481842
1751015432996664800,2.317664794921875,0.1135776937007904,0.07851504534482956,-0.3491548001766205
1751015433006608000,2.32760791015625,0.08498067408800125,0.10056069493293762,-0.28639712929725647
1751015433016550700,2.337550537109375,0.05793866515159607,0.11233186721801758,-0.20991088449954987
1751015433026493700,2.34749365234375,0.03946032375097275,0.1187487542629242,-0.1299785077571869
1751015433036436700,2.357436767578125,0.023258185014128685,0.11884596198797226,-0.04850788041949272
1751015433046379800,2.3673798828125,0.017613081261515617,0.12608949840068817,0.03417101874947548
1751015433056322800,2.37732275390625,0.0318458154797554,0.14307379722595215,0.12099779397249222
1751015433066265900,2.387265869140625,0.0517452210187912,0.1664385050535202,0.20265616476535797
1751015433076209000,2.397208984375,0.053819820284843445,0.16781775653362274,0.2703036665916443
1751015433086152000,2.40715185546875,0.030916636809706688,0.14539021253585815,0.3120756149291992
1751015433096095700,2.417095703125,0.019577961415052414,0.10930012166500092,0.32720130681991577
1751015433106038800,2.427038818359375,0.017077786847949028,0.0754697248339653,0.3150245249271393
1751015433115981800,2.43698193359375,0.01715821400284767,0.03740862384438515,0.2697449326515198
1751015433125924900,2.4469248046875,0.03104180470108986,0.0025891251862049103,0.18873129785060883
1751015433135868000,2.456867919921875,0.0502578429877758,-0.017052220180630684,0.08123360574245453
1751015433145811000,2.46681103515625,0.05530959367752075,-0.012024438939988613,-0.04045208543539047
1751015433155753700,2.476753662109375,0.048944905400276184,-0.008056062273681164,-0.16158384084701538
1751015433165696800,2.48669677734375,0.038004904985427856,0.001136637176387012,-0.2727290093898773
1751015433175639800,2.496639892578125,0.010871023871004581,-0.015077220275998116,-0.36082184314727783
1751015433185582800,2.506582763671875,-0.04511421546339989,-0.04121081903576851,-0.40218526124954224
1751015433195526000,2.51652587890625,-0.09384260326623917,-0.056775398552417755,-0.396042138338089
1751015433205469000,2.526468994140625,-0.06446687132120132,-0.02636289782822132,-0.34531503915786743
1751015433215412700,2.536412841796875,0.01056476030498743,0.017680194228887558,-0.2930515706539154
1751015433225355800,2.546355712890625,0.055741291493177414,0.04585377499461174,-0.2577314078807831
1751015433235298800,2.556298828125,0.05730616673827171,0.01429425086826086,-0.22448822855949402
1751015433245241900,2.566241943359375,0.06009875610470772,0.009893110953271389,-0.19993308186531067
1751015433255185000,2.576184814453125,0.08210711926221848,0.044010866433382034,-0.1865842640399933
1751015433265128000,2.5861279296875,0.10643376410007477,0.09211687743663788,-0.16531625390052795
1751015433275071000,2.596071044921875,0.12166411429643631,0.1268301159143448,-0.13411866128444672
1751015433285014000,2.606013916015625,0.11332789063453674,0.15185211598873138,-0.07978617399930954
1751015433294956800,2.615956787109375,0.07586333900690079,0.14869573712348938,0.0034439999144524336
1751015433304899800,2.62589990234375,-0.015360847115516663,0.11959271132946014,0.08206450939178467
1751015433314843000,2.6358427734375,-0.15435734391212463,0.058579422533512115,0.1167103722691536
1751015433324786700,2.64578662109375,-0.32035139203071594,-0.0452878512442112,0.10338684171438217
1751015433334729700,2.655729736328125,-0.4716796576976776,-0.15826261043548584,0.04782398045063019
1751015433344672800,2.6656728515625,-0.5805177092552185,-0.2551089823246002,-0.055862199515104294
1751015433354615800,2.67561572265625,-0.6351575255393982,-0.30319902300834656,-0.1882207691669464
1751015433364558600,2.68555859375,-0.6613414287567139,-0.3090023100376129,-0.29994943737983704
1751015433374501600,2.695501708984375,-0.6769989728927612,-0.29308727383613586,-0.3367615044116974
1751015433384444700,2.705444580078125,-0.6824259757995605,-0.24745294451713562,-0.2653326094150543
1751015433394387700,2.7153876953125,-0.6612865924835205,-0.1809181123971939,-0.08737511932849884
1751015433404330800,2.725330810546875,-0.6089856028556824,-0.1149659976363182,0.17592309415340424
1751015433414273800,2.735273681640625,-0.5482956171035767,-0.0827643871307373,0.4923500418663025
1751015433424216800,2.745216796875,-0.49520280957221985,-0.10057268291711807,0.7965967655181885
1751015433434159900,2.755159912109375,-0.4608080983161926,-0.16098089516162872,1.0337296724319458
1751015433444103700,2.765103759765625,-0.43300068378448486,-0.2525867223739624,1.1608428955078125
1751015433454046700,2.775046630859375,-0.40066006779670715,-0.3492048680782318,1.1848942041397095
1751015433463989800,2.78498974609375,-0.3650072515010834,-0.4212955832481384,1.1288005113601685
1751015433473932800,2.794932861328125,-0.33618468046188354,-0.4437055289745331,1.0146946907043457
1751015433483875800,2.804875732421875,-0.29518023133277893,-0.4185647666454315,0.8576260209083557
1751015433493819000,2.81481884765625,-0.25102904438972473,-0.3705120086669922,0.671328067779541
1751015433503761700,2.82476171875,-0.19563661515712738,-0.2850714325904846,0.4873709976673126
1751015433513704700,2.83470458984375,-0.1657032072544098,-0.14610767364501953,0.2951413691043854
1751015433523647700,2.844647705078125,-0.15909138321876526,0.050630684942007065,0.07429154217243195
1751015433533590800,2.8545908203125,-0.17235605418682098,0.22493724524974823,-0.17449404299259186
1751015433543533800,2.864533935546875,-0.2141791433095932,0.34193575382232666,-0.4031280279159546
1751015433553478000,2.874477783203125,-0.2774808704853058,0.4130256474018097,-0.5978426337242126
1751015433563420700,2.884420654296875,-0.34289130568504333,0.4388923943042755,-0.7342934012413025
1751015433573363700,2.89436376953125,-0.4030632972717285,0.59063321352005,-0.9217807650566101
1751015433583306800,2.904306640625,-0.4169926941394806,0.6609278917312622,-1.0786513090133667
1751015433593249800,2.914249755859375,-0.3887770473957062,0.6430274248123169,-1.1453430652618408
1751015433603192800,2.92419287109375,-0.3775073289871216,0.6427046656608582,-1.105881929397583
1751015433613136000,2.934135986328125,-0.38199129700660706,0.619105875492096,-0.9903406500816345
1751015433623079000,2.944078857421875,-0.3997332751750946,0.5659736394882202,-0.8128026127815247
1751015433633022000,2.95402197265625,-0.4032667577266693,0.5262027978897095,-0.5879032015800476
1751015433642964700,2.96396484375,-0.2940004765987396,0.388340562582016,-0.35995206236839294
1751015433652907800,2.97390771484375,-0.22613273561000824,0.3897080719470978,-0.13432931900024414
1751015433662851800,2.983851806640625,-0.19012999534606934,0.347699373960495,0.07227632403373718
1751015433672795000,2.993794921875,-0.2040221095085144,0.2775338888168335,0.22991734743118286
1751015433682738000,3.003738037109375,-0.23738858103752136,0.211394265294075,0.34587350487709045
1751015433692681000,3.013680908203125,-0.27031058073043823,0.17283515632152557,0.41021469235420227
1751015433702623700,3.023623779296875,-0.2951730489730835,0.12919367849826813,0.42109689116477966
1751015433712566800,3.03356689453125,-0.30892908573150635,0.08907687664031982,0.3897842466831207
1751015433722509800,3.043509765625,-0.3134745657444,0.06782352179288864,0.3349153995513916
1751015433732452600,3.05345263671875,-0.3058089315891266,0.07297194749116898,0.28891995549201965
1751015433742395600,3.063395751953125,-0.28025269508361816,0.11299286782741547,0.2668415606021881
1751015433752338700,3.073338623046875,-0.24245338141918182,0.15177515149116516,0.2477157860994339
1751015433762281700,3.08328173828125,-0.20005746185779572,0.18146966397762299,0.23841923475265503
1751015433772225800,3.093225830078125,-0.13939623534679413,0.218475341796875,0.22511354088783264
1751015433782168800,3.1031689453125,-0.06535717099905014,0.2513885498046875,0.21528567373752594
1751015433792111600,3.113111572265625,0.004760666750371456,0.25492897629737854,0.18481965363025665
1751015433802054700,3.1230546875,0.06424583494663239,0.21450723707675934,0.14661207795143127
1751015433811997700,3.132997802734375,0.11181468516588211,0.15399062633514404,0.10405263304710388
1751015433821940700,3.142940673828125,0.14798493683338165,0.08375268429517746,0.07849667221307755
1751015433831883800,3.1528837890625,0.17514066398143768,0.033069003373384476,0.10196498036384583
1751015433841826600,3.16282666015625,0.20180635154247284,0.003893541404977441,0.16641508042812347
1751015433851769600,3.17276953125,0.25586506724357605,-0.0019528960110619664,0.2710498869419098
1751015433861712600,3.182712646484375,0.3475305438041687,-0.009514675475656986,0.3993695080280304
1751015433871655700,3.19265576171875,0.44333750009536743,-0.021085577085614204,0.5014929175376892
1751015433881599700,3.202599853515625,0.517863392829895,-0.03621739149093628,0.5279999375343323
1751015433891542800,3.212542724609375,0.5246959924697876,-0.08436441421508789,0.4321809709072113
1751015433901485600,3.222485595703125,0.4439143240451813,-0.18062730133533478,0.21543161571025848
1751015433911428600,3.2324287109375,0.2817656397819519,-0.3300114572048187,-0.056901101022958755
1751015433921371600,3.24237158203125,0.08149778842926025,-0.5175307393074036,-0.3060973286628723
1751015433931314700,3.252314697265625,-0.08211617171764374,-0.7023746371269226,-0.4660547971725464
1751015433941257700,3.2622578125,-0.1899518221616745,-0.8158362507820129,-0.5211185812950134
1751015433951200800,3.27220068359375,-0.21587291359901428,-0.7899958491325378,-0.4610605537891388
1751015433961143800,3.282143798828125,-0.14183808863162994,-0.6234915256500244,-0.3114393651485443
1751015433971086800,3.2920869140625,-0.007414773106575012,-0.39217495918273926,-0.1127915307879448
1751015433981030700,3.30203076171875,0.16127410531044006,-0.1840430647134781,0.08011454343795776
1751015433990973700,3.3119736328125,0.33410927653312683,-0.03265434876084328,0.22793249785900116
1751015434000916700,3.321916748046875,0.48239248991012573,0.05506458505988121,0.31077811121940613
1751015434010859800,3.33185986328125,0.578535795211792,0.0648498386144638,0.31999531388282776
1751015434020802800,3.341802734375,0.6238579750061035,0.022069882601499557,0.2620113790035248
1751015434030745900,3.351745849609375,0.6196693778038025,-0.04619972035288811,0.15411420166492462
1751015434040688600,3.361688720703125,0.5778936743736267,-0.13818717002868652,0.0145901283249259
1751015434050631700,3.371631591796875,0.5131133794784546,-0.21665480732917786,-0.10730728507041931
1751015434060574700,3.38157470703125,0.4298059642314911,-0.2648087441921234,-0.20495741069316864
1751015434070517800,3.391517822265625,0.3577362895011902,-0.2760174572467804,-0.2641807794570923
1751015434080460800,3.401460693359375,0.3067817687988281,-0.25241413712501526,-0.2907503545284271
1751015434090404900,3.41140478515625,0.28567275404930115,-0.19084638357162476,-0.3018525242805481
1751015434100347600,3.42134765625,0.2797890305519104,-0.088764488697052,-0.29117485880851746
1751015434110290700,3.431290771484375,0.2946883738040924,0.023296799510717392,-0.25101438164711
1751015434120233700,3.441233642578125,0.32008880376815796,0.15310166776180267,-0.1853237897157669
1751015434130176800,3.4511767578125,0.35867613554000854,0.2656649649143219,-0.10877121984958649
1751015434140119800,3.461119873046875,0.38006505370140076,0.32394665479660034,-0.0403175950050354
1751015434150062800,3.471062744140625,0.3794655501842499,0.30123016238212585,-0.0036277580074965954
1751015434160006000,3.481005859375,0.3635462522506714,0.23235280811786652,0.0072991917841136456
1751015434169949000,3.490948974609375,0.3320586383342743,0.14718465507030487,-0.003007774008437991
1751015434179891700,3.5008916015625,0.28473106026649475,0.06990212202072144,-0.02652668207883835
1751015434189835800,3.510835693359375,0.22875621914863586,-0.0019566244445741177,-0.06150863319635391
1751015434199778800,3.52077880859375,0.15328621864318848,-0.051669053733348846,-0.11855194717645645
1751015434209721900,3.530721923828125,0.08381553739309311,-0.09479468315839767,-0.17950157821178436
1751015434219665000,3.540664794921875,0.015408783219754696,-0.10579860210418701,-0.21535971760749817
1751015434229608000,3.55060791015625,-0.033788058906793594,-0.08572076261043549,-0.22116461396217346
1751015434239550700,3.56055078125,-0.07029759883880615,-0.045214615762233734,-0.19618628919124603
1751015434249493800,3.57049365234375,-0.094676174223423,0.0000852211524033919,-0.14552897214889526
1751015434259436800,3.580436767578125,-0.10926230996847153,0.03467435762286186,-0.07698559761047363
1751015434269379800,3.5903798828125,-0.12220899760723114,0.03551804646849632,-0.006499178241938353
1751015434279323000,3.600322998046875,-0.13471680879592896,-0.012222844175994396,0.05263391509652138
1751015434289267000,3.610266845703125,-0.130682110786438,-0.11571035534143448,0.11380752176046371
1751015434299209700,3.620209716796875,-0.1123875305056572,-0.24007464945316315,0.1734817773103714
1751015434309152800,3.63015283203125,-0.07917924225330353,-0.35746198892593384,0.22337450087070465
1751015434319095600,3.640095458984375,-0.04601755738258362,-0.4372100830078125,0.25667279958724976
1751015434329038600,3.65003857421875,-0.013648168183863163,-0.5056021809577942,0.2729337811470032
1751015434338981600,3.659981689453125,-0.004899950232356787,-0.5654849410057068,0.27615782618522644
1751015434348924700,3.669924560546875,-0.020856013521552086,-0.6197245121002197,0.2722752094268799
1751015434358867700,3.67986767578125,-0.04891534522175789,-0.6572684049606323,0.2837238609790802
1751015434368810800,3.689810791015625,-0.0795787125825882,-0.6275771260261536,0.3254726231098175
1751015434378753500,3.69975341796875,-0.10172928869724274,-0.5214373469352722,0.40126168727874756
1751015434388697600,3.709697509765625,-0.10319749265909195,-0.3472924530506134,0.5017116069793701
1751015434398640600,3.719640625,-0.06508925557136536,-0.13187387585639954,0.598330557346344
1751015434408583700,3.729583740234375,-0.012313923798501492,0.047683365643024445,0.6563794612884521
1751015434418526700,3.739526611328125,0.03043966554105282,0.11450367420911789,0.6414018273353577
1751015434428469800,3.7494697265625,0.028493426740169525,0.08780601620674133,0.5417420864105225
1751015434438412500,3.75941259765625,-0.031559791415929794,0.003052248852327466,0.3593432605266571
1751015434448355600,3.76935546875,-0.18040333688259125,-0.11511407047510147,0.09317681193351746
1751015434458298600,3.779298583984375,-0.3970693349838257,-0.2361275851726532,-0.23602983355522156
1751015434468241700,3.78924169921875,-0.6339958310127258,-0.3253307044506073,-0.5796652436256409
1751015434478184700,3.799184814453125,-0.834139347076416,-0.350309282541275,-0.8605374097824097
1751015434488128800,3.809128662109375,-0.9675647616386414,-0.2834889590740204,-1.0114967823028564
1751015434498071600,3.819071533203125,-0.9919958114624023,-0.15869243443012238,-1.0087326765060425
1751015434508014600,3.8290146484375,-0.8938831090927124,-0.0052323127165436745,-0.8541578054428101
1751015434517957600,3.83895751953125,-0.7255483865737915,0.17113739252090454,-0.5954750776290894
1751015434527900700,3.848900634765625,-0.5101157426834106,0.3275562822818756,-0.2862171232700348
1751015434537843700,3.85884375,-0.30042240023612976,0.4419129490852356,0.01769404299557209
1751015434547786800,3.868786865234375,-0.11853943020105362,0.47986701130867004,0.2920880615711212
1751015434557729800,3.878729736328125,0.01534833014011383,0.45788952708244324,0.4865022599697113
1751015434567672800,3.8886728515625,0.0815792828798294,0.3800048530101776,0.5884115695953369
1751015434577615600,3.89861572265625,0.08175078779459,0.2589074671268463,0.5850213766098022
1751015434587558400,3.908558349609375,0.009237706661224365,0.10998722165822983,0.5053987503051758
1751015434597502700,3.918502685546875,-0.12121990323066711,-0.041179925203323364,0.36831945180892944
1751015434607445800,3.92844580078125,-0.2668346166610718,-0.153823122382164,0.21861889958381653
1751015434617388800,3.938388916015625,-0.3810275197029114,-0.22395719587802887,0.07315703481435776
1751015434627331800,3.948331787109375,-0.4347996711730957,-0.2631314992904663,-0.050883155316114426
1751015434637274600,3.958274658203125,-0.442508727312088,-0.2810092866420746,-0.1405121088027954
1751015434647217400,3.968217529296875,-0.421555757522583,-0.2814428508281708,-0.19339635968208313
1751015434657160400,3.978160400390625,-0.39423465728759766,-0.2624739706516266,-0.22251775860786438
1751015434667103500,3.988103515625,-0.36684244871139526,-0.240626722574234,-0.22946114838123322
1751015434677046500,3.998046630859375,-0.3452378213405609,-0.22370073199272156,-0.22047458589076996
1751015434686989600,4.007989501953125,-0.33294573426246643,-0.21940559148788452,-0.20752762258052826
1751015434696933600,4.01793359375,-0.32534295320510864,-0.1985999047756195,-0.19502249360084534
1751015434706876400,4.02787646484375,-0.31710284948349,-0.1719408631324768,-0.2053997665643692
1751015434716819500,4.0378193359375,-0.3069290518760681,-0.13469097018241882,-0.23304630815982819
1751015434726762500,4.047762451171875,-0.2898358106613159,-0.08428052812814713,-0.27865079045295715
1751015434736705500,4.05770556640625,-0.26116663217544556,-0.02070234902203083,-0.3227018713951111
1751015434746648600,4.067648681640625,-0.21072182059288025,0.0343683585524559,-0.36384904384613037
1751015434756591600,4.077591552734375,-0.13754640519618988,0.06692736595869064,-0.3761771023273468
1751015434766534700,4.08753466796875,-0.02918957732617855,0.07749719172716141,-0.3575408160686493
1751015434776477700,4.097477783203125,0.10468699783086777,0.07470433413982391,-0.30486243963241577
1751015434786420500,4.10742041015625,0.24723322689533234,0.06671804189682007,-0.23730069398880005
1751015434796364500,4.117364501953125,0.3895549476146698,0.05456390976905823,-0.14957484602928162
1751015434806307600,4.1273076171875,0.5173928141593933,0.05096011981368065,-0.06400001794099808
1751015434816250600,4.137250732421875,0.6179303526878357,0.09717288613319397,0.003230947069823742
1751015434826193700,4.147193603515625,0.6961297988891602,0.18830439448356628,0.037753503769636154
1751015434836136700,4.15713671875,0.7518314123153687,0.2891058325767517,0.009912817738950253
1751015434846079500,4.16707958984375,0.779305100440979,0.3771219849586487,-0.07042916119098663
1751015434856022500,4.1770224609375,0.7786483764648438,0.4444648027420044,-0.1873893290758133
1751015434865965600,4.186965576171875,0.7567875385284424,0.490782767534256,-0.31695985794067383
1751015434875908600,4.19690869140625,0.7306318283081055,0.4969181716442108,-0.4349224269390106
1751015434885851600,4.2068515625,0.6987596750259399,0.4450629651546478,-0.5387479066848755
1751015434895795500,4.21679541015625,0.6576244831085205,0.331930547952652,-0.6188530921936035
1751015434905738500,4.226738525390625,0.5806138515472412,0.1544542908668518,-0.6746847033500671
1751015434915681500,4.236681640625,0.4857499301433563,-0.028740834444761276,-0.6756178736686707
1751015434925624600,4.24662451171875,0.3890116512775421,-0.20022204518318176,-0.631289005279541
1751015434935567600,4.256567626953125,0.2786039412021637,-0.3715274930000305,-0.5422608852386475
1751015434945510700,4.2665107421875,0.14036031067371368,-0.5682541131973267,-0.4493623673915863
1751015434955453700,4.27645361328125,-0.030256172642111778,-0.7808809280395508,-0.377737432718277
1751015434965396700,4.286396728515625,-0.21463747322559357,-0.9914032816886902,-0.3655303120613098
1751015434975339800,4.29633984375,-0.39859291911125183,-1.1819788217544556,-0.4134592115879059
1751015434985282600,4.306282470703125,-0.5618603825569153,-1.3418630361557007,-0.5048890113830566
1751015434995226600,4.3162265625,-0.6796331405639648,-1.4365663528442383,-0.5573261380195618
1751015435005169700,4.326169677734375,-0.7130746841430664,-1.3953381776809692,-0.5188841819763184
1751015435015112700,4.33611279296875,-0.632341206073761,-1.1957875490188599,-0.35977283120155334
1751015435025055700,4.3460556640625,-0.4520569443702698,-0.8836211562156677,-0.10134179890155792
1751015435034998500,4.35599853515625,-0.2313155084848404,-0.5289895534515381,0.20151154696941376
1751015435044941600,4.365941650390625,-0.001603222917765379,-0.20100368559360504,0.5096611380577087
1751015435054884600,4.375884521484375,0.2036106437444687,0.07327527552843094,0.7879113554954529
1751015435064827600,4.38582763671875,0.3417314887046814,0.27292579412460327,1.000846028327942
1751015435074770700,4.395770751953125,0.41631758213043213,0.3599206209182739,1.1240787506103516
1751015435084713700,4.405713623046875,0.44354361295700073,0.31507325172424316,1.1424663066864014
1751015435094656800,4.41565673828125,0.4246101379394531,0.1855269819498062,1.0770070552825928
1751015435104600600,4.4256005859375,0.360360324382782,0.01961018703877926,0.9404247403144836
1751015435114543600,4.435543701171875,0.25677427649497986,-0.14814099669456482,0.7412698268890381
1751015435124486700,4.445486572265625,0.1458280384540558,-0.2721244692802429,0.5150122046470642
1751015435134429700,4.4554296875,0.07798854261636734,-0.29542258381843567,0.29849135875701904
1751015435144372700,4.465372802734375,0.07383667677640915,-0.21906736493110657,0.11720838397741318
1751015435154315800,4.475315673828125,0.11820733547210693,-0.08325094729661942,-0.011259845457971096
1751015435164258800,4.4852587890625,0.1922871470451355,0.08580145984888077,-0.08330314606428146
1751015435174201600,4.49520166015625,0.28707677125930786,0.2663304805755615,-0.09905068576335907
1751015435184144600,4.50514453125,0.37769031524658203,0.4327269196510315,-0.07115700095891953
1751015435194087400,4.51508740234375,0.46371281147003174,0.5725652575492859,-0.02474369667470455
1751015435204031700,4.52503173828125,0.5306487083435059,0.6620298624038696,0.0169073436409235
1751015435213974800,4.534974853515625,0.5728217363357544,0.6938331127166748,0.03459339588880539
1751015435223917800,4.544917724609375,0.5723476409912109,0.670438826084137,0.03062289021909237
1751015435233860600,4.554860595703125,0.5446007251739502,0.6100811958312988,0.00908777117729187
1751015435243803600,4.5648037109375,0.48724210262298584,0.5234565734863281,-0.013762150891125202
1751015435253746400,4.574746337890625,0.414347380399704,0.4272243082523346,-0.03242798149585724
1751015435263689500,4.584689453125,0.33203253149986267,0.34080418944358826,-0.04637335613369942
1751015435273632500,4.594632568359375,0.23452141880989075,0.28026121854782104,-0.05253298208117485
1751015435283575600,4.604575439453125,0.14382854104042053,0.23310436308383942,-0.05830778181552887
1751015435293518600,4.6145185546875,0.06961130350828171,0.19559906423091888,-0.05224110186100006
1751015435303462400,4.62446240234375,0.023375630378723145,0.15874651074409485,-0.028121383860707283
1751015435313405400,4.634405517578125,-0.003718305379152298,0.1327551156282425,0.009926932863891125
1751015435323348200,4.64434814453125,-0.014761901460587978,0.1123017743229866,0.06283196061849594
1751015435333291300,4.654291259765625,-0.01290514599531889,0.10777706652879715,0.13788622617721558
1751015435343234300,4.664234375,-0.004517520312219858,0.10460630059242249,0.22059495747089386
1751015435353177300,4.67417724609375,0.009379653260111809,0.09478243440389633,0.3015761077404022
1751015435363120400,4.684120361328125,0.031124362722039223,0.0807262733578682,0.3789569139480591
1751015435373063400,4.6940634765625,0.05047036334872246,0.04361991584300995,0.41798925399780273
1751015435383006200,4.704006103515625,0.04344388097524643,-0.02045733854174614,0.4078444838523865
1751015435392949200,4.71394921875,0.010419883765280247,-0.11252095550298691,0.32449179887771606
1751015435402893300,4.723893310546875,-0.051899150013923645,-0.23026356101036072,0.1760282814502716
1751015435412836400,4.73383642578125,-0.13662655651569366,-0.3701045513153076,-0.00336144189350307
1751015435422779400,4.743779296875,-0.24699939787387848,-0.4893081784248352,-0.1633194237947464
1751015435432722400,4.753722412109375,-0.3568476140499115,-0.5457626581192017,-0.2588310241699219
1751015435442665200,4.763665283203125,-0.4326169192790985,-0.5195201635360718,-0.2604627311229706
1751015435452608300,4.773608154296875,-0.46360334753990173,-0.3905773460865021,-0.15531902015209198
1751015435462551300,4.78355126953125,-0.44581449031829834,-0.220676451921463,0.036136433482170105
1751015435472494300,4.793494384765625,-0.41479453444480896,-0.07714485377073288,0.258412629365921
1751015435482437400,4.803437255859375,-0.4043240547180176,-0.015266304835677147,0.45400530099868774
1751015435492380400,4.81338037109375,-0.4121526777744293,-0.025050757452845573,0.5774627923965454
1751015435502324200,4.82332421875,-0.4353967308998108,-0.06090942397713661,0.6300770044326782
1751015435512267300,4.833267333984375,-0.4917372465133667,-0.12202044576406479,0.6084542870521545
1751015435522210300,4.843210205078125,-0.5755288004875183,-0.20172379910945892,0.5176103711128235
1751015435532153300,4.8531533203125,-0.6813417673110962,-0.29561540484428406,0.3640783429145813
1751015435542096400,4.863096435546875,-0.7956409454345703,-0.403288871049881,0.17728263139724731
1751015435552039400,4.873039306640625,-0.8998014330863953,-0.47789520025253296,-0.011596734635531902
1751015435561982500,4.882982421875,-0.9573603272438049,-0.498069703578949,-0.15848711133003235
1751015435571925500,4.892925537109375,-0.9500169157981873,-0.45473209023475647,-0.22833730280399323
1751015435581868300,4.902868408203125,-0.8710470199584961,-0.36216220259666443,-0.20976734161376953
1751015435591811300,4.912811279296875,-0.7314475774765015,-0.22985610365867615,-0.12688924372196198
1751015435601755400,4.92275537109375,-0.5663409233093262,-0.08145944029092789,0.0006900250446051359
1751015435611698400,4.932698486328125,-0.3999306261539459,0.06077945977449417,0.1357772797346115
1751015435621641500,4.942641357421875,-0.2623509168624878,0.1890665888786316,0.24981117248535156
1751015435631584500,4.95258447265625,-0.1783686727285385,0.29436638951301575,0.3092356026172638
1751015435641527300,4.96252734375,-0.12135732173919678,0.3693245053291321,0.31210917234420776
1751015435651470300,4.97247021484375,-0.08302538096904755,0.3876952528953552,0.2647102177143097
1751015435661413400,4.982413330078125,-0.06442160159349442,0.3563000559806824,0.18037617206573486
1751015435671356400,4.9923564453125,-0.06672044098377228,0.30624833703041077,0.05807875096797943
1751015435681299500,5.002299560546875,-0.08099578320980072,0.24816426634788513,-0.08869124948978424
1751015435691242500,5.012242431640625,-0.08561529964208603,0.19837194681167603,-0.24566303193569183
1751015435701186300,5.022186279296875,-0.07702820748090744,0.14703844487667084,-0.3760679066181183
1751015435711129300,5.03212939453125,-0.05986839532852173,0.11322535574436188,-0.4718751311302185
1751015435721072400,5.042072265625,-0.04975743591785431,0.12000975757837296,-0.5217718482017517
1751015435731015400,5.052015380859375,-0.0367249920964241,0.1563696265220642,-0.5313469767570496
1751015435740958500,5.06195849609375,-0.01781388372182846,0.18598665297031403,-0.5076272487640381
1751015435750901500,5.071901611328125,0.005872270092368126,0.19217662513256073,-0.4606855809688568
1751015435760844500,5.081844482421875,0.024278441444039345,0.1915483921766281,-0.40873584151268005
1751015435770787600,5.09178759765625,0.035591814666986465,0.18537013232707977,-0.3588966429233551
1751015435780730400,5.10173046875,0.031632229685783386,0.15469424426555634,-0.3198368549346924
1751015435790673200,5.111673095703125,0.017773937433958054,0.11216408759355545,-0.30041414499282837
1751015435800617500,5.121617431640625,0.0030221552588045597,0.0724097490310669,-0.27856266498565674
1751015435810560500,5.131560546875,-0.00046072687837295234,0.05411809682846069,-0.25788614153862
1751015435820503600,5.141503662109375,0.007157245185226202,0.056649696081876755,-0.22778496146202087
1751015435830446600,5.151446533203125,0.027120301499962807,0.052201151847839355,-0.20104309916496277
1751015435840389400,5.161389404296875,0.06617502868175507,0.050519634038209915,-0.17629674077033997
1751015435850332200,5.171332275390625,0.10403585433959961,0.03389511629939079,-0.13837864995002747
1751015435860275200,5.181275146484375,0.14382268488407135,0.028448419645428658,-0.0874646008014679
1751015435870218200,5.19121826171875,0.17898572981357574,0.04319993406534195,-0.028421254828572273
1751015435880161300,5.201161376953125,0.20623280107975006,0.08308370411396027,0.021750569343566895
1751015435890104300,5.211104248046875,0.2440909594297409,0.14206579327583313,0.06059889867901802
1751015435900048100,5.221048095703125,0.2795288562774658,0.2081603854894638,0.07627426832914352
1751015435909991200,5.2309912109375,0.3163087069988251,0.2688884437084198,0.08054491132497787
1751015435919934200,5.240934326171875,0.3386741876602173,0.3051780164241791,0.07671555131673813
1751015435929877200,5.250877197265625,0.34551265835762024,0.30896371603012085,0.0674823746085167
1751015435939820300,5.2608203125,0.329429566860199,0.27435165643692017,0.07016471028327942
1751015435949763300,5.270763427734375,0.31037330627441406,0.20769593119621277,0.08205358684062958
1751015435959706400,5.280706298828125,0.2898605763912201,0.11640463769435883,0.125970721244812
1751015435969649400,5.2906494140625,0.2848133444786072,0.04100016504526138,0.1960531324148178
1751015435979592400,5.300592529296875,0.2913319766521454,-0.009889381937682629,0.2782851457595825
1751015435989535200,5.31053515625,0.30262431502342224,-0.034269556403160095,0.35948121547698975
1751015435999479300,5.320479248046875,0.3300634026527405,-0.03147776424884796,0.4272027313709259
1751015436009422300,5.33042236328125,0.38299399614334106,-0.008099472150206566,0.48258715867996216
1751015436019365400,5.340365478515625,0.4439316391944885,0.03576146066188812,0.5143799781799316
1751015436029308400,5.350308349609375,0.4978888928890228,0.09804773330688477,0.5060008764266968
1751015436039251200,5.360251220703125,0.5276398658752441,0.16258172690868378,0.43242785334587097
1751015436049194200,5.3701943359375,0.5112214684486389,0.17505596578121185,0.2561769187450409
1751015436059137300,5.38013720703125,0.4467111825942993,0.10615120083093643,0.0052203284576535225
1751015436069080300,5.390080322265625,0.3304487466812134,-0.03820863738656044,-0.2786302864551544
1751015436079023400,5.4000234375,0.1812496781349182,-0.23848633468151093,-0.5377830266952515
1751015436088966400,5.40996630859375,0.04093225300312042,-0.43719011545181274,-0.7144662141799927
1751015436098910200,5.41991015625,-0.04486547410488129,-0.5772920846939087,-0.7609873414039612
1751015436108853200,5.429853271484375,-0.050642404705286026,-0.64885014295578,-0.6811484694480896
1751015436118796300,5.43979638671875,0.03807734325528145,-0.6440447568893433,-0.4860186278820038
1751015436128739300,5.4497392578125,0.20210783183574677,-0.5352325439453125,-0.2056322544813156
1751015436138682400,5.459682373046875,0.3911336660385132,-0.37059056758880615,0.09927225857973099
1751015436148625400,5.46962548828125,0.5534682273864746,-0.19565631449222565,0.3641321361064911
1751015436158568400,5.479568359375,0.6500946879386902,-0.05374312400817871,0.5347651243209839
1751015436168511500,5.489511474609375,0.7018886208534241,0.037703171372413635,0.5884613990783691
1751015436178454300,5.499454345703125,0.7187557220458984,0.07866285741329193,0.5389447212219238
1751015436188397300,5.509397216796875,0.6874969005584717,0.06968187540769577,0.40111252665519714
1751015436198341400,5.51934130859375,0.5943381786346436,-0.0018634138396009803,0.22242482006549835
1751015436208284400,5.529284423828125,0.4658401310443878,-0.1183234453201294,0.03702353313565254
1751015436218227500,5.5392275390625,0.3218845725059509,-0.23706874251365662,-0.11851972341537476
1751015436228170500,5.54917041015625,0.17785334587097168,-0.30302804708480835,-0.21956990659236908
1751015436238113300,5.55911328125,0.07127711176872253,-0.2958465814590454,-0.26521942019462585
1751015436248056300,5.569056396484375,-0.001558748190291226,-0.2447567582130432,-0.27381396293640137
1751015436257999400,5.578999267578125,-0.04512912780046463,-0.1655293107032776,-0.24962447583675385
1751015436267942400,5.5889423828125,-0.049674611538648605,-0.05613650754094124,-0.20413555204868317
1751015436277885400,5.598885498046875,-0.014561898075044155,0.08692983537912369,-0.14066816866397858
1751015436287828500,5.608828369140625,0.055382564663887024,0.23720616102218628,-0.08043385297060013
1751015436297772300,5.618772216796875,0.13488511741161346,0.36173078417778015,-0.03797641023993492
1751015436307715300,5.62871533203125,0.1857757270336151,0.43419724702835083,-0.03226659446954727
1751015436317658400,5.638658447265625,0.19519320130348206,0.44145411252975464,-0.05612558871507645
1751015436327602000,5.648601806640625,0.17185698449611664,0.4108754098415375,-0.11514762789011002
1751015436337545000,5.658544921875,0.11256622523069382,0.3614029288291931,-0.1907331943511963
1751015436347488000,5.668488037109375,0.03116670809686184,0.33280885219573975,-0.257438987493515
1751015436357431000,5.67843115234375,-0.05512743443250656,0.31791484355926514,-0.29343801736831665
1751015436367373800,5.688373779296875,-0.1348710060119629,0.30713677406311035,-0.29621168971061707
1751015436377316900,5.69831689453125,-0.20231474936008453,0.2902299761772156,-0.2627458870410919
1751015436387260000,5.708260009765625,-0.25228869915008545,0.25770264863967896,-0.20342715084552765
1751015436397204000,5.718203857421875,-0.27996188402175903,0.2306065857410431,-0.11434654891490936
1751015436407147000,5.72814697265625,-0.2826785743236542,0.21154020726680756,-0.011843875981867313
1751015436417090000,5.738090087890625,-0.26263749599456787,0.19922681152820587,0.10322386026382446
1751015436427032800,5.74803271484375,-0.21951664984226227,0.1981937736272812,0.21053139865398407
1751015436436975900,5.757975830078125,-0.15791985392570496,0.21521244943141937,0.2947123348712921
1751015436446919000,5.7679189453125,-0.09068302810192108,0.2372053563594818,0.34410011768341064
1751015436456862000,5.777862060546875,-0.0350370779633522,0.2490825206041336,0.36364319920539856
1751015436466805000,5.787804931640625,0.000316916179144755,0.2517821788787842,0.3631923198699951
1751015436476748000,5.797748046875,0.018310563638806343,0.23735663294792175,0.3406934142112732
1751015436486690800,5.80769091796875,0.01607643812894821,0.21117882430553436,0.28411799669265747
1751015436496635000,5.817634765625,-0.01131284236907959,0.16504886746406555,0.20731297135353088
1751015436506578000,5.827577880859375,-0.04800880327820778,0.11017124354839325,0.12729457020759583
1751015436516521000,5.83752099609375,-0.0951603353023529,0.07799306511878967,0.07296528667211533
1751015436526464000,5.847464111328125,-0.15473738312721252,0.056419599801301956,0.03639262914657593
1751015436536406800,5.85740673828125,-0.2203321009874344,0.039986032992601395,0.024331172928214073
1751015436546349800,5.867349853515625,-0.2652314007282257,0.05481744185090065,0.03840145096182823
1751015436556292900,5.87729296875,-0.25446876883506775,0.1227264478802681,0.09285856783390045
1751015436566236000,5.88723583984375,-0.19503207504749298,0.20577207207679749,0.1797521859407425
1751015436576178700,5.8971787109375,-0.12185639888048172,0.2682916522026062,0.2597506046295166
1751015436586123000,5.907123046875,-0.05957517772912979,0.2916664779186249,0.3128015697002411
1751015436596065800,5.917065673828125,-0.01127901952713728,0.285270631313324,0.33080747723579407
1751015436606008800,5.9270087890625,0.003918841481208801,0.24579937756061554,0.29962825775146484
1751015436615952000,5.936951904296875,-0.01828952506184578,0.16899381577968597,0.21999680995941162
1751015436625895000,5.94689501953125,-0.09100713580846786,0.06420721858739853,0.09792496263980865
1751015436635837700,5.956837646484375,-0.218566432595253,-0.04909377545118332,-0.06267590075731277
1751015436645780700,5.96678076171875,-0.37309369444847107,-0.1437784731388092,-0.2448132187128067
1751015436655723800,5.976723876953125,-0.4909406900405884,-0.19824491441249847,-0.39872822165489197
1751015436665666800,5.986666748046875,-0.5284183025360107,-0.204557403922081,-0.49799302220344543
1751015436675609900,5.99660986328125,-0.4889691472053528,-0.14065618813037872,-0.5158929228782654
1751015436685553700,6.0065537109375,-0.3919302225112915,-0.015034343115985394,-0.45594674348831177
1751015436695496700,6.01649658203125,-0.2685803174972534,0.14606480300426483,-0.3296210467815399
1751015436705439700,6.026439697265625,-0.13674719631671906,0.3295632600784302,-0.16328586637973785
1751015436715382800,6.0363828125,-0.010583136230707169,0.4892953932285309,0.018996594473719597
1751015436725325800,6.046325927734375,0.0839790552854538,0.5952833294868469,0.18079933524131775
1751015436735268900,6.056268798828125,0.142598956823349,0.6291499733924866,0.28806188702583313
1751015436745212000,6.0662119140625,0.17322131991386414,0.6135632991790771,0.34616008400917053
1751015436755155000,6.076155029296875,0.16042989492416382,0.56568843126297,0.34576138854026794
1751015436765098000,6.086097900390625,0.11289192736148834,0.4762669503688812,0.2912512719631195
1751015436775041800,6.096041748046875,0.0376025028526783,0.36116060614585876,0.18653260171413422
1751015436784984800,6.10598486328125,-0.05452662333846092,0.2375158816576004,0.051310859620571136
1751015436794927900,6.115927978515625,-0.1364196240901947,0.10747586190700531,-0.1021580621600151
1751015436804871000,6.125870849609375,-0.19418784976005554,-0.0007326356135308743,-0.24709181487560272
1751015436814814000,6.13581396484375,-0.22101254761219025,-0.06490442901849747,-0.3599557876586914
1751015436824756700,6.1457568359375,-0.22202427685260773,-0.0911773145198822,-0.41899725794792175
1751015436834699800,6.15569970703125,-0.21490643918514252,-0.06811700016260147,-0.42678993940353394
1751015436844642800,6.165642822265625,-0.19292205572128296,-0.044436439871788025,-0.3887690603733063
1751015436854585900,6.1755859375,-0.16068369150161743,-0.020653346553444862,-0.3110271096229553
1751015436864529000,6.18552880859375,-0.1264902949333191,0.0011856392957270145,-0.2020484358072281
1751015436874473000,6.195472900390625,-0.10734722763299942,0.01667112112045288,-0.07954968512058258
1751015436884415700,6.205415771484375,-0.11949470639228821,0.03304636850953102,0.022659506648778915
1751015436894358800,6.21535888671875,-0.14900998771190643,0.04241536557674408,0.09663226455450058
1751015436904301800,6.2253017578125,-0.1906447857618332,0.04553632438182831,0.14053180813789368
1751015436914244900,6.235244873046875,-0.24191568791866302,0.035103391855955124,0.1623407006263733
1751015436924188000,6.24518798828125,-0.2898121178150177,0.013538445346057415,0.16871657967567444
1751015436934131000,6.255130859375,-0.3388270437717438,-0.024771658703684807,0.16777941584587097
1751015436944074000,6.265073974609375,-0.3823772072792053,-0.09243672341108322,0.16196733713150024
1751015436954017000,6.27501708984375,-0.4064473807811737,-0.1605401486158371,0.15047898888587952
1751015436963960800,6.2849609375,-0.4083099961280823,-0.2016628086566925,0.14385756850242615
1751015436973904000,6.29490380859375,-0.3847351670265198,-0.1998254954814911,0.13648967444896698
1751015436983847000,6.304846923828125,-0.3458532691001892,-0.1757044494152069,0.1262575387954712
1751015436993790000,6.3147900390625,-0.29639944434165955,-0.12141750752925873,0.11311883479356766
1751015437003733000,6.32473291015625,-0.24869424104690552,-0.042445193976163864,0.08551223576068878
1751015437013676000,6.334676025390625,-0.20186388492584229,0.05360517278313637,0.04676244407892227
1751015437023618800,6.344618896484375,-0.15889617800712585,0.14454945921897888,0.007649930194020271
1751015437033561900,6.354561767578125,-0.11851892620325089,0.201082244515419,-0.023139141499996185
1751015437043505000,6.3645048828125,-0.08840656280517578,0.20892152190208435,-0.036322854459285736
1751015437053449000,6.374448974609375,-0.06209053471684456,0.18003714084625244,-0.03645361587405205
1751015437063392000,6.38439208984375,-0.04537627100944519,0.11195529997348785,-0.01871643029153347
1751015437073335000,6.3943349609375,-0.03741847723722458,0.002039981307461858,0.0012120045721530914
1751015437083277800,6.40427783203125,-0.03496197983622551,-0.12444286048412323,0.020897824317216873
1751015437093220900,6.414220947265625,-0.019034145399928093,-0.22830933332443237,0.06832925975322723
1751015437103164000,6.424163818359375,0.019236013293266296,-0.27176839113235474,0.13944923877716064
1751015437113107000,6.43410693359375,0.09850367158651352,-0.2445642054080963,0.22716817259788513
1751015437123050000,6.444050048828125,0.21922503411769867,-0.18673206865787506,0.33127620816230774
1751015437132993000,6.453992919921875,0.3386209309101105,-0.10543347895145416,0.4236719012260437
1751015437142935800,6.463935791015625,0.4321841597557068,-0.029621807858347893,0.47562724351882935
1751015437152879900,6.4738798828125,0.46107280254364014,0.004400873556733131,0.43964874744415283
1751015437162823000,6.483822998046875,0.39120665192604065,-0.026444124057888985,0.25977885723114014
1751015437172766000,6.493765869140625,0.21598368883132935,-0.12649375200271606,-0.05487203598022461
1751015437182709000,6.503708984375,-0.023904534056782722,-0.2913319766521454,-0.4491543769836426
1751015437192652000,6.513652099609375,-0.258710652589798,-0.4913284480571747,-0.8103485107421875
1751015437202594800,6.5235947265625,-0.4253230690956116,-0.6037338376045227,-1.040421962738037
1751015437212537900,6.533537841796875,-0.45827382802963257,-0.5481693744659424,-1.0756856203079224
1751015437222481000,6.54348095703125,-0.35878825187683105,-0.37816035747528076,-0.9380617141723633
1751015437232423700,6.553423583984375,-0.17429697513580322,-0.17181064188480377,-0.6660773754119873
1751015437242368000,6.563367919921875,0.02683454379439354,0.038238465785980225,-0.3224709928035736
1751015437252310800,6.573310791015625,0.2222525030374527,0.22584031522274017,0.034261565655469894
1751015437262253800,6.58325390625,0.3773486316204071,0.33088418841362,0.33734235167503357
1751015437272196900,6.59319677734375,0.48560717701911926,0.3398904502391815,0.5517654418945312
1751015437282140000,6.603139892578125,0.5399881601333618,0.3032618761062622,0.6500709652900696
1751015437292082700,6.613082763671875,0.5269591212272644,0.23315788805484772,0.638755738735199
1751015437302025700,6.623025634765625,0.44427865743637085,0.11495694518089294,0.5383159518241882
1751015437311968800,6.63296875,0.30907049775123596,-0.01672944612801075,0.38525262475013733
1751015437321911000,6.6429111328125,0.14536944031715393,-0.1218036636710167,0.21706679463386536
1751015437331855000,6.652855224609375,-0.019115637987852097,-0.16840632259845734,0.06819450110197067
1751015437341798100,6.662798095703125,-0.12933987379074097,-0.15656404197216034,-0.057196974754333496
1751015437351741200,6.6727412109375,-0.18535414338111877,-0.10479459166526794,-0.1479833424091339
1751015437361684000,6.68268408203125,-0.19048552215099335,-0.02292102761566639,-0.20888210833072662
1751015437371627000,6.692626953125,-0.16143390536308289,0.06741365790367126,-0.2444041520357132
1751015437381570000,6.702570068359375,-0.09326256811618805,0.14698918163776398,-0.2503259479999542
1751015437391513000,6.71251318359375,-0.0054448326118290424,0.21221984922885895,-0.24824443459510803
1751015437401456000,6.7224560546875,0.08760494738817215,0.2683153450489044,-0.23378212749958038
1751015437411399200,6.732399169921875,0.1583307832479477,0.30348238348960876,-0.2302345335483551
1751015437421343000,6.742343017578125,0.18941280245780945,0.3157387971878052,-0.23763999342918396
1751015437431286000,6.7522861328125,0.18424174189567566,0.2967613637447357,-0.26031628251075745
1751015437441229000,6.76222900390625,0.14885632693767548,0.27416232228279114,-0.2952151298522949
1751015437451172000,6.772172119140625,0.09429001808166504,0.24272635579109192,-0.326515257358551
1751015437461115100,6.782115234375,0.021334050223231316,0.2017054259777069,-0.3293086588382721
1751015437471058200,6.79205810546875,-0.057550378143787384,0.18292002379894257,-0.30289143323898315
1751015437481001200,6.802001220703125,-0.1358148157596588,0.17192621529102325,-0.2504143714904785
1751015437490944300,6.8119443359375,-0.20177200436592102,0.1520467847585678,-0.19983720779418945
1751015437500887000,6.821886962890625,-0.25208523869514465,0.1216002032160759,-0.15102413296699524
1751015437510831000,6.8318310546875,-0.2807943820953369,0.07848814874887466,-0.10936670750379562
1751015437520774100,6.841774169921875,-0.2876903712749481,0.0490863211452961,-0.05788993090391159
1751015437530717200,6.85171728515625,-0.28203248977661133,0.03976685553789139,0.004375840071588755
1751015437540660200,6.86166015625,-0.26517653465270996,0.035654135048389435,0.07238897681236267
1751015437550603300,6.871603271484375,-0.2280331701040268,0.01822427660226822,0.14400669932365417
1751015437560546000,6.881546142578125,-0.18425533175468445,-0.0014255901332944632,0.2028106302022934
1751015437570489000,6.891489013671875,-0.14150679111480713,-0.032404277473688126,0.24367257952690125
1751015437580432100,6.90143212890625,-0.12158102542161942,-0.08366800099611282,0.2516796290874481
1751015437590375200,6.911375244140625,-0.13690698146820068,-0.14227990806102753,0.22162958979606628
1751015437600319200,6.9213193359375,-0.1817394345998764,-0.19030389189720154,0.16493569314479828
1751015437610262300,6.93126220703125,-0.24172234535217285,-0.2044423520565033,0.10105045139789581
1751015437620205000,6.941205078125,-0.29846444725990295,-0.19258463382720947,0.056827861815690994
1751015437630148000,6.951148193359375,-0.33753702044487,-0.14651593565940857,0.04528678581118584
1751015437640091100,6.961091064453125,-0.3662794530391693,-0.062430888414382935,0.07389339804649353
1751015437650034200,6.9710341796875,-0.3683071732521057,0.0536685548722744,0.13796372711658478
1751015437659977200,6.980977294921875,-0.32444119453430176,0.19280540943145752,0.22956901788711548
1751015437669920300,6.990920166015625,-0.23767167329788208,0.31988558173179626,0.33467304706573486
1751015437679863300,7.00086328125,-0.14339551329612732,0.40378236770629883,0.42653587460517883
1751015437689807000,7.01080712890625,-0.06163140758872032,0.4422469139099121,0.48409342765808105
1751015437699750100,7.020750244140625,-0.026273149996995926,0.438252717256546,0.48858246207237244
1751015437709693200,7.030693115234375,-0.056643836200237274,0.3922961354255676,0.4262743592262268
1751015437719636200,7.04063623046875,-0.14921531081199646,0.31852391362190247,0.296256422996521
1751015437729579300,7.050579345703125,-0.3053646981716156,0.23616619408130646,0.11069455742835999
1751015437739522300,7.060522216796875,-0.5175256729125977,0.15192721784114838,-0.11114170402288437
1751015437749465300,7.07046533203125,-0.7234032154083252,0.10870730876922607,-0.3223268985748291
1751015437759408000,7.080408203125,-0.8364938497543335,0.15817232429981232,-0.45122018456459045
1751015437769352200,7.090352294921875,-0.8220323324203491,0.28868505358695984,-0.45662906765937805
1751015437779295200,7.100295166015625,-0.7049826979637146,0.47897058725357056,-0.3455371558666229
1751015437789238300,7.11023828125,-0.5175802707672119,0.668864905834198,-0.14590208232402802
1751015437799181300,7.120181396484375,-0.28860169649124146,0.8082273006439209,0.09642480313777924
1751015437809124400,7.130124267578125,-0.07523616403341293,0.8879961967468262,0.34622451663017273
1751015437819067100,7.140067138671875,0.10195379704236984,0.9159790873527527,0.5680474638938904
1751015437829010000,7.150010009765625,0.2537126839160919,0.8992370963096619,0.7529009580612183
1751015437838953000,7.159952880859375,0.36790743470191956,0.8515598773956299,0.8775227665901184
1751015437848896000,7.16989599609375,0.44851601123809814,0.775185227394104,0.9436019062995911
1751015437858840300,7.17984033203125,0.49031272530555725,0.6823042631149292,0.9223730564117432
1751015437868783400,7.189783447265625,0.4868183732032776,0.5819294452667236,0.8198149800300598
1751015437878726000,7.199725830078125,0.4443979561328888,0.47894689440727234,0.6409823894500732
1751015437888669000,7.2096689453125,0.37000495195388794,0.3817659914493561,0.4126618802547455
1751015437898612000,7.219612060546875,0.2785291075706482,0.29018309712409973,0.1509370505809784
1751015437908555000,7.229554931640625,0.16486191749572754,0.19864624738693237,-0.1284692883491516
1751015437918498000,7.239498046875,0.049015745520591736,0.10491176694631577,-0.40437865257263184
1751015437928441000,7.249441162109375,-0.05830618366599083,0.015677496790885925,-0.6535453200340271
1751015437938384100,7.259384033203125,-0.13954325020313263,-0.0675598680973053,-0.859918475151062
1751015437948328000,7.269327880859375,-0.1902889907360077,-0.16344058513641357,-1.0221039056777954
1751015437958271000,7.27927099609375,-0.2156960666179657,-0.271931916475296,-1.1187862157821655
1751015437968214000,7.289214111328125,-0.21726679801940918,-0.3738225996494293,-1.1320573091506958
1751015437978157000,7.299156982421875,-0.20875374972820282,-0.4477088153362274,-1.051857829093933
1751015437988100000,7.30910009765625,-0.18850094079971313,-0.491418719291687,-0.8995103240013123
1751015437998043100,7.319043212890625,-0.17407380044460297,-0.5238667130470276,-0.7105470895767212
1751015438007986200,7.328986083984375,-0.16135267913341522,-0.5420515537261963,-0.5223886370658875
1751015438017929000,7.338928955078125,-0.1494177132844925,-0.5505209565162659,-0.35606491565704346
1751015438027873000,7.348873046875,-0.1451105922460556,-0.5476162433624268,-0.22054356336593628
1751015438037816000,7.358816162109375,-0.15145769715309143,-0.5500383973121643,-0.12426576018333435
1751015438047759000,7.368759033203125,-0.16693413257598877,-0.5583181381225586,-0.06742192059755325
1751015438057702100,7.3787021484375,-0.1762104481458664,-0.5654849410057068,-0.03482562303543091
1751015438067645200,7.388645263671875,-0.16767741739749908,-0.5459941029548645,-0.00755112711340189
1751015438077588000,7.398587890625,-0.13186855614185333,-0.5023669600486755,0.006427539046853781
1751015438087531000,7.408531005859375,-0.08484058827161789,-0.4523208737373352,0.005549761466681957
1751015438097474000,7.41847412109375,-0.027089940384030342,-0.4006451666355133,0.011784753762185574
1751015438107417000,7.4284169921875,0.032832249999046326,-0.3173678517341614,0.035885829478502274
1751015438117361200,7.438361083984375,0.10709955543279648,-0.21331600844860077,0.07018521428108215
1751015438127304200,7.44830419921875,0.1807924211025238,-0.10447420924901962,0.12468254566192627
1751015438137247000,7.4582470703125,0.2553582787513733,-0.02803776040673256,0.18443775177001953
1751015438147190000,7.46818994140625,0.33608508110046387,0.018157698214054108,0.25336888432502747
1751015438157133000,7.478133056640625,0.40390700101852417,0.04453524202108383,0.32236340641975403
1751015438167076000,7.488076171875,0.4552263617515564,0.03797028586268425,0.397122859954834
1751015438177019100,7.49801904296875,0.48824742436408997,0.016376575455069542,0.47119495272636414
1751015438186962200,7.507962158203125,0.5223313570022583,0.0015717976493760943,0.5425503849983215
1751015438196906000,7.517906005859375,0.5591644644737244,-0.014071344397962093,0.6024928092956543
1751015438206849000,7.52784912109375,0.6149712800979614,-0.05645928159356117,0.6596072316169739
1751015438216792000,7.5377919921875,0.6809386014938354,-0.11433243751525879,0.7083473205566406
1751015438226735000,7.547735107421875,0.7330212593078613,-0.18825991451740265,0.7308616638183594
1751015438236678100,7.55767822265625,0.7422972917556763,-0.29019373655319214,0.7021685242652893
1751015438246621200,7.56762109375,0.7021898031234741,-0.3733312487602234,0.5920702219009399
1751015438256564200,7.577564208984375,0.6094979643821716,-0.4165428876876831,0.39398592710494995
1751015438266507300,7.58750732421875,0.4854905307292938,-0.45326974987983704,0.12895691394805908
1751015438276450000,7.597449951171875,0.36412015557289124,-0.5079314112663269,-0.17480376362800598
1751015438286394000,7.60739404296875,0.25809332728385925,-0.5745253562927246,-0.44893306493759155
1751015438296337200,7.617337158203125,0.21384145319461823,-0.556263267993927,-0.613727867603302
1751015438306280200,7.6272802734375,0.2634718418121338,-0.41116970777511597,-0.634211540222168
1751015438316223200,7.63722314453125,0.41052281856536865,-0.17618168890476227,-0.5042365193367004
1751015438326166300,7.647166259765625,0.5981089472770691,0.07730517536401749,-0.2753247916698456
1751015438336109300,7.657109375,0.7759383320808411,0.3009079098701477,0.0044408212415874004
1751015438346052400,7.66705224609375,0.8924111723899841,0.45005345344543457,0.27447202801704407
1751015438355995400,7.676995361328125,0.948473334312439,0.49936506152153015,0.48299115896224976
1751015438365939500,7.686939453125,0.9620816111564636,0.46621882915496826,0.600726842880249
1751015438375882500,7.696882568359375,0.9242479205131531,0.38226720690727234,0.6456437110900879
1751015438385825300,7.7068251953125,0.8201510906219482,0.2509656548500061,0.6083868741989136
1751015438395768300,7.716768310546875,0.6555464267730713,0.0812636986374855,0.5042183995246887
1751015438405711400,7.72671142578125,0.43634989857673645,-0.07795258611440659,0.3625262677669525
1751015438415654400,7.736654296875,0.1990281492471695,-0.18659278750419617,0.19804836809635162
1751015438425597400,7.746597412109375,-0.035172902047634125,-0.23068514466285706,0.04680345952510834
1751015438435540500,7.75654052734375,-0.22936980426311493,-0.20039381086826324,-0.07831104844808578
1751015438445483500,7.7664833984375,-0.3599192798137665,-0.11481766402721405,-0.1736452877521515
1751015438455427300,7.77642724609375,-0.4378891885280609,-0.012899287045001984,-0.2491898536682129
1751015438465370400,7.786370361328125,-0.4673043489456177,0.06553985923528671,-0.30112016201019287
1751015438475313400,7.7963134765625,-0.44987422227859497,0.1413392871618271,-0.34030431509017944
1751015438485256400,7.80625634765625,-0.3911485970020294,0.2075129747390747,-0.3533948063850403
1751015438495199500,7.816199462890625,-0.30962681770324707,0.24975576996803284,-0.35162168741226196
1751015438505142500,7.826142578125,-0.23323431611061096,0.2561076879501343,-0.3490253686904907
1751015438515085600,7.83608544921875,-0.18102677166461945,0.23280900716781616,-0.3444628417491913
1751015438525028400,7.8460283203125,-0.1697738617658615,0.18634803593158722,-0.3490908741950989
1751015438534971400,7.855971435546875,-0.1924125850200653,0.13048982620239258,-0.35701510310173035
1751015438544915500,7.86591552734375,-0.24733150005340576,0.09110274910926819,-0.3674544394016266
1751015438554858500,7.8758583984375,-0.31710952520370483,0.06496701389551163,-0.3665127456188202
1751015438564801500,7.885801513671875,-0.39841341972351074,0.03849652409553528,-0.3600314259529114
1751015438574744600,7.89574462890625,-0.4744410812854767,0.010602576658129692,-0.33728641271591187
1751015438584687400,7.905687255859375,-0.527956485748291,-0.018869029358029366,-0.30018699169158936
1751015438594630400,7.91563037109375,-0.5588680505752563,-0.05071510747075081,-0.25602486729621887
1751015438604573400,7.925573486328125,-0.5589487552642822,-0.08621717989444733,-0.21217510104179382
1751015438614516200,7.93551611328125,-0.5328639149665833,-0.12030404061079025,-0.17363756895065308
1751015438624460500,7.94546044921875,-0.4770389795303345,-0.13980557024478912,-0.15014982223510742
1751015438634403600,7.955403564453125,-0.4187013804912567,-0.1439553052186966,-0.14050571620464325
1751015438644346400,7.965346435546875,-0.35729527473449707,-0.13817065954208374,-0.15594007074832916
1751015438654289400,7.975289306640625,-0.3068249225616455,-0.14212945103645325,-0.195237934589386
1751015438664232200,7.985232177734375,-0.278510719537735,-0.14467915892601013,-0.2571050226688385
1751015438674175200,7.99517529296875,-0.2800700068473816,-0.16935759782791138,-0.32669901847839355
1751015438684118300,8.0051181640625,-0.3117389678955078,-0.22686856985092163,-0.3826243281364441
1751015438694061300,8.015061279296875,-0.3724673092365265,-0.3003135025501251,-0.40814515948295593
1751015438704005400,8.02500537109375,-0.4553888142108917,-0.332454115152359,-0.3770847022533417
1751015438713948400,8.034948486328124,-0.5523608922958374,-0.31702694296836853,-0.28674840927124023
1751015438723891200,8.04489111328125,-0.6598591208457947,-0.29805806279182434,-0.1390678733587265
1751015438733834200,8.054834228515626,-0.7410780787467957,-0.2572144865989685,0.0516916885972023
1751015438743777300,8.06477734375,-0.7726756930351257,-0.18813848495483398,0.27163976430892944
1751015438753720300,8.07472021484375,-0.753668487071991,-0.12363778799772263,0.47506797313690186
1751015438763663400,8.084663330078126,-0.6989737749099731,-0.1079602912068367,0.6259320378303528
1751015438773606400,8.0946064453125,-0.6351417899131775,-0.1291329562664032,0.7033043503761292
1751015438783549200,8.104549072265625,-0.5797850489616394,-0.17687304317951202,0.7115364670753479
1751015438793493200,8.1144931640625,-0.5682418942451477,-0.22908590734004974,0.6571994423866272
1751015438803436300,8.124436279296875,-0.6379282474517822,-0.2577814757823944,0.516221284866333
1751015438813379300,8.13437939453125,-0.8035246729850769,-0.2918297350406647,0.2899218201637268
1751015438823322400,8.144322265625,-1.028995394706726,-0.3424161970615387,-0.023633690550923347
1751015438833265400,8.154265380859375,-1.227370262145996,-0.39346474409103394,-0.37983787059783936
1751015438843208200,8.164208251953125,-1.3450582027435303,-0.4103347957134247,-0.68680340051651
1751015438853151200,8.174151123046874,-1.389657974243164,-0.36534175276756287,-0.8792365193367004
1751015438863094300,8.18409423828125,-1.329512357711792,-0.2779304087162018,-0.9249307513237
1751015438873038300,8.194038330078126,-1.1652040481567383,-0.13970597088336945,-0.8164588809013367
1751015438882981400,8.2039814453125,-0.9189959168434143,0.04247395694255829,-0.5917797088623047
1751015438892924400,8.21392431640625,-0.6354590058326721,0.23054052889347076,-0.2972966730594635
1751015438902867200,8.2238671875,-0.3448529839515686,0.40001237392425537,0.011480088345706463
1751015438912810200,8.233810302734375,-0.08816953748464584,0.5095871090888977,0.29409581422805786
1751015438922753300,8.243753173828125,0.12123774737119675,0.5689369440078735,0.5202450752258301
1751015438932696300,8.2536962890625,0.3036365807056427,0.5768992900848389,0.6717464327812195
1751015438942639400,8.263639404296875,0.4292469620704651,0.5716741681098938,0.7491708993911743
1751015438952583400,8.27358349609375,0.4888935089111328,0.5291634202003479,0.7373587489128113
1751015438962526200,8.283526123046874,0.47674524784088135,0.4513368308544159,0.6417105197906494
1751015438972469200,8.29346923828125,0.4199730455875397,0.368277370929718,0.48169687390327454
1751015438982412300,8.303412353515625,0.34506338834762573,0.2997044324874878,0.2835443615913391
1751015438992355300,8.313355224609374,0.2787376344203949,0.242081880569458,0.06613321602344513
1751015439002298400,8.32329833984375,0.23515047132968903,0.19456548988819122,-0.1311524212360382
1751015439012241400,8.333241455078126,0.22020374238491058,0.15997688472270966,-0.2932153642177582
1751015439022184400,8.343184326171874,0.22228233516216278,0.15348222851753235,-0.39950957894325256
1751015439032128300,8.353128173828125,0.22980469465255737,0.16257479786872864,-0.4403052031993866
1751015439042071300,8.3630712890625,0.24347950518131256,0.16966386139392853,-0.4363946318626404
1751015439052014300,8.373014404296875,0.25229430198669434,0.16873815655708313,-0.3887275159358978
1751015439061957400,8.382957275390625,0.2533230781555176,0.18119482696056366,-0.3020051419734955
1751015439071900400,8.392900390625,0.24478605389595032,0.18781037628650665,-0.19340355694293976
1751015439081843500,8.402843505859375,0.23421595990657806,0.18330857157707214,-0.07688891887664795
1751015439091786500,8.412786376953125,0.22280165553092957,0.1745704710483551,0.01865331269800663
1751015439101729300,8.422729248046876,0.21769610047340393,0.1480986475944519,0.08180777728557587
1751015439111673300,8.43267333984375,0.21508167684078217,0.09116319566965103,0.10446994751691818
1751015439121616400,8.442616455078126,0.21854326128959656,0.02250823751091957,0.11797217279672623
1751015439131559400,8.452559326171874,0.20943790674209595,-0.028502481058239937,0.10921543836593628
1751015439141502500,8.46250244140625,0.1936027556657791,-0.05434206873178482,0.0851612314581871
1751015439151445500,8.472445556640626,0.1664036214351654,-0.06565464287996292,0.044976264238357544
1751015439161388300,8.48238818359375,0.13988520205020905,-0.074343740940094,-0.00006817692337790504
1751015439171331300,8.492331298828125,0.12750522792339325,-0.06359095871448517,-0.04123212397098541
1751015439181274400,8.5022744140625,0.13353168964385986,-0.02359347604215145,-0.06738836318254471
1751015439191218400,8.512218505859375,0.16193030774593353,0.054436344653367996,-0.060031380504369736
1751015439201161500,8.522161376953125,0.202743262052536,0.12466789782047272,-0.03635241463780403
1751015439211104500,8.5321044921875,0.2462473213672638,0.14994528889656067,0.000996554852463305
1751015439221047300,8.54204736328125,0.3029843866825104,0.1479540467262268,0.06378670036792755
1751015439230990300,8.551990234375,0.34367987513542175,0.12276080995798111,0.13038517534732819
1751015439240933400,8.561933349609374,0.3687213063240051,0.06215391680598259,0.1866881251335144
1751015439250876400,8.57187646484375,0.38140860199928284,-0.012060657143592834,0.22363309562206268
1751015439260819500,8.5818193359375,0.392941415309906,-0.08496469259262085,0.24878399074077606
1751015439270763500,8.591763427734374,0.40708786249160767,-0.1436421126127243,0.24868331849575043
1751015439280706300,8.601706298828125,0.4358595907688141,-0.1660534143447876,0.24124404788017273
1751015439290649300,8.6116494140625,0.48618829250335693,-0.15692676603794098,0.24493199586868286
1751015439300592400,8.62159228515625,0.5592949986457825,-0.13321052491664886,0.26047420501708984
1751015439310535400,8.631535400390625,0.6382513046264648,-0.11320644617080688,0.2700996696949005
1751015439320478500,8.641478515625,0.6877275109291077,-0.11268074065446854,0.25473642349243164
1751015439330421800,8.651421875,0.6940914392471313,-0.06748183816671371,0.2158486694097519
1751015439340364800,8.66136474609375,0.645789384841919,-0.02123870886862278,0.12418480217456818
1751015439350308600,8.67130859375,0.5342079997062683,-0.03153448924422264,-0.03874819353222847
1751015439360251600,8.681251708984375,0.39068493247032166,-0.12625141441822052,-0.2554565370082855
1751015439370194700,8.691194580078125,0.23420503735542297,-0.2583572566509247,-0.46408429741859436
1751015439380137700,8.7011376953125,0.1306762546300888,-0.35569578409194946,-0.5995105504989624
1751015439390080800,8.711080810546875,0.10777919739484787,-0.3647041916847229,-0.611185610294342
1751015439400023800,8.72102392578125,0.18838056921958923,-0.3112598657608032,-0.5074176788330078
1751015439409966600,8.730966552734374,0.3630690276622772,-0.2187137007713318,-0.3169923424720764
1751015439419909600,8.74090966796875,0.5928041934967041,-0.11136194318532944,-0.07930147647857666
1751015439429853700,8.750853759765626,0.8215199708938599,-0.0008458199445158243,0.15747298300266266
1751015439439796700,8.760796630859375,0.9843317866325378,0.0899709016084671,0.34247344732284546
1751015439449739800,8.77073974609375,1.0607730150222778,0.14265036582946777,0.44490954279899597
1751015439459682800,8.780682861328126,1.071065068244934,0.1280042976140976,0.4601457715034485
1751015439469625600,8.79062548828125,1.0122113227844238,0.06294754147529602,0.4013114869594574
1751015439479568600,8.800568603515625,0.8790026903152466,-0.029876671731472015,0.3010424077510834
1751015439489511700,8.81051171875,0.697706401348114,-0.11830028146505356,0.17764082551002502
1751015439499454700,8.820454833984375,0.48677578568458557,-0.1689125895500183,0.06482160836458206
1751015439509398800,8.830398681640625,0.2988538146018982,-0.17480376362800598,-0.022066419944167137
1751015439519341800,8.840341796875,0.17204473912715912,-0.1410154402256012,-0.06613454222679138
1751015439529284600,8.85028466796875,0.10702817887067795,-0.08091455698013306,-0.07739172875881195
1751015439539227600,8.8602275390625,0.09564556926488876,-0.0028005801141262054,-0.04898272082209587
1751015439549170700,8.870170654296874,0.13687236607074738,0.08700813353061676,0.013365340419113636
1751015439559113700,8.88011376953125,0.2173461616039276,0.19445869326591492,0.09310464560985565
1751015439569056800,8.890056884765626,0.3118942379951477,0.29505959153175354,0.171272411942482
1751015439578999800,8.899999755859374,0.3772173225879669,0.3722204267978668,0.21523454785346985
1751015439588943600,8.909943603515625,0.39635053277015686,0.4092665910720825,0.2066969871520996
1751015439598886700,8.91988671875,0.37659361958503723,0.4176552891731262,0.1548393815755844
1751015439608829700,8.92982958984375,0.3310098946094513,0.410422146320343,0.06762005388736725
1751015439618772700,8.939772705078125,0.25185859203338623,0.382548451423645,-0.03970373794436455
1751015439628715800,8.9497158203125,0.14364105463027954,0.3212573826313019,-0.15126276016235352
1751015439638658800,8.959658935546875,0.022340992465615273,0.2408677339553833,-0.24766039848327637
1751015439648601900,8.969601806640625,-0.08165677636861801,0.17518272995948792,-0.30158647894859314
1751015439658545700,8.979545654296874,-0.15118153393268585,0.13120302557945251,-0.31973618268966675
1751015439668488700,8.98948876953125,-0.1831866055727005,0.09776570647954941,-0.31781312823295593
1751015439678431700,8.999431640625,-0.18200628459453583,0.06519551575183868,-0.30307358503341675
1751015439688374800,9.009374755859374,-0.16418787837028503,0.03687812387943268,-0.2684330642223358
1751015439698317800,9.01931787109375,-0.14225727319717407,0.009696302935481071,-0.21174927055835724
1751015439708260900,9.0292607421875,-0.10662684589624405,-0.014844193123281002,-0.13320758938789368
1751015439718204000,9.039203857421874,-0.05489574000239372,-0.0226746853441,-0.037766020745038986
1751015439728146700,9.049146728515625,0.00938870757818222,-0.03820277750492096,0.058332014828920364
1751015439738090800,9.0590908203125,0.07583270967006683,-0.05997864902019501,0.15035487711429596
1751015439748033800,9.06903369140625,0.12204495072364807,-0.0791398286819458,0.22970430552959442
1751015439757976800,9.078976806640625,0.14525200426578522,-0.09412436932325363,0.3079543709754944
1751015439767919900,9.088919921875,0.1482802778482437,-0.0994991585612297,0.36894235014915466
1751015439777863000,9.09886279296875,0.12564420700073242,-0.11377663165330887,0.3906756043434143
1751015439787805700,9.1088056640625,0.08653009682893753,-0.1466190069913864,0.353113055229187
1751015439797748700,9.118748779296874,0.02684572897851467,-0.19278889894485474,0.27093589305877686
1751015439807691800,9.12869189453125,-0.02943245694041252,-0.23739604651927948,0.17773564159870148
1751015439817635800,9.1386357421875,-0.07989989221096039,-0.23515072464942932,0.08954506367444992
1751015439827579000,9.148578857421874,-0.11681023985147476,-0.20147985219955444,0.03718545287847519
1751015439837521700,9.158521728515625,-0.12920884788036346,-0.15832625329494476,0.02640417590737343
1751015439847464700,9.168464599609376,-0.12409798055887222,-0.13853231072425842,0.05577192083001137
1751015439857407700,9.17840771484375,-0.11979484558105469,-0.13452212512493134,0.10526996105909348
1751015439867350800,9.188350830078125,-0.1510089486837387,-0.1582612693309784,0.13246563076972961
1751015439877293800,9.1982939453125,-0.21305474638938904,-0.20254644751548767,0.12890365719795227
1751015439887238000,9.20823779296875,-0.3063735067844391,-0.2422081083059311,0.09040313214063644
1751015439897180700,9.2181806640625,-0.4398050606250763,-0.27208957076072693,0.0054640076123178005
1751015439907123700,9.228123779296874,-0.5824825763702393,-0.2975832223892212,-0.11508690565824509
1751015439917066800,9.238066650390625,-0.6776602268218994,-0.3228161334991455,-0.2319757044315338
1751015439927009800,9.248009765625,-0.7077022790908813,-0.3336613178253174,-0.2844439744949341
1751015439936952800,9.257952880859374,-0.6714428067207336,-0.2951757311820984,-0.24947907030582428
1751015439946896000,9.267895751953125,-0.5488085150718689,-0.21534666419029236,-0.12594221532344818
1751015439956839000,9.2778388671875,-0.3677998483181,-0.09863390028476715,0.05849446728825569
1751015439966782700,9.28778271484375,-0.16441690921783447,0.052318066358566284,0.2952614724636078
1751015439976725800,9.297725830078125,0.029858296737074852,0.20056451857089996,0.5362035036087036
1751015439986668800,9.307668701171876,0.17936576902866364,0.3120095729827881,0.7377288937568665
1751015439996611800,9.31761181640625,0.2905106544494629,0.3840014636516571,0.8604447245597839
1751015440006555000,9.327554931640625,0.3638905882835388,0.44852399826049805,0.8997095823287964
1751015440016498000,9.337497802734376,0.3851008117198944,0.49982234835624695,0.8494431972503662
1751015440026441000,9.34744091796875,0.34484952688217163,0.5078781247138977,0.7126778960227966
1751015440036384800,9.357384765625,0.2564142048358917,0.4824278950691223,0.5019957423210144
1751015440046327800,9.367327880859374,0.13550935685634613,0.4434434771537781,0.2538042962551117
1751015440056270800,9.377270751953125,0.013819941319525242,0.40090906620025635,0.004710332956165075
1751015440066214000,9.3872138671875,-0.08915624022483826,0.33548372983932495,-0.231791153550148
1751015440076157000,9.397156982421874,-0.1545214056968689,0.24924364686012268,-0.43565240502357483
1751015440086100000,9.407099853515625,-0.16551759839057922,0.17254513502120972,-0.5834378600120544
1751015440096042800,9.417042724609376,-0.1375325620174408,0.12632091343402863,-0.6549205780029297
1751015440105985500,9.426985595703124,-0.09385592490434647,0.0985737144947052,-0.6527155041694641
1751015440115929900,9.436929931640625,-0.047565121203660965,0.05813147872686386,-0.592354416847229
1751015440125873000,9.446872802734376,-0.0029553098138421774,0.01525645051151514,-0.4838292598724365
1751015440135816000,9.45681591796875,0.023357519879937172,-0.006175870541483164,-0.34396642446517944
1751015440145758700,9.4667587890625,0.018192319199442863,0.017978733405470848,-0.19548320770263672
1751015440155701800,9.47670166015625,-0.02010446973145008,0.07563963532447815,-0.06321412324905396
1751015440165644500,9.48664453125,-0.07693979144096375,0.13351091742515564,0.027393540367484093
1751015440175587600,9.496587646484375,-0.13401852548122406,0.1687711775302887,0.06359415501356125
1751015440185532000,9.506531982421874,-0.19323843717575073,0.17300985753536224,0.06470975279808044
1751015440195475000,9.516474853515625,-0.24777545034885406,0.14179840683937073,0.032638903707265854
1751015440205417700,9.526417724609376,-0.2951386868953705,0.06965817511081696,-0.018080200999975204
1751015440215360800,9.53636083984375,-0.3224707245826721,-0.034744665026664734,-0.07892730832099915
1751015440225303600,9.546303466796875,-0.3177318871021271,-0.14335130155086517,-0.11988752335309982
1751015440235246600,9.55624658203125,-0.2900584638118744,-0.2056325227022171,-0.12740589678287506
1751015440245189600,9.566189697265624,-0.2449764609336853,-0.2058066874742508,-0.10533227771520615
1751015440255133700,9.5761337890625,-0.17251238226890564,-0.1597161591053009,-0.075558140873909
1751015440265076700,9.58607666015625,-0.07050905376672745,-0.09760671854019165,-0.04080149158835411
1751015440275019500,9.59601953125,0.03964008763432503,-0.01824025623500347,-0.010097907856106758
1751015440284962600,9.605962646484375,0.14229775965213776,0.06417711824178696,0.019990485161542892
1751015440294905600,9.615905517578126,0.21352346241474152,0.104857437312603,0.03364158421754837
1751015440304848600,9.6258486328125,0.24380093812942505,0.08770322054624557,0.027122430503368378
1751015440314791700,9.635791748046875,0.23749591410160065,0.031682826578617096,0.020107930526137352
1751015440324734000,9.64573388671875,0.20381811261177063,-0.06144285574555397,-0.006456035189330578
1751015440334678000,9.655677978515625,0.15006087720394135,-0.19290101528167725,-0.03080638125538826
1751015440344621000,9.66562109375,0.08809763193130493,-0.34507057070732117,-0.04301031678915024
1751015440354563800,9.675563720703124,0.03858494386076927,-0.45728740096092224,-0.014362960122525692
1751015440364507000,9.6855068359375,0.01738431677222252,-0.4698418080806732,0.06271078437566757
1751015440374450000,9.695449951171875,0.06623228639364243,-0.41928887367248535,0.1800089180469513
1751015440384393000,9.70539306640625,0.1745654195547104,-0.3827367126941681,0.3179017901420593
1751015440394336000,9.7153359375,0.3064669966697693,-0.38641348481178284,0.4327029585838318
1751015440404280000,9.725280029296876,0.4243275821208954,-0.4368457794189453,0.4998417794704437
1751015440414222800,9.735222900390625,0.5167003870010376,-0.5317397713661194,0.4868876338005066
1751015440424166000,9.745165771484375,0.579885721206665,-0.6359058618545532,0.4173269271850586
1751015440434109000,9.75510888671875,0.5844125747680664,-0.7455500960350037,0.2964724004268646
1751015440444052000,9.765052001953125,0.5177187919616699,-0.8701775074005127,0.1454133838415146
1751015440453995000,9.7749951171875,0.4288634657859802,-0.9746429324150085,0.02695012465119362
1751015440463938000,9.78493798828125,0.37064170837402344,-1.0086426734924316,-0.006975085008889437
1751015440473881900,9.7948818359375,0.3587688207626343,-0.942787230014801,0.06127720698714256
1751015440483825000,9.804824951171875,0.3897312581539154,-0.807837963104248,0.20986375212669373
1751015440493768000,9.814767822265624,0.4511954188346863,-0.6345969438552856,0.3915073275566101
1751015440503711000,9.8247109375,0.5165507197380066,-0.4648108184337616,0.5532136559486389
1751015440513654000,9.834654052734376,0.5749194622039795,-0.3337657153606415,0.6625902056694031
1751015440523597000,9.84459716796875,0.6037607192993164,-0.26502102613449097,0.7072511315345764
1751015440533540000,9.8545400390625,0.6065344214439392,-0.22815434634685516,0.6788248419761658
1751015440543483100,9.864483154296876,0.5802146196365356,-0.1890956163406372,0.595953643321991
1751015440553427000,9.874427001953125,0.5323312878608704,-0.16211779415607452,0.4625958800315857
1751015440563370000,9.884369873046875,0.47075846791267395,-0.16898103058338165,0.304402232170105
1751015440573313000,9.89431298828125,0.3901429772377014,-0.1932256519794464,0.1346060186624527
1751015440583256000,9.904256103515625,0.3082773983478546,-0.18881092965602875,-0.013558685779571533
1751015440593199000,9.91419921875,0.2432778924703598,-0.13074709475040436,-0.12353658676147461
1751015440603142100,9.92414208984375,0.20678113400936127,-0.028483839705586433,-0.1862042248249054
1751015440613085000,9.9340849609375,0.19601424038410187,0.09296242892742157,-0.20644718408584595
1751015440623029000,9.944029052734376,0.19894452393054962,0.22124290466308594,-0.18306969106197357
1751015440632972000,9.953971923828124,0.20533637702465057,0.3360035717487335,-0.13569657504558563
1751015440642915000,9.9639150390625,0.20250649750232697,0.4273798167705536,-0.07500872761011124
1751015440652858000,9.973858154296876,0.18530061841011047,0.48130857944488525,-0.025016136467456818
1751015440662801200,9.98380126953125,0.1594999134540558,0.4944848418235779,-0.0038578552193939686
1751015440672744000,9.993743896484375,0.1263238489627838,0.47877004742622375,-0.016511065885424614
1751015440682687000,10.00368701171875,0.09046385437250137,0.44113773107528687,-0.06131741777062416
1751015440692631000,10.013631103515625,0.032947562634944916,0.38906997442245483,-0.12793798744678497
1751015440702574000,10.023573974609375,-0.03935699164867401,0.33784568309783936,-0.19919618964195251
1751015440712517000,10.03351708984375,-0.11794048547744751,0.29734140634536743,-0.25452789664268494
1751015440722460000,10.0434599609375,-0.19315561652183533,0.27649977803230286,-0.2802460491657257
1751015440732403000,10.05340283203125,-0.25748321413993835,0.2701931297779083,-0.2593764364719391
1751015440742346000,10.063345947265624,-0.3052462041378021,0.2807120978832245,-0.20553052425384521
1751015440752289000,10.0732890625,-0.3360895812511444,0.2977358102798462,-0.1288812905550003
1751015440762233000,10.083233154296876,-0.34583836793899536,0.32890892028808594,-0.050217632204294205
1751015440772176100,10.093176025390624,-0.3460961580276489,0.3567908704280853,0.029202627018094063
1751015440782119000,10.103118896484375,-0.333615779876709,0.3705410361289978,0.08364696055650711
1751015440792062000,10.11306201171875,-0.3145827054977417,0.3468517065048218,0.10423745214939117
1751015440802005000,10.1230048828125,-0.28092166781425476,0.27147677540779114,0.09240210056304932
1751015440811948000,10.132947998046875,-0.2442731261253357,0.14821955561637878,0.05530693009495735
1751015440821891000,10.14289111328125,-0.21716932952404022,-0.008843026123940945,0.016645289957523346
1751015440831835100,10.152835205078125,-0.20312488079071045,-0.1751561015844345,-0.010847321711480618
1751015440841778000,10.16277783203125,-0.21061822772026062,-0.313631147146225,-0.006646451074630022
1751015440851721000,10.172720947265624,-0.21956591308116913,-0.4013202488422394,0.019055716693401337
1751015440861664000,10.1826640625,-0.2221076339483261,-0.43146565556526184,0.0506136417388916
1751015440871607000,10.19260693359375,-0.18554961681365967,-0.40535762906074524,0.07116339355707169
1751015440881550000,10.202550048828124,-0.11859428882598877,-0.3205932080745697,0.06627649068832397
1751015440891493000,10.2124931640625,-0.0361526794731617,-0.20751644670963287,0.07222332805395126
1751015440901437000,10.22243701171875,0.0489363819360733,-0.10268882662057877,0.11476705968379974
1751015440911380000,10.2323798828125,0.10787027329206467,-0.0023150858469307423,0.19780175387859344
1751015440921323000,10.242322998046875,0.11297475546598434,0.05031243711709976,0.29248833656311035
1751015440931266000,10.25226611328125,0.08867554366588593,0.04471047967672348,0.36598649621009827
1751015440941209000,10.262208984375,0.039332758635282516,0.04393576458096504,0.3889259099960327
1751015440951152000,10.272152099609375,-0.038245923817157745,0.039576172828674316,0.34224602580070496
1751015440961095200,10.28209521484375,-0.14172357320785522,-0.008155930787324905,0.19455909729003906
1751015440971039000,10.2920390625,-0.28626078367233276,-0.11582140624523163,-0.04435122013092041
1751015440980982000,10.30198193359375,-0.4318699240684509,-0.19870750606060028,-0.3201234042644501
1751015440990925000,10.311925048828124,-0.5102832317352295,-0.1968638002872467,-0.5478479266166687
1751015441000868000,10.3218681640625,-0.5166127681732178,-0.10167443007230759,-0.6748282313346863
1751015441010811100,10.33181103515625,-0.46391093730926514,0.07509155571460724,-0.6912559270858765
1751015441020754200,10.341754150390624,-0.36538276076316833,0.28067612648010254,-0.6218219995498657
1751015441030697200,10.351697265625,-0.2394418865442276,0.48852601647377014,-0.493318110704422
1751015441040641000,10.36164111328125,-0.1108761802315712,0.6610043048858643,-0.33108124136924744
1751015441050584000,10.371583984375,-0.011610849760472775,0.7620313167572021,-0.17644080519676208
1751015441060527000,10.381527099609375,0.04740586504340172,0.7800343036651611,-0.0522909015417099
1751015441070470100,10.39147021484375,0.07821304351091385,0.7326833009719849,0.04978513345122337
1751015441080413200,10.4014130859375,0.08420436084270477,0.6399323344230652,0.12309236824512482
1751015441090356200,10.411356201171875,0.07307127863168716,0.5247644186019897,0.1679850071668625
1751015441100299000,10.421299072265626,0.03391695395112038,0.39196938276290894,0.17081834375858307
1751015441110243000,10.4312431640625,-0.04050508141517639,0.2534272074699402,0.12550412118434906
1751015441120186000,10.44118603515625,-0.1336406171321869,0.11973545700311661,0.024106668308377266
1751015441130129200,10.451129150390624,-0.2159043252468109,0.007791077718138695,-0.12287852168083191
1751015441140072200,10.461072265625,-0.2653219401836395,-0.06656944006681442,-0.2838146686553955
1751015441150015000,10.471014892578125,-0.3008975088596344,-0.1084417849779129,-0.4166424870491028
1751015441159957800,10.480957763671874,-0.33195796608924866,-0.13239824771881104,-0.5054727792739868
1751015441169900800,10.49090087890625,-0.3567277491092682,-0.16219663619995117,-0.5375697016716003
1751015441179845000,10.50084521484375,-0.36480778455734253,-0.20257361233234406,-0.5202125906944275
1751015441189788200,10.5107880859375,-0.35394182801246643,-0.22966141998767853,-0.4579462707042694
1751015441199731200,10.520731201171875,-0.3350706696510315,-0.23004917800426483,-0.363612562417984
1751015441209674000,10.530674072265626,-0.30644381046295166,-0.20161834359169006,-0.24540044367313385
1751015441219616800,10.54061669921875,-0.27633652091026306,-0.13002750277519226,-0.13932619988918304
1751015441229559800,10.550559814453125,-0.23920166492462158,-0.04187927395105362,-0.060053750872612
1751015441239502800,10.5605029296875,-0.1987818032503128,0.05291168391704559,-0.013232714496552944
1751015441249447200,10.570447265625,-0.15671850740909576,0.14552924036979675,-0.004067978356033564
1751015441259390000,10.580389892578125,-0.11427650600671768,0.21888467669487,-0.02346351370215416
1751015441269333000,10.5903330078125,-0.06526848673820496,0.27094975113868713,-0.05236094072461128
1751015441279275800,10.60027587890625,-0.020893298089504242,0.29834142327308655,-0.07620236277580261
1751015441289218800,10.61021875,0.025534387677907944,0.3023345470428467,-0.09222447127103806
1751015441299161900,10.620161865234374,0.0896257534623146,0.28458645939826965,-0.09398668259382248
1751015441309105000,10.63010498046875,0.16100379824638367,0.2609088122844696,-0.08307704329490662
1751015441319049000,10.640049072265626,0.2358764410018921,0.24969026446342468,-0.06842992454767227
1751015441328992300,10.6499921875,0.29497039318084717,0.24096760153770447,-0.060814082622528076
1751015441338935300,10.659935302734375,0.3331358730792999,0.22736018896102905,-0.06398244202136993
1751015441348878300,10.66987841796875,0.36085325479507446,0.20196960866451263,-0.08463259786367416
1751015441358821400,10.6798212890625,0.3791601061820984,0.16332074999809265,-0.10048266500234604
1751015441368764400,10.689764404296875,0.3809196650981903,0.1311766654253006,-0.10323690623044968
1751015441378707200,10.699707275390624,0.3730374872684479,0.11139177531003952,-0.08475643396377563
1751015441388651300,10.7096513671875,0.3425661325454712,0.07823115587234497,-0.0554874949157238
1751015441398594300,10.71959423828125,0.2955155372619629,0.02828490175306797,-0.027820179238915443
1751015441408537300,10.729537353515624,0.25566214323043823,-0.039501070976257324,-0.006134591531008482
1751015441418480400,10.73948046875,0.23948583006858826,-0.0934564471244812,0.02280384860932827
1751015441428423400,10.74942333984375,0.26023611426353455,-0.1184033453464508,0.07210668176412582
1751015441438366200,10.7593662109375,0.3212733566761017,-0.09531400352716446,0.14479659497737885
1751015441448309200,10.769309326171875,0.4047299027442932,-0.05510692670941353,0.2131255865097046
1751015441458253300,10.77925341796875,0.46443691849708557,-0.01155652105808258,0.22842305898666382
1751015441468196400,10.7891962890625,0.4846614897251129,0.012353605590760708,0.14900492131710052
1751015441478139400,10.799139404296875,0.47183704376220703,-0.01315335277467966,-0.03483494743704796
1751015441488082200,10.809082275390624,0.43418845534324646,-0.04921947792172432,-0.2903601825237274
1751015441498025200,10.819025146484375,0.38379213213920593,-0.09996254742145538,-0.544465184211731
1751015441507968300,10.82896826171875,0.3420281708240509,-0.1460070013999939,-0.7303814888000488
1751015441517911300,10.838911376953124,0.31902965903282166,-0.08169246464967728,-0.7803882360458374
1751015441527855400,10.84885546875,0.36208391189575195,0.0740920677781105,-0.6769209504127502
1751015441537798400,10.85879833984375,0.4849003851413727,0.26042041182518005,-0.44717830419540405
1751015441547741200,10.8687412109375,0.6610139012336731,0.4210068881511688,-0.15330380201339722
1751015441557684200,10.878684326171875,0.8164844512939453,0.5277391672134399,0.1343548744916916
1751015441567627300,10.888627197265626,0.9029356837272644,0.5656716823577881,0.3542845845222473
1751015441577570300,10.8985703125,0.9304259419441223,0.5348594188690186,0.4840279221534729
1751015441587514400,10.908514404296875,0.9071115255355835,0.4717126786708832,0.5162526965141296
1751015441597457200,10.91845703125,0.8262467980384827,0.36777615547180176,0.45561838150024414
1751015441607400200,10.928400146484375,0.6996890902519226,0.20757555961608887,0.3381649851799011
1751015441617343200,10.93834326171875,0.5543668270111084,0.03316967189311981,0.20596382021903992
1751015441627286300,10.948286376953124,0.3946402668952942,-0.11029268801212311,0.0863516628742218
1751015441637229300,10.958229248046875,0.232462540268898,-0.20139862596988678,-0.008441421203315258
1751015441647172000,10.968172119140625,0.11683899909257889,-0.2342686951160431,-0.07822795957326889
1751015441657116200,10.9781162109375,0.03466210514307022,-0.1985040307044983,-0.1224694550037384
1751015441667059200,10.98805908203125,-0.016109460964798927,-0.13029062747955322,-0.1441931277513504
1751015441677002200,10.998002197265626,-0.05060458928346634,-0.02033989317715168,-0.144428551197052
1751015441686945300,11.0079453125,-0.05350317060947418,0.12933002412319183,-0.12204121798276901
1751015441696888300,11.017888427734375,-0.015307850204408169,0.2615050971508026,-0.08349861949682236
1751015441706831000,11.0278310546875,0.06057865917682648,0.3590737283229828,-0.04054396227002144
1751015441716774100,11.037774169921875,0.1504342406988144,0.4279004633426666,0.004163053352385759
1751015441726718200,11.04771826171875,0.22360220551490784,0.4562932252883911,0.03347300365567207
1751015441736661200,11.0576611328125,0.26947489380836487,0.4375901222229004,0.03525812178850174
1751015441746604300,11.067604248046875,0.28907227516174316,0.3872321546077728,0.009273393079638481
1751015441756547300,11.07754736328125,0.2800905108451843,0.2940678298473358,-0.022308500483632088
1751015441766490000,11.087489990234374,0.210236057639122,0.21629288792610168,-0.04980164393782616
1751015441776433200,11.09743310546875,0.0982392206788063,0.13401691615581512,-0.0464700311422348
1751015441786377200,11.107377197265626,0.008258994668722153,0.03886217623949051,-0.06912927329540253
1751015441796320300,11.1173203125,-0.024158865213394165,-0.02749047987163067,-0.07181905955076218
1751015441806263300,11.12726318359375,-0.025001756846904755,-0.07495679706335068,-0.011688347905874252
1751015441816206300,11.137206298828126,-0.03388845920562744,-0.07474800944328308,0.060141365975141525
1751015441826149000,11.147149169921875,-0.047262854874134064,-0.024634240195155144,0.11563525348901749
1751015441836092200,11.157092041015625,-0.04752757027745247,0.022234998643398285,0.1492035984992981
1751015441846035200,11.16703515625,-0.04066913202404976,0.07885593175888062,0.15762318670749664
1751015441855979300,11.176979248046875,-0.03362027928233147,0.10350695252418518,0.1412745714187622
1751015441865922300,11.18692236328125,-0.023194268345832825,0.09481891989707947,0.1138426810503006
1751015441875865300,11.196865234375,-0.021583588793873787,0.07662367075681686,0.07065286487340927
1751015441885808000,11.20680810546875,-0.03248603641986847,0.05740576982498169,0.001086037140339613
1751015441895751200,11.216751220703125,-0.04603566974401474,0.03436143696308136,-0.08303017169237137
1751015441905694200,11.226694091796874,-0.06132008135318756,0.009604157879948616,-0.17662084102630615
1751015441915637200,11.23663720703125,-0.07516239583492279,0.0004308994684834033,-0.24567954242229462
1751015441925581300,11.246581298828126,-0.09131339937448502,0.014989602379500866,-0.2753854990005493
1751015441935524400,11.2565244140625,-0.10592669993638992,0.06455209851264954,-0.2573082447052002
1751015441945467100,11.266467041015625,-0.11606322228908539,0.1340257078409195,-0.20070354640483856
1751015441955410200,11.27641015625,-0.11075793951749802,0.20388469099998474,-0.13874509930610657
1751015441965353200,11.286353271484375,-0.10159426927566528,0.2612782120704651,-0.09649883955717087
1751015441975296300,11.296296142578125,-0.08653435856103897,0.28851354122161865,-0.07882024347782135
1751015441985240300,11.306240234375,-0.07317567616701126,0.2804287374019623,-0.09706982225179672
1751015441995183000,11.31618310546875,-0.08062853664159775,0.23891085386276245,-0.13305845856666565
1751015442005126100,11.326126220703125,-0.11666642874479294,0.18210801482200623,-0.18305744230747223
1751015442015069200,11.336069091796874,-0.1825421154499054,0.13438789546489716,-0.2408653348684311
1751015442025012200,11.34601220703125,-0.28079864382743835,0.10357512533664703,-0.3177958130836487
1751015442034955300,11.355955322265626,-0.4039306938648224,0.081087127327919,-0.4033453166484833
1751015442044898300,11.365898193359374,-0.553276002407074,0.0533742755651474,-0.49987614154815674
1751015442054842000,11.375842041015625,-0.6853466629981995,0.03756814822554588,-0.5731269121170044
1751015442064785200,11.38578515625,-0.7501664161682129,0.05037102848291397,-0.5885229110717773
1751015442074728200,11.395728271484375,-0.7368713617324829,0.09968212246894836,-0.5402368903160095
1751015442084671200,11.405671142578125,-0.6522718071937561,0.18231149017810822,-0.4329453110694885
1751015442094614300,11.4156142578125,-0.5223712921142578,0.2549417316913605,-0.28999027609825134
1751015442104557300,11.425557373046875,-0.3638964593410492,0.3084944486618042,-0.1322254091501236
1751015442114501000,11.435501220703125,-0.20050141215324402,0.34854546189308167,0.029763754457235336
1751015442124444200,11.445444091796874,-0.0607144795358181,0.3581078052520752,0.18242147564888
1751015442134387200,11.45538720703125,0.04302922636270523,0.3487590551376343,0.30484431982040405
1751015442144330200,11.465330322265626,0.12287452071905136,0.3136546015739441,0.3893115520477295
1751015442154273300,11.475273193359374,0.18228352069854736,0.26506975293159485,0.443411260843277
1751015442164216300,11.48521630859375,0.20654651522636414,0.20462824404239655,0.4437617361545563
1751015442174159400,11.495159423828126,0.18649770319461823,0.11469009518623352,0.40983837842941284
1751015442184103200,11.505103271484375,0.13634079694747925,0.020305804908275604,0.3607291579246521
1751015442194046200,11.515046142578125,0.06082899495959282,-0.06652016937732697,0.29821836948394775
1751015442203989200,11.5249892578125,-0.020183565095067024,-0.15138313174247742,0.2327328473329544
1751015442213932300,11.534932373046875,-0.09180848300457001,-0.223892480134964,0.1741238683462143
1751015442223875300,11.544875244140625,-0.14089161157608032,-0.25755777955055237,0.12866050004959106
1751015442233818400,11.554818359375,-0.16544222831726074,-0.2437511384487152,0.10535012185573578
1751015442243762200,11.56476220703125,-0.1715129017829895,-0.2123253047466278,0.0875367745757103
1751015442253705200,11.574705322265626,-0.16320224106311798,-0.17819450795650482,0.0828181803226471
1751015442263648300,11.584648193359374,-0.15152081847190857,-0.1588040292263031,0.09586580842733383
1751015442273591300,11.59459130859375,-0.13355779647827148,-0.13681884109973907,0.11280617862939835
1751015442283534300,11.604534423828126,-0.12347400188446045,-0.12120285630226135,0.12577363848686218
1751015442293477400,11.614477294921874,-0.11644698679447174,-0.13159051537513733,0.11462032049894333
1751015442303420400,11.62442041015625,-0.12057461589574814,-0.1532324254512787,0.09356856346130371
1751015442313364200,11.6343642578125,-0.12500718235969543,-0.17323969304561615,0.06264633685350418
1751015442323307300,11.644307373046875,-0.12603169679641724,-0.18159909546375275,0.03144953399896622
1751015442333251800,11.654251953125,-0.12066330015659332,-0.18550993502140045,0.010041981004178524
1751015442343194600,11.664194580078124,-0.10505664348602295,-0.19246850907802582,-0.002463690238073468
1751015442353137700,11.6741376953125,-0.08408025652170181,-0.1879536509513855,-0.007551925722509623
1751015442363080700,11.684080810546876,-0.060502227395772934,-0.1643173098564148,-0.00017710021347738802
1751015442373024800,11.694024658203125,-0.04002011939883232,-0.11683287471532822,0.00788615271449089
1751015442382967800,11.7039677734375,-0.02280464768409729,-0.0593717135488987,0.013616742566227913
1751015442392910600,11.71391064453125,-0.00436092633754015,-0.0030988543294370174,0.020312728360295296
1751015442402853600,11.723853515625,0.004992894362658262,0.04090402275323868,0.02418762817978859
1751015442412796700,11.733796630859375,-0.0015749934827908874,0.048355814069509506,0.018665829673409462
1751015442422739500,11.743739501953126,-0.02695758081972599,-0.0012924320762977004,0.0017305220244452357
1751015442432682500,11.7536826171875,-0.0685923770070076,-0.09671135991811752,-0.018573418259620667
1751015442442626800,11.763626708984376,-0.12757925689220428,-0.19182881712913513,-0.027408987283706665
1751015442452569600,11.773569580078124,-0.18737362325191498,-0.2648814618587494,-0.030016222968697548
1751015442462512600,11.7835126953125,-0.22472631931304932,-0.33476918935775757,-0.01943681389093399
1751015442472455700,11.79345556640625,-0.24183499813079834,-0.3935989737510681,0.005613943561911583
1751015442482398500,11.8033984375,-0.22442378103733063,-0.41736555099487305,0.05175827071070671
1751015442492341500,11.813341552734375,-0.1503109484910965,-0.37647271156311035,0.12969568371772766
1751015442502285800,11.823285888671874,-0.015018098056316376,-0.26217037439346313,0.23613743484020233
1751015442512228600,11.833228515625,0.1730428785085678,-0.1236867904663086,0.33862465620040894
1751015442522171600,11.843171630859375,0.35498473048210144,0.010754376649856567,0.39133474230766296
1751015442532114400,11.853114501953126,0.4721323847770691,0.0972043126821518,0.3331278860569
1751015442542057500,11.863057373046875,0.5030194520950317,0.10478740185499191,0.15074902772903442
1751015442552000500,11.87300048828125,0.42849570512771606,0.039388153702020645,-0.1497868299484253
1751015442561944800,11.88294482421875,0.2577812075614929,-0.07214130461215973,-0.517562985420227
1751015442571887600,11.8928876953125,0.04331738129258156,-0.21248562633991241,-0.8335595726966858
1751015442581830700,11.90283056640625,-0.13906069099903107,-0.31766584515571594,-1.0076948404312134
1751015442591773400,11.9127734375,-0.24729421734809875,-0.298158198595047,-0.9899454116821289
1751015442601716500,11.922716552734375,-0.23192031681537628,-0.1740892380475998,-0.7886338829994202
1751015442611659500,11.932659423828126,-0.07187072932720184,0.017352625727653503,-0.4645839333534241
1751015442621602600,11.9426025390625,0.18450672924518585,0.21468566358089447,-0.09016424417495728
1751015442631546600,11.952546630859375,0.45470866560935974,0.35415300726890564,0.2519177198410034
1751015442641489400,11.962489501953126,0.670437216758728,0.42268654704093933,0.498813271522522
1751015442651432400,11.972432373046875,0.8030602335929871,0.4157111942768097,0.6380273699760437
1751015442661375500,11.98237548828125,0.8823159337043762,0.29098522663116455,0.6703956723213196
1751015442671318500,11.992318603515624,0.8842278122901917,0.041419077664613724,0.6098007559776306
1751015442681261600,12.002261474609375,0.8151859045028687,-0.23797021806240082,0.48665672540664673
1751015442691205600,12.01220556640625,0.688666582107544,-0.45917823910713196,0.35228481888771057
1751015442701148400,12.0221484375,0.5219462513923645,-0.5897682309150696,0.22230736911296844
1751015442711091500,12.032091552734375,0.3525892198085785,-0.6482248306274414,0.11979404836893082
1751015442721034500,12.042034423828126,0.20912392437458038,-0.6555176377296448,0.04326118901371956
1751015442730977500,12.0519775390625,0.09928237646818161,-0.6163830161094666,0.0057249972596764565
1751015442740920600,12.061920654296875,0.0113386744633317,-0.5254384875297546,0.02051752619445324
1751015442750864400,12.071864501953126,-0.03603550046682358,-0.3823481798171997,0.08231937140226364
1751015442760807400,12.081807373046875,-0.027954669669270515,-0.2037198394536972,0.18013595044612885
1751015442770750500,12.09175048828125,0.036728985607624054,-0.022310631349682808,0.2894483208656311
1751015442780693500,12.101693603515624,0.12927089631557465,0.13699646294116974,0.3819710612297058
1751015442790636500,12.111636474609375,0.2154790312051773,0.22343574464321136,0.4189080595970154
1751015442800579600,12.12157958984375,0.27215802669525146,0.24443957209587097,0.4045906364917755
1751015442810522600,12.131522705078124,0.290018767118454,0.22570715844631195,0.35249653458595276
1751015442820466400,12.141466552734375,0.27595382928848267,0.21166831254959106,0.2738158404827118
1751015442830409500,12.151409423828126,0.24166695773601532,0.21684415638446808,0.18549954891204834
1751015442840352500,12.1613525390625,0.18735924363136292,0.22293721139431,0.09410146623849869
1751015442850295600,12.171295654296875,0.13099876046180725,0.22766511142253876,0.010282997973263264
1751015442860238600,12.181238525390626,0.0714920237660408,0.24185922741889954,-0.055209457874298096
1751015442870181600,12.191181640625,0.010363691486418247,0.25100746750831604,-0.10634321719408035
1751015442880125400,12.20112548828125,-0.0544683001935482,0.22962068021297455,-0.15087153017520905
1751015442890068500,12.211068359375,-0.10510378330945969,0.19555112719535828,-0.17074590921401978
1751015442900011500,12.221011474609375,-0.13856932520866394,0.16314764320850372,-0.16592159867286682
1751015442909954600,12.23095458984375,-0.15782877802848816,0.13772644102573395,-0.14895886182785034
1751015442919897600,12.240897705078124,-0.1666257381439209,0.10439910739660263,-0.13619618117809296
1751015442929840600,12.250840576171875,-0.16726036369800568,0.04886740818619728,-0.1359165608882904
1751015442939784400,12.260784423828126,-0.16633650660514832,-0.040171653032302856,-0.15413497388362885
1751015442949727500,12.2707275390625,-0.17840009927749634,-0.15820695459842682,-0.18260124325752258
1751015442959670500,12.28067041015625,-0.20318347215652466,-0.2627685070037842,-0.20021511614322662
1751015442969613600,12.290613525390626,-0.2247401624917984,-0.3383879065513611,-0.185296893119812
1751015442979556600,12.300556640625,-0.2428475320339203,-0.3741490840911865,-0.13573412597179413
1751015442989499600,12.310499755859375,-0.26050880551338196,-0.37241750955581665,-0.05170287564396858
1751015442999443500,12.320443359375,-0.2755863070487976,-0.3472144305706024,0.04550623148679733
1751015443009386500,12.330386474609375,-0.2800382971763611,-0.28553852438926697,0.133260577917099
1751015443019329500,12.34032958984375,-0.2696056365966797,-0.22429248690605164,0.19698336720466614
1751015443029272600,12.3502724609375,-0.2311791628599167,-0.16699405014514923,0.243130624294281
1751015443039215600,12.360215576171875,-0.17588341236114502,-0.08146609365940094,0.2739170491695404
1751015443049158700,12.37015869140625,-0.12130086123943329,0.014389059506356716,0.2850961983203888
1751015443059102500,12.3801025390625,-0.08356546610593796,0.058876100927591324,0.2608984410762787
1751015443069045500,12.39004541015625,-0.07910040766000748,0.03696201369166374,0.20547965168952942
1751015443078988500,12.399988525390626,-0.10417567193508148,-0.004400074947625399,0.13630618155002594
1751015443088931600,12.409931640625,-0.16267573833465576,-0.03398726135492325,0.05993470549583435
1751015443098874600,12.41987451171875,-0.25649169087409973,-0.05654183775186539,-0.04302949085831642
1751015443108817700,12.429817626953126,-0.37001240253448486,-0.07269870489835739,-0.17181730270385742
1751015443118760700,12.4397607421875,-0.46457087993621826,-0.09144842624664307,-0.3020770251750946
1751015443128704500,12.44970458984375,-0.5277410745620728,-0.09121672809123993,-0.38523876667022705
1751015443138647600,12.4596474609375,-0.5363950133323669,-0.0501108393073082,-0.37781280279159546
1751015443148590600,12.469590576171875,-0.4721217453479767,0.038607846945524216,-0.28540724515914917
1751015443158533600,12.47953369140625,-0.32619595527648926,0.14474573731422424,-0.12540826201438904
1751015443168476700,12.4894765625,-0.13319960236549377,0.23925945162773132,0.06069503724575043
1751015443178419700,12.499419677734375,0.05594129487872124,0.31103217601776123,0.23786528408527374
1751015443188363500,12.509363525390626,0.17750048637390137,0.3487420082092285,0.3794277608394623
1751015443198306600,12.519306640625,0.24111993610858917,0.3630248010158539,0.47038188576698303
1751015443208249600,12.52924951171875,0.2869745194911957,0.3661265969276428,0.525404155254364
