time,seconds_elapsed,z,y,x
1751015577373535700,0.11753564453125,0.030788538977503777,-0.10094153136014938,0.15031173825263977
1751015577383478800,0.127478759765625,0.012212724424898624,-0.09432650357484818,0.18257726728916168
1751015577393421800,0.137421875,-0.0393974743783474,-0.09046465158462524,0.1997104436159134
1751015577403364900,0.14736474609375,-0.09595449268817902,-0.09560588747262955,0.20615209639072418
1751015577413308000,0.157307861328125,-0.14421336352825165,-0.11187619715929031,0.19755834341049194
1751015577423251000,0.1672509765625,-0.15585723519325256,-0.1262972205877304,0.17601151764392853
1751015577433194000,0.177194091796875,-0.13111621141433716,-0.148967906832695,0.14588743448257446
1751015577443137800,0.1871376953125,-0.0989641323685646,-0.16767874360084534,0.09844641387462616
1751015577453080800,0.197080810546875,-0.0706600546836853,-0.18529795110225677,0.0387394055724144
1751015577463024400,0.2070244140625,-0.052012067288160324,-0.18271708488464355,-0.014155765995383263
1751015577472967400,0.216967529296875,-0.04030081629753113,-0.1445462554693222,-0.039803072810173035
1751015577482910500,0.226910400390625,-0.035226162523031235,-0.09563331305980682,-0.039213716983795166
1751015577492853500,0.236853515625,-0.02321663871407509,-0.05175400897860527,-0.022276010364294052
1751015577502797300,0.24679736328125,0.012821522541344166,-0.02082378976047039,0.00501100393012166
1751015577512740400,0.256740234375,0.06891914457082748,-0.013757623732089996,0.03190839663147926
1751015577522683400,0.266683349609375,0.1256900131702423,-0.023789219558238983,0.044613540172576904
1751015577532626400,0.27662646484375,0.12427587807178497,0.03062848374247551,-0.07295463234186172
1751015577542569500,0.286569580078125,0.1800781637430191,-0.029884396120905876,-0.20943205058574677
1751015577552512500,0.296512451171875,0.24321265518665314,-0.11774687469005585,-0.33129751682281494
1751015577562455300,0.306455322265625,0.26581889390945435,-0.13186109066009521,-0.4399864375591278
1751015577572399400,0.3163994140625,0.24131354689598083,-0.09324658662080765,-0.5381960868835449
1751015577582342400,0.32634228515625,-0.0059966398403048515,-0.28283143043518066,-0.6496203541755676
1751015577592285400,0.336285400390625,-0.2219662219285965,-0.390625536441803,-0.7154848575592041
1751015577602228500,0.346228515625,-0.26312562823295593,-0.3182312250137329,-0.7115913033485413
1751015577612171500,0.356171630859375,-0.202409565448761,-0.20939157903194427,-0.6564822793006897
1751015577622114300,0.3661142578125,-0.1531224399805069,-0.14071530103683472,-0.590802013874054
1751015577632058400,0.376058349609375,-0.1612059324979782,-0.13938026130199432,-0.52571040391922
1751015577642001400,0.38600146484375,-0.19744862616062164,-0.14479607343673706,-0.4640025496482849
1751015577651944400,0.3959443359375,-0.220901757478714,-0.14254648983478546,-0.39263275265693665
1751015577661887500,0.405887451171875,-0.21070291101932526,-0.12477974593639374,-0.3221322298049927
1751015577671830500,0.41583056640625,-0.16887903213500977,-0.10203928500413895,-0.25647440552711487
1751015577681773300,0.425773193359375,-0.13506540656089783,-0.07790438830852509,-0.19317132234573364
1751015577691716400,0.43571630859375,-0.130344420671463,-0.06318110227584839,-0.14907337725162506
1751015577701660400,0.445660400390625,-0.16253778338432312,-0.042276084423065186,-0.12654995918273926
1751015577711603500,0.455603515625,-0.2009943574666977,-0.03712819516658783,-0.11227887123823166
1751015577721546500,0.46554638671875,-0.23704397678375244,0.00017843178648035973,-0.1114780604839325
1751015577731489500,0.475489501953125,-0.2741985321044922,0.04165263846516609,-0.1255217045545578
1751015577741432300,0.485432373046875,-0.29465267062187195,0.048167794942855835,-0.14556919038295746
1751015577751375400,0.495375244140625,-0.2929815351963043,0.05064773187041283,-0.15667083859443665
1751015577761319400,0.5053193359375,-0.2355928122997284,0.06266364455223083,-0.17056667804718018
1751015577771262500,0.515262451171875,-0.14618970453739166,0.04267529025673866,-0.19437746703624725
1751015577781205500,0.52520556640625,-0.08153906464576721,-0.005937251262366772,-0.22192972898483276
1751015577791148500,0.5351484375,-0.05636713653802872,-0.04767191410064697,-0.24551069736480713
1751015577801091300,0.54509130859375,-0.04855155572295189,-0.06801260262727737,-0.24387125670909882
1751015577811034400,0.555034423828125,-0.05464993044734001,-0.08015449345111847,-0.2148904651403427
1751015577820978400,0.564978515625,-0.052615273743867874,-0.07604549825191498,-0.16368374228477478
1751015577830921500,0.57492138671875,-0.057613227516412735,-0.06534092128276825,-0.0994163379073143
1751015577840864500,0.584864501953125,-0.06439709663391113,-0.04242628812789917,-0.030846595764160156
1751015577850807600,0.5948076171875,-0.0609472393989563,-0.014482003636658192,0.02858290821313858
1751015577860750300,0.604750244140625,-0.051351871341466904,0.015220764093101025,0.0850544422864914
1751015577870693400,0.614693359375,-0.02630750462412834,0.02551787719130516,0.1258639246225357
1751015577880636400,0.624636474609375,0.0347989946603775,0.04240311682224274,0.1678001880645752
1751015577890580500,0.63458056640625,0.07055805623531342,0.09426231682300568,0.1565755009651184
1751015577900523500,0.6445234375,0.08699535578489304,0.0984719768166542,0.10597942769527435
1751015577910466600,0.654466552734375,0.08529678732156754,0.0680733248591423,0.045213550329208374
1751015577920409300,0.664409423828125,0.09056106209754944,0.039204925298690796,-0.008008391596376896
1751015577930352400,0.674352294921875,0.08878712356090546,0.03892023488879204,-0.08336412906646729
1751015577940295400,0.68429541015625,0.07470619678497314,0.03212464600801468,-0.16999809443950653
1751015577950239500,0.694239501953125,0.05867556482553482,-0.00824754312634468,-0.24992968142032623
1751015577960182500,0.7041826171875,0.044981323182582855,-0.031246336176991463,-0.30415937304496765
1751015577970125300,0.714125244140625,0.0388810858130455,-0.033306024968624115,-0.3204459249973297
1751015577980068400,0.724068359375,0.04170190542936325,-0.023442475125193596,-0.29849669337272644
1751015577990011400,0.734011474609375,0.049782734364271164,0.0014945659786462784,-0.23898620903491974
1751015577999954400,0.743954345703125,0.06734947860240936,0.03756868094205856,-0.16359558701515198
1751015578009898500,0.7538984375,0.07927671074867249,0.0689319297671318,-0.07647080719470978
1751015578019841500,0.763841552734375,0.07851611077785492,0.08107487857341766,-0.004003529902547598
1751015578029784300,0.773784423828125,0.045817289501428604,0.07027655839920044,0.041844919323921204
1751015578039727400,0.783727294921875,-0.000060453756304923445,0.03630368039011955,0.06623920798301697
1751015578049670400,0.79367041015625,-0.03320562466979027,-0.00404534162953496,0.08034277707338333
1751015578059613400,0.803613525390625,-0.06445595622062683,-0.040159136056900024,0.0871221199631691
1751015578069556500,0.813556396484375,-0.10695334523916245,-0.061099573969841,0.08337638527154922
1751015578079500500,0.82350048828125,-0.15317995846271515,-0.0712755098938942,0.06866881251335144
1751015578089443300,0.833443359375,-0.19740495085716248,-0.0736507847905159,0.04123159125447273
1751015578099386400,0.843386474609375,-0.23162204027175903,-0.043234556913375854,-0.004356931429356337
1751015578109329400,0.853329345703125,-0.2325695902109146,0.0044141896069049835,-0.07116605341434479
1751015578119272400,0.8632724609375,-0.20505647361278534,0.0534999780356884,-0.15641197562217712
1751015578129215500,0.873215576171875,-0.16441796720027924,0.09447777271270752,-0.2454955130815506
1751015578139159600,0.88315966796875,-0.12710708379745483,0.12132669240236282,-0.31777051091194153
1751015578149102300,0.893102294921875,-0.10265927016735077,0.12317173182964325,-0.37029364705085754
1751015578159045400,0.90304541015625,-0.08828059583902359,0.10609421133995056,-0.3890015482902527
1751015578168988400,0.912988525390625,-0.09249930828809738,0.07719118893146515,-0.3685884177684784
1751015578178931500,0.922931396484375,-0.11208339780569077,0.049248240888118744,-0.3275187313556671
1751015578188874500,0.93287451171875,-0.13051992654800415,0.017850635573267937,-0.2669597864151001
1751015578198818600,0.942818603515625,-0.15015114843845367,0.004145476501435041,-0.19128499925136566
1751015578208761300,0.95276123046875,-0.15400448441505432,0.0011427623685449362,-0.1188875064253807
1751015578218704400,0.962704345703125,-0.14597052335739136,-0.0038181741256266832,-0.059000734239816666
1751015578228647400,0.9726474609375,-0.12380316853523254,-0.02551441453397274,-0.017314542084932327
1751015578238590500,0.982590576171875,-0.09061512351036072,-0.07696322351694107,0.007466438226401806
1751015578248533500,0.992533447265625,-0.05072735995054245,-0.13704760372638702,0.035364650189876556
1751015578258476500,1.0024765625,-0.00016058860637713224,-0.16267892718315125,0.07576959580183029
1751015578268420400,1.01242041015625,0.0565575510263443,-0.13877013325691223,0.12219195812940598
1751015578278363400,1.02236328125,0.11306663602590561,-0.07900693267583847,0.15836913883686066
1751015578288306400,1.032306396484375,0.1516268104314804,-0.018215755000710487,0.17210198938846588
1751015578298249500,1.04224951171875,0.17186550796031952,0.04099297150969505,0.1636485904455185
1751015578308192500,1.052192626953125,0.18268166482448578,0.09623518586158752,0.14235714077949524
1751015578318135600,1.062135498046875,0.19892029464244843,0.15456853806972504,0.10854458808898926
1751015578328079400,1.072079345703125,0.23826315999031067,0.23470385372638702,0.07686548680067062
1751015578338022400,1.0820224609375,0.3098942041397095,0.34258905053138733,0.047021836042404175
1751015578347965400,1.09196533203125,0.39239946007728577,0.41704675555229187,0.018018415197730064
1751015578357908500,1.101908447265625,0.45729324221611023,0.4692945182323456,-0.019286345690488815
1751015578367851500,1.1118515625,0.5019432902336121,0.5184761881828308,-0.0637398287653923
1751015578377794600,1.121794677734375,0.5216911435127258,0.5817131996154785,-0.10847214609384537
1751015578387738400,1.13173828125,0.5051310658454895,0.6299846172332764,-0.1637902706861496
1751015578397681400,1.141681396484375,0.44466668367385864,0.556718647480011,-0.2406882345676422
1751015578407624400,1.15162451171875,0.3207748234272003,0.3290628492832184,-0.3391469120979309
1751015578417567500,1.1615673828125,0.12758006155490875,0.024874456226825714,-0.4264588952064514
1751015578427510500,1.171510498046875,-0.07220468670129776,-0.23256133496761322,-0.4550846815109253
1751015578437453600,1.18145361328125,-0.22797377407550812,-0.38465607166290283,-0.38818609714508057
1751015578447397400,1.1913974609375,-0.3059580624103546,-0.41845637559890747,-0.2434573918581009
1751015578457340400,1.20134033203125,-0.3005441129207611,-0.348629355430603,-0.03448047861456871
1751015578467279000,1.211279052734375,-0.21796055138111115,-0.18211600184440613,0.21270214021205902
1751015578477222100,1.22122216796875,-0.07323000580072403,0.05446537211537361,0.46511149406433105
1751015578487165200,1.231165283203125,0.10942795872688293,0.3167901933193207,0.6833889484405518
1751015578497108200,1.241108154296875,0.2994256019592285,0.5312577486038208,0.8360744118690491
1751015578507052300,1.25105224609375,0.4812593162059784,0.6846345067024231,0.913866400718689
1751015578516995000,1.2609951171875,0.6249895691871643,0.741118848323822,0.9308165907859802
1751015578526938000,1.270938232421875,0.725652813911438,0.7387755513191223,0.8910217881202698
1751015578536881200,1.280881103515625,0.7952814102172852,0.7187573313713074,0.8160061240196228
1751015578546824200,1.29082421875,0.8392768502235413,0.68111652135849,0.7085265517234802
1751015578556767200,1.300767333984375,0.844145655632019,0.6247339248657227,0.5874291658401489
1751015578566711300,1.310711181640625,0.806043803691864,0.5452026128768921,0.4664697051048279
1751015578576654000,1.320654052734375,0.7363179922103882,0.4612027704715729,0.36166658997535706
1751015578586597000,1.33059716796875,0.640995979309082,0.3821590840816498,0.2883194088935852
1751015578596540200,1.3405400390625,0.5159751772880554,0.3094843626022339,0.22401019930839539
1751015578606483200,1.350483154296875,0.37007686495780945,0.2411031574010849,0.17480909824371338
1751015578616426200,1.36042626953125,0.21811209619045258,0.17165884375572205,0.12736327946186066
1751015578626369300,1.370369384765625,0.06292996555566788,0.08911682665348053,0.0822000652551651
1751015578636313000,1.38031298828125,-0.07808974385261536,-0.003605920122936368,0.0279698483645916
1751015578646256000,1.390256103515625,-0.20572492480278015,-0.1318424493074417,-0.03719530627131462
1751015578656199200,1.40019921875,-0.3050810694694519,-0.2597748637199402,-0.10429231822490692
1751015578666142200,1.41014208984375,-0.3649265766143799,-0.34161272644996643,-0.16582119464874268
1751015578676085200,1.420085205078125,-0.37630119919776917,-0.393576055765152,-0.20818781852722168
1751015578686028300,1.4300283203125,-0.36262932419776917,-0.41248637437820435,-0.235921710729599
1751015578695972000,1.43997216796875,-0.31883737444877625,-0.3947664797306061,-0.23261487483978271
1751015578705915100,1.4499150390625,-0.2515089213848114,-0.3424105942249298,-0.19654394686222076
1751015578715858200,1.459858154296875,-0.16118383407592773,-0.27547019720077515,-0.1406564563512802
1751015578725801200,1.46980126953125,-0.08211085200309753,-0.18861491978168488,-0.07100067287683487
1751015578735744300,1.479744140625,-0.036808080971241,-0.10466116666793823,-0.00569889834150672
1751015578745687300,1.489687255859375,-0.026104571297764778,-0.05636367201805115,0.04015088081359863
1751015578755631000,1.499631103515625,-0.02810487151145935,-0.05493728443980217,0.05712507292628288
1751015578765574100,1.50957421875,-0.029988259077072144,-0.09441199153661728,0.05384458974003792
1751015578775517200,1.51951708984375,-0.029932066798210144,-0.1376263052225113,0.04127047583460808
1751015578785460200,1.529460205078125,-0.018208565190434456,-0.17493346333503723,0.02370506338775158
1751015578795403300,1.5394033203125,0.005139101762324572,-0.19275081157684326,0.020847225561738014
1751015578805346300,1.54934619140625,0.02671843022108078,-0.19987823069095612,0.03239629045128822
1751015578815290000,1.5592900390625,0.047152064740657806,-0.20656462013721466,0.055270712822675705
1751015578825233200,1.569233154296875,0.04966156184673309,-0.21111038327217102,0.08215505629777908
1751015578835176200,1.57917626953125,0.02799062244594097,-0.22442911565303802,0.09736410528421402
1751015578845119200,1.589119140625,-0.021433120593428612,-0.23486444354057312,0.10237617045640945
1751015578855062300,1.599062255859375,-0.07697627693414688,-0.2582741677761078,0.09565595537424088
1751015578865005300,1.60900537109375,-0.12487642467021942,-0.2842935025691986,0.07737255096435547
1751015578874949000,1.61894921875,-0.15529611706733704,-0.27885186672210693,0.07814646512269974
1751015578884892200,1.62889208984375,-0.16937145590782166,-0.20768262445926666,0.09820006787776947
1751015578894835200,1.638835205078125,-0.15264253318309784,-0.07928097248077393,0.14401362836360931
1751015578904778200,1.6487783203125,-0.11403468996286392,0.04089869558811188,0.17579899728298187
1751015578914721300,1.65872119140625,-0.07396823167800903,0.10155778378248215,0.17220079898834229
1751015578924664300,1.668664306640625,-0.05289677157998085,0.11989231407642365,0.14138749241828918
1751015578934608100,1.678608154296875,-0.03850238397717476,0.1312650740146637,0.0964202806353569
1751015578944551200,1.68855126953125,-0.028975725173950195,0.18470193445682526,0.056959424167871475
1751015578954494200,1.698494140625,-0.03544401004910469,0.12215600162744522,0.0012607404496520758
1751015578964437200,1.708437255859375,-0.0736345425248146,-0.07297540456056595,-0.052986517548561096
1751015578974380300,1.71838037109375,-0.1538180559873581,-0.3472684919834137,-0.0646468997001648
1751015578984323300,1.7283232421875,-0.2473248392343521,-0.5608092546463013,-0.02466646395623684
1751015578994267100,1.73826708984375,-0.32393091917037964,-0.6222912669181824,0.06343516707420349
1751015579004210200,1.748210205078125,-0.32603856921195984,-0.465340793132782,0.2289074808359146
1751015579014153200,1.7581533203125,-0.29897284507751465,-0.1913398653268814,0.35374581813812256
1751015579024096300,1.76809619140625,-0.28908348083496094,-0.1270972341299057,0.3660544157028198
1751015579034039300,1.778039306640625,-0.28321439027786255,-0.16018114984035492,0.29034367203712463
1751015579043982300,1.787982421875,-0.2544024586677551,-0.1177213042974472,0.19322511553764343
1751015579053926100,1.797926025390625,-0.189239963889122,0.013622601516544819,0.1049882024526596
1751015579063869200,1.807869140625,-0.0983731746673584,0.15955157577991486,0.008107993751764297
1751015579073812200,1.817812255859375,-0.019519371911883354,0.2367108166217804,-0.10837334394454956
1751015579083755300,1.82775537109375,0.023793745785951614,0.22454868257045746,-0.23127929866313934
1751015579093698300,1.8376982421875,0.009491506032645702,0.1405176967382431,-0.3353135585784912
1751015579103641300,1.847641357421875,-0.055984970182180405,0.021313011646270752,-0.4067176878452301
1751015579113585200,1.857585205078125,-0.1652853637933731,-0.13912433385849,-0.45833906531333923
1751015579123528200,1.867528076171875,-0.30897995829582214,-0.3032243251800537,-0.5051319003105164
1751015579133471200,1.87747119140625,-0.4879968464374542,-0.43233543634414673,-0.5471829175949097
1751015579143414300,1.887414306640625,-0.6522544622421265,-0.5329094529151917,-0.5627049207687378
1751015579153357300,1.897357421875,-0.708615779876709,-0.5399724245071411,-0.5009645819664001
1751015579163300400,1.90730029296875,-0.568666398525238,-0.5523313283920288,-0.37497466802597046
1751015579173244200,1.917244140625,-0.36304476857185364,-0.5161275267601013,-0.2513400912284851
1751015579183187200,1.927187255859375,-0.16550295054912567,-0.36601153016090393,-0.08488745987415314
1751015579193130200,1.937130126953125,-0.006200904026627541,-0.09133177995681763,0.1101536676287651
1751015579203073300,1.9470732421875,0.09538537263870239,0.1687176525592804,0.29367849230766296
1751015579213016300,1.957016357421875,0.12627804279327393,0.36657240986824036,0.44966888427734375
1751015579222959400,1.96695947265625,0.09231794625520706,0.5033619403839111,0.585787296295166
1751015579232903200,1.976903076171875,0.04794568940997124,0.462236613035202,0.6713395118713379
1751015579242846200,1.98684619140625,0.011494203470647335,0.3395349383354187,0.7109420299530029
1751015579252789200,1.996789306640625,-0.043839093297719955,0.2527180016040802,0.710789680480957
1751015579262732300,2.006732177734375,-0.14147749543190002,0.19396467506885529,0.6567243337631226
1751015579272675300,2.01667529296875,-0.269131600856781,0.14979934692382812,0.5653843283653259
1751015579282618400,2.026618408203125,-0.40055328607559204,0.12482582032680511,0.44559159874916077
1751015579292562200,2.036562255859375,-0.5118696689605713,0.10603455454111099,0.3202797472476959
1751015579302505200,2.046505126953125,-0.5960841774940491,0.10067681223154068,0.19181178510189056
1751015579312448300,2.0564482421875,-0.6491553783416748,0.11730292439460754,0.08422699570655823
1751015579322391300,2.066391357421875,-0.6573387384414673,0.15257595479488373,-0.008458998054265976
1751015579332334300,2.076334228515625,-0.5909783244132996,0.18882957100868225,-0.08622916042804718
1751015579342277400,2.08627734375,-0.5123298764228821,0.18833129107952118,-0.13333435356616974
1751015579352221200,2.09622119140625,-0.4523821175098419,0.1877477914094925,-0.12998968362808228
1751015579362164200,2.106164306640625,-0.3961374759674072,0.20383328199386597,-0.08672264218330383
1751015579372107300,2.116107177734375,-0.3411003351211548,0.22420834004878998,-0.021809158846735954
1751015579382050300,2.12605029296875,-0.29651394486427307,0.2309567779302597,0.03948056325316429
1751015579391993300,2.135993408203125,-0.26627030968666077,0.22420726716518402,0.07679864019155502
1751015579401936400,2.145936279296875,-0.24067918956279755,0.22069722414016724,0.09981634467840195
1751015579411880200,2.155880126953125,-0.2196252942085266,0.22745180130004883,0.10317831486463547
1751015579421823200,2.1658232421875,-0.20349347591400146,0.21956218779087067,0.09176880121231079
1751015579431766300,2.175766357421875,-0.19074757397174835,0.18435972929000854,0.0690472424030304
1751015579441709300,2.185709228515625,-0.18063156306743622,0.12851430475711823,0.0411655455827713
1751015579451652400,2.19565234375,-0.15647563338279724,0.06114431470632553,0.02394421398639679
1751015579461595600,2.205595703125,-0.11760333180427551,-0.00842464342713356,0.018155567348003387
1751015579471539500,2.21553955078125,-0.0803917795419693,-0.07227259874343872,0.012734171003103256
1751015579481482500,2.225482421875,-0.05046956613659859,-0.12758006155490875,0.0255194753408432
1751015579491425500,2.235425537109375,-0.021083714440464973,-0.1447819471359253,0.06172168627381325
1751015579501368600,2.24536865234375,0.012915798462927341,-0.1350393146276474,0.11059655249118805
1751015579511311600,2.2553115234375,0.04807218909263611,-0.12977157533168793,0.16120992600917816
1751015579521254700,2.265254638671875,0.08187675476074219,-0.13614052534103394,0.2068495899438858
1751015579531198500,2.275198486328125,0.12566950917243958,-0.15582528710365295,0.2431522011756897
1751015579541141500,2.2851416015625,0.17226843535900116,-0.18080998957157135,0.27812138199806213
1751015579551084500,2.29508447265625,0.19625979661941528,-0.216830313205719,0.3045729398727417
1751015579561027600,2.305027587890625,0.18667720258235931,-0.24170397222042084,0.33351433277130127
1751015579570970600,2.314970703125,0.14964169263839722,-0.23235706984996796,0.373731791973114
1751015579580913700,2.32491357421875,0.10563428699970245,-0.16461797058582306,0.4173032343387604
1751015579590857500,2.334857421875,0.08209113776683807,-0.03638783469796181,0.44629600644111633
1751015579600800500,2.344800537109375,0.09425992518663406,0.10227949917316437,0.43943649530410767
1751015579610743600,2.35474365234375,0.12472622096538544,0.21912169456481934,0.3896771967411041
1751015579620686600,2.3646865234375,0.16034945845603943,0.304436057806015,0.30728936195373535
1751015579630629600,2.374629638671875,0.17361599206924438,0.33552688360214233,0.2041930854320526
1751015579640573400,2.384573486328125,0.15452326834201813,0.29483190178871155,0.092472143471241
1751015579650516500,2.3945166015625,0.10261452198028564,0.20948158204555511,0.00259418529458344
1751015579660459500,2.40445947265625,0.04885302484035492,0.13273167610168457,-0.04519783705472946
1751015579670402600,2.414402587890625,0.03701500967144966,0.087381511926651,-0.0482596755027771
1751015579680345600,2.424345703125,0.05656314268708229,0.10087228566408157,-0.01014131773263216
1751015579690288600,2.43428857421875,0.10740502178668976,0.13617302477359772,0.05757967382669449
1751015579700232400,2.444232421875,0.16791443526744843,0.176855206489563,0.1306895762681961
1751015579710175500,2.454175537109375,0.22300751507282257,0.24217481911182404,0.1781737357378006
1751015579720118500,2.464118408203125,0.24056440591812134,0.2749934792518616,0.16951845586299896
1751015579730061600,2.4740615234375,0.22054702043533325,0.2426227629184723,0.08897807449102402
1751015579740004600,2.484004638671875,0.17581763863563538,0.16742227971553802,-0.02598792500793934
1751015579749947600,2.49394775390625,0.13203632831573486,0.09454674273729324,-0.142652228474617
1751015579759891500,2.503891357421875,0.1081368550658226,0.025412149727344513,-0.22938045859336853
1751015579769834500,2.51383447265625,0.11668134480714798,-0.03531937301158905,-0.252391517162323
1751015579779777500,2.523777587890625,0.1485537886619568,-0.08579613268375397,-0.20661017298698425
1751015579789720600,2.533720458984375,0.2018209993839264,-0.09704292565584183,-0.10346833616495132
1751015579799663600,2.54366357421875,0.27530959248542786,-0.05323285982012749,0.033788058906793594
1751015579809606700,2.553606689453125,0.3491116464138031,0.007418235298246145,0.16898022592067719
1751015579819550500,2.563550537109375,0.3989737629890442,0.06304900348186493,0.2656969130039215
1751015579829493500,2.573493408203125,0.4068402051925659,0.1330677717924118,0.30866649746894836
1751015579839436500,2.5834365234375,0.3839641809463501,0.19482886791229248,0.28448471426963806
1751015579849379600,2.593379638671875,0.3489622473716736,0.23871323466300964,0.21760210394859314
1751015579859322600,2.603322509765625,0.2939871549606323,0.2478654533624649,0.11088097840547562
1751015579869265700,2.613265625,0.22733941674232483,0.22621075809001923,-0.012190086767077446
1751015579879209500,2.62320947265625,0.1781337857246399,0.1836760938167572,-0.12080364674329758
1751015579889152500,2.633152587890625,0.14878468215465546,0.13603293895721436,-0.18312481045722961
1751015579899095600,2.643095458984375,0.15215757489204407,0.0946066677570343,-0.19397053122520447
1751015579909038600,2.65303857421875,0.18339405953884125,0.05098249018192291,-0.16487736999988556
1751015579918981600,2.662981689453125,0.23697446286678314,0.003943076357245445,-0.10235033929347992
1751015579928925400,2.672925537109375,0.30268529057502747,-0.0309925377368927,-0.017140904441475868
1751015579938868500,2.682868408203125,0.3657558858394623,-0.040591634809970856,0.08542381972074509
1751015579948811500,2.6928115234375,0.42929384112358093,-0.030661240220069885,0.19765475392341614
1751015579958754600,2.702754638671875,0.48330381512641907,-0.01973695307970047,0.3065122663974762
1751015579968697600,2.712697509765625,0.5200343728065491,-0.013559484854340553,0.3921845555305481
1751015579978640600,2.722640625,0.5342604517936707,-0.028250547125935555,0.4471607208251953
1751015579988584400,2.73258447265625,0.5218493342399597,-0.08116862177848816,0.452187180519104
1751015579998527500,2.742527587890625,0.4663882255554199,-0.1604626476764679,0.41570398211479187
1751015580008470500,2.752470458984375,0.38846251368522644,-0.24482280015945435,0.35239213705062866
1751015580018413600,2.76241357421875,0.2894347310066223,-0.31949731707572937,0.27588751912117004
1751015580028356600,2.772356689453125,0.1907678246498108,-0.37012478709220886,0.21070849895477295
1751015580038299600,2.782299560546875,0.1198214739561081,-0.3829907774925232,0.16944202780723572
1751015580048243500,2.792243408203125,0.08377639204263687,-0.3512861132621765,0.16324564814567566
1751015580058186500,2.8021865234375,0.08205731958150864,-0.29669371247291565,0.1801266223192215
1751015580068129500,2.812129638671875,0.07993824034929276,-0.2368823140859604,0.1931561380624771
1751015580078072600,2.822072509765625,0.07617013156414032,-0.17732205986976624,0.20426206290721893
1751015580088015600,2.832015625,0.06017705425620079,-0.12093494087457657,0.19915011525154114
1751015580097958700,2.841958740234375,0.046426888555288315,-0.07662606984376907,0.18843568861484528
1751015580107902500,2.85190234375,0.0367438979446888,-0.04447372630238533,0.17472892999649048
1751015580117845500,2.861845458984375,0.04181588813662529,-0.011255317367613316,0.1789196878671646
1751015580127788500,2.87178857421875,0.05825398489832878,0.013431918807327747,0.1871941238641739
1751015580137731600,2.881731689453125,0.08441208302974701,0.02889396622776985,0.19400542974472046
1751015580147674600,2.891674560546875,0.10647770762443542,0.03392734006047249,0.18632885813713074
1751015580157617700,2.90161767578125,0.1263800412416458,0.019869312644004822,0.15713955461978912
1751015580167561500,2.9115615234375,0.14604829251766205,-0.019540412351489067,0.11198645830154419
1751015580177504500,2.92150439453125,0.13854269683361053,-0.08831334859132767,0.05120832473039627
1751015580187447600,2.931447509765625,0.09328653663396835,-0.17124924063682556,-0.021588915959000587
1751015580197390600,2.941390625,0.007668572477996349,-0.24982528388500214,-0.11312628537416458
1751015580207333600,2.951333740234375,-0.10023259371519089,-0.2935602366924286,-0.21384917199611664
1751015580217277400,2.96127734375,-0.215185284614563,-0.29116180539131165,-0.31696224212646484
1751015580227220500,2.971220458984375,-0.2966460585594177,-0.22439049184322357,-0.41449493169784546
1751015580237163500,2.98116357421875,-0.3279200792312622,-0.11672847718000412,-0.4886024296283722
1751015580247106600,2.9911064453125,-0.3084813952445984,-0.014723818749189377,-0.5353073477745056
1751015580257049600,3.001049560546875,-0.2658942639827728,0.043522708117961884,-0.5604438781738281
1751015580266992600,3.01099267578125,-0.2291005551815033,0.017675399780273438,-0.5625783801078796
1751015580276936400,3.0209365234375,-0.2154923379421234,-0.046963248401880264,-0.5470982193946838
1751015580286879500,3.03087939453125,-0.22883078455924988,-0.1147201880812645,-0.49898743629455566
1751015580296822500,3.040822509765625,-0.26768338680267334,-0.1653442233800888,-0.4242146611213684
1751015580306765600,3.050765625,-0.34064891934394836,-0.20036691427230835,-0.3473675549030304
1751015580316708600,3.06070849609375,-0.42550042271614075,-0.22870215773582458,-0.28356221318244934
1751015580326651600,3.070651611328125,-0.4942038655281067,-0.24557088315486908,-0.24173273146152496
1751015580336595500,3.080595458984375,-0.5055023431777954,-0.25409460067749023,-0.2068442553281784
1751015580346538500,3.09053857421875,-0.4604445695877075,-0.2231137752532959,-0.15923066437244415
1751015580356481500,3.1004814453125,-0.3767366111278534,-0.1600317507982254,-0.08984200656414032
1751015580366424600,3.110424560546875,-0.27952513098716736,-0.08880949765443802,-0.009588977321982384
1751015580376367600,3.12036767578125,-0.19613328576087952,-0.011043063364923,0.065013088285923
1751015580386311400,3.1303115234375,-0.12741094827651978,0.056661415845155716,0.1321662962436676
1751015580396254500,3.14025439453125,-0.09147239476442337,0.10339083522558212,0.18332189321517944
1751015580406197500,3.150197509765625,-0.09601707756519318,0.13408616185188293,0.19997623562812805
1751015580416140500,3.160140625,-0.14494866132736206,0.1458408236503601,0.17444823682308197
1751015580426083600,3.17008349609375,-0.22086846828460693,0.12762346863746643,0.108433797955513
1751015580436026600,3.180026611328125,-0.3210802972316742,0.10861409455537796,0.01261086668819189
1751015580445970400,3.189970458984375,-0.4247478246688843,0.09067424386739731,-0.09433183073997498
1751015580455913500,3.19991357421875,-0.5146481394767761,0.07122784107923508,-0.2135263979434967
1751015580465857000,3.20985693359375,-0.5693249702453613,0.06250731647014618,-0.3176192343235016
1751015580475800000,3.219800048828125,-0.5636225938796997,0.06861208379268646,-0.3865272104740143
1751015580485743000,3.2297431640625,-0.5106734037399292,0.0854368731379509,-0.4140712022781372
1751015580495686100,3.23968603515625,-0.426113486289978,0.09981421381235123,-0.40370965003967285
1751015580505630000,3.2496298828125,-0.3333771526813507,0.1131712943315506,-0.3511764109134674
1751015580515573000,3.259572998046875,-0.24317936599254608,0.13212767243385315,-0.2611876428127289
1751015580525516000,3.26951611328125,-0.16500839591026306,0.15316292643547058,-0.15360207855701447
1751015580535459000,3.279458984375,-0.11248952895402908,0.15610837936401367,-0.03670128807425499
1751015580545402000,3.289402099609375,-0.10057321190834045,0.14410631358623505,0.05001656338572502
1751015580555346000,3.299345947265625,-0.12060098350048065,0.12607723474502563,0.09256455302238464
1751015580565289000,3.3092890625,-0.15975691378116608,0.1085142269730568,0.09542904794216156
1751015580575232000,3.31923193359375,-0.19816634058952332,0.08503526449203491,0.05378653109073639
1751015580585175000,3.329175048828125,-0.23065264523029327,0.06033258140087128,-0.0026072347536683083
1751015580595118000,3.3391181640625,-0.24904204905033112,0.0387660376727581,-0.06273821741342545
1751015580605061000,3.34906103515625,-0.25371217727661133,0.023674702271819115,-0.12260448187589645
1751015580615005000,3.3590048828125,-0.24658474326133728,-0.004175303969532251,-0.1616639941930771
1751015580624948000,3.368947998046875,-0.2453029602766037,-0.030426083132624626,-0.17610952258110046
1751015580634891000,3.37889111328125,-0.23837049305438995,-0.056591372936964035,-0.15817205607891083
1751015580644834000,3.388833984375,-0.2117956131696701,-0.0662064477801323,-0.11544590443372726
1751015580654777000,3.398777099609375,-0.16663292050361633,-0.04927140846848488,-0.04254532977938652
1751015580664720100,3.40872021484375,-0.10543747991323471,0.010942395776510239,0.051773715764284134
1751015580674664000,3.418663818359375,-0.045463088899850845,0.08047060668468475,0.13239185512065887
1751015580684607000,3.42860693359375,-0.0010106696281582117,0.13858796656131744,0.18688812851905823
1751015580694550000,3.438550048828125,0.02538738213479519,0.2009112685918808,0.2166319042444229
1751015580704493000,3.4484931640625,0.04959684610366821,0.2680913805961609,0.21893367171287537
1751015580714436000,3.45843603515625,0.07456211745738983,0.32588648796081543,0.19547788798809052
1751015580724379100,3.468379150390625,0.10273223370313644,0.345567524433136,0.15101242065429688
1751015580734323000,3.478322998046875,0.11952879279851913,0.336824893951416,0.09287108480930328
1751015580744266000,3.488265869140625,0.11577426642179489,0.30196383595466614,0.0328623428940773
1751015580754209000,3.498208984375,0.08893067389726639,0.2333509624004364,-0.023503195494413376
1751015580764152000,3.508152099609375,0.046001847833395004,0.11994584649801254,-0.09387935698032379
1751015580774095000,3.51809521484375,-0.005062935408204794,-0.008876049891114235,-0.1550857275724411
1751015580784039000,3.528038818359375,-0.07372428476810455,-0.12522342801094055,-0.2018204778432846
1751015580793982000,3.53798193359375,-0.1416415572166443,-0.1761782318353653,-0.221685528755188
1751015580803925000,3.547925048828125,-0.17107826471328735,-0.13688461482524872,-0.1999264359474182
1751015580813868000,3.557867919921875,-0.13300785422325134,-0.018632007762789726,-0.14524933695793152
1751015580823811000,3.56781103515625,-0.044557880610227585,0.10532402247190475,-0.07197459042072296
1751015580833754000,3.577754150390625,0.053943127393722534,0.16334497928619385,-0.021312745288014412
1751015580843698000,3.587697998046875,0.1181119903922081,0.12321381270885468,-0.003978496417403221
1751015580853641000,3.597640869140625,0.14118722081184387,-0.008218248374760151,-0.006598780397325754
1751015580863584000,3.607583984375,0.13069117069244385,-0.15618321299552917,0.014666561037302017
1751015580873527000,3.617527099609375,0.11031106114387512,-0.2659595012664795,0.0666823610663414
1751015580883470000,3.627469970703125,0.1022331640124321,-0.3205796182155609,0.1483713537454605
1751015580893413000,3.6374130859375,0.12711773812770844,-0.2982737720012665,0.2543950080871582
1751015580903357000,3.64735693359375,0.1893603354692459,-0.19332978129386902,0.3554057776927948
1751015580913300000,3.657300048828125,0.2902131974697113,-0.058093130588531494,0.42933139204978943
1751015580923243000,3.667242919921875,0.38978078961372375,0.03806962072849274,0.4350025951862335
1751015580933186000,3.67718603515625,0.4271353483200073,0.1047956570982933,0.37131574749946594
1751015580943129000,3.687129150390625,0.4101710021495819,0.13935469090938568,0.260913610458374
1751015580953073200,3.6970732421875,0.36220428347587585,0.15779602527618408,0.12186092138290405
1751015580963016000,3.707015869140625,0.31181755661964417,0.16902044415473938,-0.017660751938819885
1751015580972959000,3.716958984375,0.26321539282798767,0.1630357950925827,-0.13375885784626007
1751015580982902000,3.726902099609375,0.20113417506217957,0.1233602836728096,-0.22874875366687775
1751015580992845000,3.736844970703125,0.12248410284519196,0.06578460335731506,-0.29824766516685486
1751015581002788000,3.7467880859375,0.049308694899082184,0.022188659757375717,-0.32495197653770447
1751015581012732000,3.75673193359375,-0.0004063983797095716,0.001088433898985386,-0.3130631148815155
1751015581022675000,3.766675048828125,-0.031683892011642456,0.009192433208227158,-0.266593873500824
1751015581032618000,3.776617919921875,-0.03696467727422714,0.04453737288713455,-0.20838382840156555
1751015581042561000,3.78656103515625,-0.008506935089826584,0.09491026401519775,-0.13744041323661804
1751015581052504000,3.796504150390625,0.043714724481105804,0.13774827122688293,-0.07509741187095642
1751015581062447000,3.806447021484375,0.10236258804798126,0.15811879932880402,-0.018798455595970154
1751015581072391000,3.816390869140625,0.14716733992099762,0.1553879976272583,0.022307967767119408
1751015581082334000,3.826333984375,0.1809612661600113,0.15383057296276093,0.06473851948976517
1751015581092277000,3.836277099609375,0.21359883248806,0.15192614495754242,0.10313411056995392
1751015581102220000,3.846219970703125,0.22864197194576263,0.13259851932525635,0.13111647963523865
1751015581112163000,3.8561630859375,0.24022245407104492,0.13036146759986877,0.15173839032649994
1751015581122107100,3.866107177734375,0.26513418555259705,0.1975378394126892,0.1648011952638626
1751015581132050000,3.8760498046875,0.30349090695381165,0.2775629162788391,0.14821769297122955
1751015581141993000,3.885992919921875,0.32149627804756165,0.3115275204181671,0.0987449511885643
1751015581151936000,3.89593603515625,0.30678603053092957,0.31049075722694397,0.050809118896722794
1751015581161879000,3.905879150390625,0.2789762318134308,0.3002389073371887,0.03783100098371506
1751015581171822000,3.915822021484375,0.24521347880363464,0.24957361817359924,0.043533626943826675
1751015581181766100,3.92576611328125,0.19682544469833374,0.16281048953533173,0.061407435685396194
1751015581191709000,3.935708984375,0.13657115399837494,0.05958849564194679,0.08226451277732849
1751015581201652000,3.94565185546875,0.0746484026312828,-0.04770387336611748,0.10768305510282516
1751015581211595000,3.955594970703125,0.022479476407170296,-0.14647066593170166,0.1549147516489029
1751015581221538000,3.9655380859375,-0.027825240045785904,-0.1984798014163971,0.22536760568618774
1751015581231481000,3.975481201171875,-0.07838455587625504,-0.19069857895374298,0.29904690384864807
1751015581241425200,3.985425048828125,-0.1302964836359024,-0.16344645619392395,0.34707993268966675
1751015581251368000,3.995367919921875,-0.17542801797389984,-0.12676087021827698,0.3490522801876068
1751015581261311000,4.00531103515625,-0.20245110988616943,-0.08484192192554474,0.30490610003471375
1751015581271254000,4.01525390625,-0.19916875660419464,-0.023424899205565453,0.23108914494514465
1751015581281197000,4.025197021484375,-0.17094750702381134,0.038654450327157974,0.13376978039741516
1751015581291141000,4.03514111328125,-0.13254153728485107,0.06552015244960785,0.02840953692793846
1751015581301084200,4.045084228515625,-0.10187683254480362,0.0442633330821991,-0.07966979593038559
1751015581311027000,4.05502685546875,-0.09767436236143112,-0.014946192502975464,-0.1646517962217331
1751015581320970000,4.064969970703125,-0.12679976224899292,-0.0912066102027893,-0.23448680341243744
1751015581330913000,4.0749130859375,-0.18483030796051025,-0.17647090554237366,-0.3008788824081421
1751015581340856000,4.08485595703125,-0.2666814923286438,-0.24101901054382324,-0.35955098271369934
1751015581350800100,4.094800048828125,-0.34560292959213257,-0.23794838786125183,-0.3949292004108429
1751015581360743200,4.1047431640625,-0.43494611978530884,-0.16336175799369812,-0.42631882429122925
1751015581370686000,4.11468603515625,-0.5323048830032349,-0.04885542392730713,-0.46091675758361816
1751015581380629000,4.12462890625,-0.6177827715873718,0.13921594619750977,-0.5039939284324646
1751015581390572000,4.134572021484375,-0.6974341869354248,0.25499048829078674,-0.5814780592918396
1751015581400514800,4.144514892578125,-0.8020519614219666,0.2675723135471344,-0.6788634657859802
1751015581410459100,4.154459228515625,-0.8876209259033203,0.24895283579826355,-0.716695249080658
1751015581420402200,4.164402099609375,-0.9042222499847412,0.1956043839454651,-0.6680928468704224
1751015581430345000,4.174344970703125,-0.8571628928184509,0.11559849977493286,-0.5345648527145386
1751015581440288000,4.1842880859375,-0.7827930450439453,0.02491760067641735,-0.31732097268104553
1751015581450231000,4.19423095703125,-0.6920692920684814,-0.08774849772453308,-0.053880009800195694
1751015581460173800,4.204173828125,-0.5908910036087036,-0.20611268281936646,0.23715688288211823
1751015581470117600,4.21411767578125,-0.47302934527397156,-0.3060153126716614,0.5003501772880554
1751015581480060700,4.224060791015625,-0.35300227999687195,-0.35463106632232666,0.7052247524261475
1751015581490003700,4.234003662109375,-0.24770380556583405,-0.3463355600833893,0.8385146260261536
1751015581499946500,4.243946533203125,-0.15824316442012787,-0.2918259799480438,0.8886204361915588
1751015581509889500,4.2538896484375,-0.08952268958091736,-0.183620423078537,0.8590004444122314
1751015581519833600,4.26383349609375,-0.05675062909722328,-0.07708892226219177,0.7510606646537781
1751015581529776600,4.273776611328125,-0.09688686579465866,0.0016703346045687795,0.5618345737457275
1751015581539719700,4.2837197265625,-0.20097890496253967,0.04752171412110329,0.30911630392074585
1751015581549662500,4.293662353515625,-0.3431674838066101,0.061578940600156784,0.03455424681305885
1751015581559605500,4.30360546875,-0.49330610036849976,0.04741651937365532,-0.21371494233608246
1751015581569548500,4.313548583984375,-0.6082366704940796,0.004085022956132889,-0.3906460404396057
1751015581579492600,4.32349267578125,-0.6626477241516113,-0.07315224409103394,-0.48493632674217224
1751015581589435600,4.333435546875,-0.6713491082191467,-0.18642286956310272,-0.4942595362663269
1751015581599378700,4.343378662109375,-0.6395783424377441,-0.2933325469493866,-0.4139058291912079
1751015581609321500,4.353321533203125,-0.5764257907867432,-0.3578313887119293,-0.26202628016471863
1751015581619264500,4.363264404296875,-0.4768621623516083,-0.36966753005981445,-0.08192069828510284
1751015581629207600,4.37320751953125,-0.36239123344421387,-0.33353403210639954,0.08064078539609909
1751015581639151600,4.383151611328125,-0.2601727247238159,-0.2819105088710785,0.19876103103160858
1751015581649094700,4.3930947265625,-0.18451258540153503,-0.2216961681842804,0.2553976774215698
1751015581659037700,4.40303759765625,-0.14665788412094116,-0.15350086987018585,0.25621554255485535
1751015581668980500,4.41298046875,-0.13837066292762756,-0.08589652925729752,0.21244195103645325
1751015581678923500,4.422923583984375,-0.15142866969108582,-0.02509922720491886,0.13590963184833527
1751015581688866600,4.432866455078125,-0.1707664132118225,0.038596127182245255,0.04475095868110657
1751015581698810600,4.442810546875,-0.18053250014781952,0.10326007753610611,-0.04699626937508583
1751015581708753700,4.452753662109375,-0.16879700124263763,0.14295528829097748,-0.11983505636453629
1751015581718696700,4.46269677734375,-0.14715562760829926,0.1635574996471405,-0.15674354135990143
1751015581728639500,4.472639404296875,-0.11416678875684738,0.1722537875175476,-0.15412725508213043
1751015581738582500,4.48258251953125,-0.07519861310720444,0.16428402066230774,-0.11064369231462479
1751015581748526600,4.492526611328125,-0.025172997266054153,0.13806545734405518,-0.042151980102062225
1751015581758469600,4.5024697265625,0.020110860466957092,0.10879572480916977,0.037265878170728683
1751015581768412700,4.51241259765625,0.05742654204368591,0.06554172188043594,0.1099720373749733
1751015581778355700,4.522355712890625,0.0897008553147316,0.022434735670685768,0.17055682837963104
1751015581788298500,4.532298583984375,0.1088298112154007,-0.003136138431727886,0.20376218855381012
1751015581798241500,4.542241455078125,0.12238103896379471,-0.019117502495646477,0.215506449341774
1751015581808185600,4.552185546875,0.13676877319812775,-0.024624120444059372,0.21256420016288757
1751015581818128600,4.562128662109375,0.15200231969356537,-0.0049497513100504875,0.19864198565483093
1751015581828071700,4.57207177734375,0.16359399259090424,0.033009883016347885,0.1777052879333496
1751015581838014700,4.5820146484375,0.15992975234985352,0.09322848170995712,0.14033474028110504
1751015581847957500,4.59195751953125,0.1574319750070572,0.15647216141223907,0.08594899624586105
1751015581857900500,4.601900634765625,0.1505032181739807,0.20671455562114716,0.01637284830212593
1751015581867844600,4.6118447265625,0.13809075951576233,0.20256482064723969,-0.06347697973251343
1751015581877787600,4.62178759765625,0.10912861675024033,0.14855271577835083,-0.16241954267024994
1751015581887730700,4.631730712890625,0.07269151508808136,0.08058112859725952,-0.24480043351650238
1751015581897673700,4.641673828125,0.04418104141950607,0.038182005286216736,-0.2915056049823761
1751015581907616500,4.651616455078125,0.05144614726305008,0.07707533985376358,-0.28118374943733215
1751015581917560600,4.661560546875,0.11756817251443863,0.13105228543281555,-0.22864675521850586
1751015581927503600,4.671503662109375,0.2058655470609665,0.1808059960603714,-0.15336452424526215
1751015581937446700,4.68144677734375,0.2820487320423126,0.25376781821250916,-0.06820408999919891
1751015581947389700,4.6913896484375,0.3392374515533447,0.33395081758499146,-0.002095375210046768
1751015581957332700,4.701332763671875,0.36301496624946594,0.3888564109802246,0.01925971545279026
1751015581967275500,4.711275634765625,0.36688026785850525,0.37743276357650757,-0.008039817214012146
1751015581977219600,4.721219482421875,0.354127436876297,0.2597053349018097,-0.06392518430948257
1751015581987162600,4.73116259765625,0.34372514486312866,0.053044576197862625,-0.10492588579654694
1751015581997105700,4.741105712890625,0.3497750461101532,-0.16003094613552094,-0.08310633897781372
1751015582007048700,4.751048583984375,0.3550662100315094,-0.32779306173324585,-0.006994260009378195
1751015582016991500,4.760991455078125,0.37002119421958923,-0.43739092350006104,0.1143723800778389
1751015582026935600,4.770935546875,0.41347065567970276,-0.48067766427993774,0.24428510665893555
1751015582036878600,4.780878662109375,0.48548680543899536,-0.483982652425766,0.3532177209854126
1751015582046821600,4.790821533203125,0.5680932402610779,-0.4897209703922272,0.4182843267917633
1751015582056764700,4.8007646484375,0.6277163624763489,-0.4970337450504303,0.4356287121772766
1751015582066707700,4.810707763671875,0.6542683839797974,-0.46470722556114197,0.4164789617061615
1751015582076650500,4.820650390625,0.6610485315322876,-0.3734090030193329,0.37734514474868774
1751015582086594600,4.830594482421875,0.6552843451499939,-0.23534034192562103,0.3238081634044647
1751015582096537600,4.84053759765625,0.6214081645011902,-0.08293429762125015,0.24172261357307434
1751015582106480600,4.850480712890625,0.556346595287323,0.06988507509231567,0.1403331458568573
1751015582116423700,4.860423583984375,0.5038687586784363,0.20474542677402496,0.04651983082294464
1751015582126366700,4.87036669921875,0.4716045558452606,0.31052857637405396,-0.028870796784758568
1751015582136309500,4.8803095703125,0.45975640416145325,0.37049177289009094,-0.07496452331542969
1751015582146253600,4.890253662109375,0.4722604751586914,0.40216076374053955,-0.08825609087944031
1751015582156196600,4.900196533203125,0.5064722299575806,0.404296338558197,-0.07421990483999252
1751015582166139600,4.9101396484375,0.5614899396896362,0.3834400773048401,-0.0215377826243639
1751015582176082700,4.920082763671875,0.6232561469078064,0.3431967794895172,0.05691894143819809
1751015582186025700,4.930025634765625,0.6810994744300842,0.28091102838516235,0.15035568177700043
1751015582195969500,4.939969482421875,0.7198069095611572,0.20073390007019043,0.2453935146331787
1751015582205912600,4.94991259765625,0.7433838844299316,0.12289662659168243,0.3297331631183624
1751015582215855600,4.959855712890625,0.7486409544944763,0.04338555783033371,0.4038603901863098
1751015582225798700,4.969798583984375,0.7368564605712891,-0.004474110435694456,0.4543299376964569
1751015582235741700,4.97974169921875,0.7166404128074646,-0.037923414260149,0.4754703938961029
1751015582245684700,4.989684814453125,0.6842925548553467,-0.07395625114440918,0.4660041928291321
1751015582255628500,4.999628662109375,0.6452751159667969,-0.1093565821647644,0.43018439412117004
1751015582265571600,5.009571533203125,0.5933530926704407,-0.1643308848142624,0.36269882321357727
1751015582275514600,5.0195146484375,0.5279037952423096,-0.21502655744552612,0.2804708182811737
1751015582285457700,5.029457763671875,0.4357328414916992,-0.27131539583206177,0.1994345486164093
1751015582295400700,5.039400634765625,0.31343087553977966,-0.3482796847820282,0.14962917566299438
1751015582305344500,5.049344482421875,0.1764967441558838,-0.40502896904945374,0.1374654471874237
1751015582315287600,5.05928759765625,0.05501078814268112,-0.4082365036010742,0.1705096811056137
1751015582325230600,5.069230712890625,-0.01678031124174595,-0.33864036202430725,0.22340698540210724
1751015582335173600,5.079173583984375,-0.03990640491247177,-0.2170470952987671,0.2535704970359802
1751015582345116700,5.08911669921875,-0.017039703205227852,-0.038904257118701935,0.25738412141799927
1751015582355059700,5.099059814453125,0.03443467244505882,0.16834880411624908,0.22305545210838318
1751015582365003500,5.10900341796875,0.12293417751789093,0.3317326605319977,0.1516534388065338
1751015582374946600,5.118946533203125,0.1899568885564804,0.39921876788139343,0.06451374292373657
1751015582384889600,5.1288896484375,0.2068282812833786,0.36289218068122864,-0.017313210293650627
1751015582394832600,5.13883251953125,0.16701188683509827,0.24241903424263,-0.08854078501462936
1751015582404775700,5.148775634765625,0.06550124287605286,0.058274224400520325,-0.16526326537132263
1751015582414719500,5.158719482421875,-0.08108819276094437,-0.1355634182691574,-0.2544759511947632
1751015582424662500,5.16866259765625,-0.27143868803977966,-0.2665320932865143,-0.3444593846797943
1751015582434605600,5.17860546875,-0.4681629538536072,-0.2833329141139984,-0.4107113778591156
1751015582444548600,5.188548583984375,-0.6363873481750488,-0.20761896669864655,-0.45147210359573364
1751015582454491600,5.19849169921875,-0.7387741804122925,-0.07136659324169159,-0.47614896297454834
1751015582464434700,5.2084345703125,-0.7519909143447876,0.0749882236123085,-0.5015293955802917
1751015582474378800,5.218378662109375,-0.6835445165634155,0.17040902376174927,-0.5403814911842346
1751015582484321500,5.228321533203125,-0.566886842250824,0.22130681574344635,-0.5833308100700378
1751015582494264600,5.2382646484375,-0.4552045464515686,0.2145189493894577,-0.6098239421844482
1751015582504207600,5.24820751953125,-0.40631821751594543,0.14451830089092255,-0.6093682646751404
1751015582514150700,5.258150634765625,-0.41832056641578674,0.10097961127758026,-0.5523667931556702
1751015582524093700,5.26809375,-0.46204298734664917,0.09330065548419952,-0.4398666024208069
1751015582534037500,5.27803759765625,-0.5207958221435547,0.0769302025437355,-0.306075781583786
1751015582543980500,5.28798046875,-0.5972223877906799,0.06130969524383545,-0.1922147125005722
1751015582553923600,5.297923583984375,-0.6730282306671143,0.06693855673074722,-0.12235893309116364
1751015582563866600,5.30786669921875,-0.6999543905258179,0.09214350581169128,-0.09282634407281876
1751015582573809700,5.3178095703125,-0.6606740951538086,0.14258724451065063,-0.09606315195560455
1751015582583753700,5.327753662109375,-0.5766915678977966,0.18700717389583588,-0.10495917499065399
1751015582593696500,5.337696533203125,-0.4582749009132385,0.21997790038585663,-0.10471682250499725
1751015582603639600,5.3476396484375,-0.3316623568534851,0.22084343433380127,-0.08270100504159927
1751015582613582600,5.35758251953125,-0.22401899099349976,0.19231031835079193,-0.03717559948563576
1751015582623525600,5.367525634765625,-0.14968377351760864,0.15024782717227936,0.019601663574576378
1751015582633468700,5.37746875,-0.10734643042087555,0.09876758605241776,0.07438768446445465
1751015582643412500,5.38741259765625,-0.11647654324769974,0.02491040900349617,0.10324382781982422
1751015582653355500,5.39735546875,-0.16887104511260986,-0.053100768476724625,0.09843522310256958
1751015582663298600,5.407298583984375,-0.24526488780975342,-0.12766288220882416,0.06783630698919296
1751015582673241600,5.41724169921875,-0.3157084286212921,-0.17728689312934875,0.02720206044614315
1751015582683184600,5.4271845703125,-0.3653912842273712,-0.20346470177173615,-0.012740296311676502
1751015582693128700,5.437128662109375,-0.3832011818885803,-0.2317056655883789,-0.03911331295967102
1751015582703071500,5.447071533203125,-0.38110101222991943,-0.24499350786209106,-0.043596211820840836
1751015582713014500,5.4570146484375,-0.3671844005584717,-0.2467208355665207,-0.029232187196612358
1751015582722957600,5.46695751953125,-0.3446892201900482,-0.2392306923866272,0.0004170510219410062
1751015582732900600,5.476900634765625,-0.32876110076904297,-0.225291445851326,0.023480292409658432
1751015582742843600,5.48684375,-0.3207694888114929,-0.21280761063098907,0.04533206298947334
1751015582752787700,5.49678759765625,-0.3277336657047272,-0.18909668922424316,0.06481681019067764
1751015582762730500,5.50673046875,-0.34326228499412537,-0.1291998028755188,0.08044717460870743
1751015582772673500,5.516673583984375,-0.3589027523994446,-0.05226666480302811,0.08205092698335648
1751015582782616600,5.526616455078125,-0.3776892423629761,0.013018596917390823,0.06801606714725494
1751015582792559600,5.5365595703125,-0.4045482873916626,0.06577448546886444,0.04610917344689369
1751015582802504000,5.54650390625,-0.4110719561576843,0.13574397563934326,0.0401785783469677
1751015582812446700,5.55644677734375,-0.39233529567718506,0.25959429144859314,0.04502606391906738
1751015582822389500,5.566389404296875,-0.35988306999206543,0.41380757093429565,0.04910549521446228
1751015582832332500,5.57633251953125,-0.3382507562637329,0.5211824774742126,0.03726987540721893
1751015582842275600,5.586275634765625,-0.35759487748146057,0.5507190823554993,0.03214701637625694
1751015582852218600,5.596218505859375,-0.4295537769794464,0.5310148596763611,0.0626673772931099
1751015582862162700,5.60616259765625,-0.5350812673568726,0.5521728992462158,0.1703062206506729
1751015582872105500,5.61610546875,-0.5938460230827332,0.6397690773010254,0.33618414402008057
1751015582882048500,5.626048583984375,-0.5664128065109253,0.714968740940094,0.5031046867370605
1751015582891991600,5.635991455078125,-0.45741575956344604,0.754876971244812,0.5866536498069763
1751015582901934600,5.6459345703125,-0.3262247145175934,0.7308640480041504,0.5436848402023315
1751015582911879000,5.65587890625,-0.2171994298696518,0.6770471930503845,0.37567776441574097
1751015582921821700,5.66582177734375,-0.13474050164222717,0.5941943526268005,0.1369469314813614
1751015582931764500,5.675764404296875,-0.08166263997554779,0.4568359851837158,-0.12340289354324341
1751015582941707500,5.68570751953125,-0.043959468603134155,0.32648995518684387,-0.3506869077682495
1751015582951650600,5.695650634765625,-0.003428287338465452,0.21383371949195862,-0.5087649822235107
1751015582961595000,5.705594970703125,0.0180562324821949,0.09875267744064331,-0.6058142781257629
1751015582971537700,5.71553759765625,0.014766429550945759,-0.04782744497060776,-0.6279858946800232
1751015582981480700,5.725480712890625,-0.0016290555940940976,-0.2013903707265854,-0.586240828037262
1751015582991423500,5.735423583984375,-0.0020626182667911053,-0.2933197617530823,-0.47102344036102295
1751015583001366500,5.745366455078125,0.04559997469186783,-0.27013134956359863,-0.2916395664215088
1751015583011309600,5.7553095703125,0.1860114187002182,-0.10452400892972946,-0.0948982834815979
1751015583021254000,5.76525390625,0.3839985430240631,0.11161414533853531,0.0589623861014843
1751015583031196700,5.77519677734375,0.5863580107688904,0.29960134625434875,0.12524926662445068
1751015583041139700,5.7851396484375,0.7050939798355103,0.35014817118644714,0.07815312594175339
1751015583051082500,5.79508251953125,0.7141079902648926,0.26039591431617737,-0.05769951641559601
1751015583061025500,5.805025634765625,0.6344685554504395,0.06767252087593079,-0.23179994523525238
1751015583070969900,5.814969970703125,0.5172055959701538,-0.1503056138753891,-0.3885762393474579
1751015583080912600,5.82491259765625,0.44554072618484497,-0.31967678666114807,-0.4712330400943756
1751015583090855700,5.834855712890625,0.4889712929725647,-0.42158424854278564,-0.445986807346344
1751015583100798700,5.844798828125,0.6035125255584717,-0.4342625141143799,-0.35656237602233887
1751015583110741500,5.854741455078125,0.7489416003227234,-0.3813473582267761,-0.22548478841781616
1751015583120684500,5.8646845703125,0.8801214694976807,-0.3097863495349884,-0.07842503488063812
1751015583130628900,5.87462890625,0.953463613986969,-0.24537327885627747,0.032522790133953094
1751015583140571600,5.884571533203125,0.9419746994972229,-0.22552180290222168,0.05445019155740738
1751015583150514700,5.8945146484375,0.8625017404556274,-0.22757163643836975,-0.00032091091270558536
1751015583160457700,5.904457763671875,0.7479767203330994,-0.23147104680538177,-0.10934539884328842
1751015583170400500,5.914400390625,0.6137957572937012,-0.2342417985200882,-0.22303041815757751
1751015583180344800,5.9243447265625,0.48455896973609924,-0.21478234231472015,-0.29912039637565613
1751015583190287600,5.93428759765625,0.36936819553375244,-0.17132647335529327,-0.3328072428703308
1751015583200230700,5.944230712890625,0.2973930537700653,-0.10461988300085068,-0.32417380809783936
1751015583210173700,5.954173583984375,0.2789655923843384,-0.013250291347503662,-0.2763943076133728
1751015583220116700,5.96411669921875,0.30832773447036743,0.06431534141302109,-0.20395419001579285
1751015583230060800,5.974060791015625,0.371158629655838,0.12326334416866302,-0.11317022889852524
1751015583240003800,5.98400390625,0.4459737539291382,0.15047898888587952,-0.011147992685437202
1751015583249946600,5.993946533203125,0.528032124042511,0.11934316903352737,0.11018695682287216
1751015583259889700,6.0038896484375,0.6121909618377686,0.07651235163211823,0.2509235739707947
1751015583269832700,6.013832763671875,0.6829567551612854,0.04836620017886162,0.407878577709198
1751015583279775700,6.023775634765625,0.7228245139122009,0.02532160095870495,0.5398533940315247
1751015583289719800,6.0337197265625,0.7285212874412537,0.008498147130012512,0.6042219996452332
1751015583299662600,6.04366259765625,0.7054324746131897,-0.021994248032569885,0.6040275692939758
1751015583309605600,6.053605712890625,0.6630618572235107,-0.06827199459075928,0.5422616600990295
1751015583319548700,6.063548583984375,0.6137305498123169,-0.12949620187282562,0.4351418912410736
1751015583329491700,6.07349169921875,0.5513606071472168,-0.22591088712215424,0.3006812632083893
1751015583339435800,6.083435791015625,0.4698876142501831,-0.33271270990371704,0.16876079142093658
1751015583349378800,6.09337890625,0.3889102041721344,-0.4082556664943695,0.07089600712060928
1751015583359321600,6.103321533203125,0.32787907123565674,-0.43243423104286194,0.023937556892633438
1751015583369264600,6.1132646484375,0.2896121144294739,-0.4068588316440582,0.016290290281176567
1751015583379207700,6.123207763671875,0.26542526483535767,-0.35182327032089233,0.03219228982925415
1751015583389151700,6.13315185546875,0.2530261278152466,-0.26320287585258484,0.07619942724704742
1751015583399094800,6.1430947265625,0.2545390725135803,-0.14037655293941498,0.13660897314548492
1751015583409037600,6.15303759765625,0.27000299096107483,-0.0156513974070549,0.20324046909809113
1751015583418980600,6.162980712890625,0.2929980456829071,0.10433120280504227,0.25780943036079407
1751015583428923600,6.172923583984375,0.3134745657444,0.19227543473243713,0.28562214970588684
1751015583438866700,6.18286669921875,0.3229255974292755,0.2591753602027893,0.2867673337459564
1751015583448810800,6.192810791015625,0.33254119753837585,0.2872064709663391,0.24693042039871216
1751015583458753800,6.20275390625,0.3294045329093933,0.2659885287284851,0.18717095255851746
1751015583468700000,6.212699951171875,0.2964763939380646,0.22668160498142242,0.09667647629976273
1751015583478643000,6.222642822265625,0.22616761922836304,0.16688326001167297,-0.0073652383871376514
1751015583488586000,6.2325859375,0.13474130630493164,0.08821508288383484,-0.11959271132946014
1751015583498529800,6.24252978515625,0.03544427827000618,-0.0021859225817024708,-0.2370346486568451
1751015583508472800,6.252472900390625,-0.04530063644051552,-0.07590488344430923,-0.3400936722755432
1751015583518416000,6.262415771484375,-0.11210256814956665,-0.13014015555381775,-0.42549777030944824
1751015583528359000,6.27235888671875,-0.20585116744041443,-0.18650276958942413,-0.5389180779457092
1751015583538302000,6.282302001953125,-0.37835076451301575,-0.2555779814720154,-0.7071835398674011
1751015583548246000,6.29224609375,-0.6120783090591431,-0.31994444131851196,-0.9301436543464661
1751015583558188800,6.302188720703125,-0.8448535203933716,-0.32939413189888,-1.148630976676941
1751015583568131800,6.3121318359375,-1.0138797760009766,-0.28505438566207886,-1.325501561164856
1751015583578075000,6.322074951171875,-1.0691078901290894,-0.22438570857048035,-1.4557852745056152
1751015583588018000,6.332017822265625,-0.9774275422096252,-0.13897919654846191,-1.5099202394485474
1751015583597961000,6.3419609375,-0.7964494824409485,-0.10658156871795654,-1.5075619220733643
1751015583607905000,6.351905029296875,-0.5872840285301208,-0.10420576483011246,-1.4393991231918335
1751015583617847800,6.361847900390625,-0.398836612701416,-0.08327171951532364,-1.2845027446746826
1751015583627790800,6.371790771484375,-0.24154284596443176,-0.0622580461204052,-1.0374019145965576
1751015583637734000,6.38173388671875,-0.1140485405921936,-0.041671812534332275,-0.7214985489845276
1751015583647677000,6.391677001953125,-0.028018051758408546,-0.00330205331556499,-0.36605629324913025
1751015583657621000,6.40162109375,0.024641696363687515,0.0438566692173481,-0.02365179918706417
1751015583667564000,6.41156396484375,0.04117859527468681,0.07332295179367065,0.24070236086845398
1751015583677506800,6.4215068359375,0.05501691251993179,0.08905930072069168,0.4090269207954407
1751015583687449900,6.431449951171875,0.09191234409809113,0.09571746736764908,0.4917401671409607
1751015583697393000,6.441392822265625,0.12503407895565033,0.0898934006690979,0.49954724311828613
1751015583707337000,6.4513369140625,0.1376742422580719,0.07090932875871658,0.4590967297554016
1751015583717280000,6.461280029296875,0.10879705101251602,0.019458653405308723,0.3833833336830139
1751015583727223000,6.47122314453125,0.04568439722061157,-0.04331684857606888,0.30641213059425354
1751015583737165800,6.481165771484375,-0.04549477994441986,-0.10592563450336456,0.23807461559772491
1751015583747108900,6.49110888671875,-0.15678934752941132,-0.15041400492191315,0.18618665635585785
1751015583757052000,6.501052001953125,-0.2677571475505829,-0.17267003655433655,0.15618188679218292
1751015583766996000,6.510995849609375,-0.35753071308135986,-0.16346243023872375,0.14006070792675018
1751015583776939000,6.52093896484375,-0.42603999376296997,-0.12960006296634674,0.12703171372413635
1751015583786882000,6.530882080078125,-0.4565238654613495,-0.06444317102432251,0.11840493977069855
1751015583796824800,6.540824951171875,-0.43682900071144104,0.016333699226379395,0.12173549085855484
1751015583806767900,6.550767822265625,-0.38578417897224426,0.10855896770954132,0.13387177884578705
1751015583816712000,6.5607119140625,-0.311352014541626,0.18753740191459656,0.15303935110569
1751015583826655000,6.570655029296875,-0.2385220229625702,0.2280571311712265,0.17708715796470642
1751015583836598000,6.580597900390625,-0.19165225327014923,0.25299471616744995,0.2112959921360016
1751015583846540800,6.590540771484375,-0.16476871073246002,0.2627783715724945,0.25367993116378784
1751015583856483800,6.60048388671875,-0.14519713819026947,0.24962660670280457,0.28573906421661377
1751015583866428000,6.610427978515625,-0.149602010846138,0.2008817046880722,0.2991643249988556
1751015583876371000,6.620370849609375,-0.17066627740859985,0.1622496247291565,0.3004165589809418
1751015583886314000,6.63031396484375,-0.19999220967292786,0.14665095508098602,0.28933006525039673
1751015583896257000,6.640257080078125,-0.22390685975551605,0.15835927426815033,0.24857546389102936
1751015583906199800,6.65019970703125,-0.23561705648899078,0.1888492852449417,0.17671538889408112
1751015583916142800,6.660142822265625,-0.23713745176792145,0.23256133496761322,0.0802232027053833
1751015583926087000,6.6700869140625,-0.22865687310695648,0.26661837100982666,-0.04464549943804741
1751015583936030000,6.680030029296875,-0.22366851568222046,0.2796263098716736,-0.17666931450366974
1751015583945973000,6.689972900390625,-0.20837131142616272,0.2857414782047272,-0.28096455335617065
1751015583955916000,6.699916015625,-0.17694760859012604,0.2881593406200409,-0.33661502599716187
1751015583965858800,6.70985888671875,-0.14079466462135315,0.2664386034011841,-0.35557007789611816
1751015583975803000,6.719802978515625,-0.1049242839217186,0.2174505591392517,-0.33467039465904236
1751015583985746000,6.729745849609375,-0.07147125154733658,0.16598550975322723,-0.29255756735801697
1751015583995689000,6.73968896484375,-0.030012760311365128,0.12138155847787857,-0.23293524980545044
1751015584005632000,6.749632080078125,0.030668163672089577,0.07639357447624207,-0.17972210049629211
1751015584015575000,6.759574951171875,0.09512358903884888,0.033973947167396545,-0.1398947834968567
1751015584025518800,6.769518798828125,0.17604532837867737,0.004492752719670534,-0.10933447629213333
1751015584035462000,6.7794619140625,0.2717795670032501,0.0023121563717722893,-0.07506278902292252
1751015584045405000,6.789405029296875,0.35463133454322815,0.01435363944619894,-0.03570207208395004
1751015584055348000,6.799347900390625,0.4124080538749695,0.02959783934056759,0.002560629276558757
1751015584065291000,6.809291015625,0.44324934482574463,0.048295628279447556,0.044077977538108826
1751015584075234000,6.819234130859375,0.4655727446079254,0.06790447980165482,0.07092690467834473
1751015584085177900,6.829177734375,0.48086434602737427,0.07060279697179794,0.06771247088909149
1751015584095121000,6.839120849609375,0.4968409240245819,0.052135638892650604,0.04060415178537369
1751015584105064000,6.84906396484375,0.5027936100959778,-0.010075004771351814,-0.008048338815569878
1751015584115007000,6.859007080078125,0.48334801197052,-0.1141662523150444,-0.07126592099666595
1751015584124950000,6.868949951171875,0.4435175061225891,-0.19053718447685242,-0.120219886302948
1751015584134893800,6.878893798828125,0.40591686964035034,-0.18139216303825378,-0.13213592767715454
1751015584144836900,6.8888369140625,0.3969619870185852,-0.06750208139419556,-0.10772673040628433
1751015584154780000,6.89877978515625,0.40919816493988037,0.10175112634897232,-0.0730835348367691
1751015584164723000,6.908722900390625,0.43499886989593506,0.27733707427978516,-0.05878927931189537
1751015584174666000,6.918666015625,0.46861621737480164,0.4017951190471649,-0.07729744911193848
1751015584184609800,6.92860986328125,0.48294588923454285,0.43235939741134644,-0.1299460083246231
1751015584194552800,6.938552734375,0.46068239212036133,0.3570508062839508,-0.19570665061473846
1751015584204496000,6.948495849609375,0.4346023201942444,0.24480734765529633,-0.22564058005809784
1751015584214439000,6.95843896484375,0.43068695068359375,0.15206409990787506,-0.1928109973669052
1751015584224382000,6.9683818359375,0.45983096957206726,0.06570391356945038,-0.11346583813428879
1751015584234325800,6.97832568359375,0.5064110159873962,-0.02726810611784458,-0.0054419031366705894
1751015584244268800,6.988268798828125,0.5507036447525024,-0.1334850937128067,0.11379207670688629
1751015584254211800,6.9982119140625,0.5784859657287598,-0.23945119976997375,0.22589410841464996
1751015584264155000,7.00815478515625,0.5757418870925903,-0.32718583941459656,0.31976521015167236
1751015584274098000,7.018097900390625,0.5483437776565552,-0.3861098885536194,0.3911310136318207
1751015584284041000,7.028041015625,0.500307023525238,-0.4262908697128296,0.4325767159461975
1751015584293984800,7.03798486328125,0.4375999867916107,-0.4332009553909302,0.4352089762687683
1751015584303927800,7.047927734375,0.3652069866657257,-0.3975798487663269,0.40754780173301697
1751015584313870800,7.057870849609375,0.29498183727264404,-0.35172954201698303,0.34791216254234314
1751015584323814000,7.06781396484375,0.21057960391044617,-0.29748573899269104,0.26295706629753113
1751015584333757000,7.0777568359375,0.11580809205770493,-0.2424246221780777,0.1630355268716812
1751015584343701000,7.087700927734375,0.027605261653661728,-0.19304747879505157,0.08190605044364929
1751015584353643800,7.097643798828125,-0.047457531094551086,-0.15262310206890106,0.03303438425064087
1751015584363586800,7.1075869140625,-0.08978607505559921,-0.12867702543735504,0.020964404568076134
1751015584373529900,7.11752978515625,-0.10975445806980133,-0.12807540595531464,0.04134930297732353
1751015584383473000,7.127472900390625,-0.10055217146873474,-0.12793639302253723,0.10228509455919266
1751015584393417000,7.1374169921875,-0.033415213227272034,-0.199215367436409,0.1784522980451584
1751015584403360000,7.147360107421875,0.10069065541028976,-0.3134404718875885,0.2730206251144409
1751015584413302800,7.157302734375,0.17925763130187988,-0.3085133731365204,0.3976443111896515
1751015584423245800,7.167245849609375,0.15572568774223328,-0.1982284039258957,0.4729475677013397
1751015584433188900,7.17718896484375,0.12836037576198578,-0.1947990506887436,0.4758070111274719
1751015584443132000,7.1871318359375,0.16007861495018005,-0.2927676737308502,0.4592954218387604
1751015584453076000,7.197075927734375,0.1870971918106079,-0.32654136419296265,0.45534196496009827
1751015584463019000,7.20701904296875,0.19177556037902832,-0.32465609908103943,0.4487580955028534
1751015584472959000,7.216958984375,0.1830126941204071,-0.36850666999816895,0.41735729575157166
1751015584482902000,7.226902099609375,0.1961766928434372,-0.40656110644340515,0.37959498167037964
1751015584492845000,7.236844970703125,0.24277056753635406,-0.3961012661457062,0.34509187936782837
1751015584502789000,7.2467890625,0.3063492774963379,-0.36742088198661804,0.3214166462421417
1751015584512732000,7.25673193359375,0.3644578456878662,-0.3199564218521118,0.3173060417175293
1751015584522675000,7.266675048828125,0.37919819355010986,-0.2502359449863434,0.34059858322143555
1751015584532618000,7.276617919921875,0.3424904942512512,-0.15670280158519745,0.37168246507644653
1751015584542561000,7.28656103515625,0.27004000544548035,-0.06169372424483299,0.40955743193626404
1751015584552505000,7.296505126953125,0.1847381591796875,0.03966192528605461,0.42466819286346436
1751015584562448100,7.3064482421875,0.11352549493312836,0.13836373388767242,0.4136248528957367
1751015584572391000,7.316390869140625,0.0679100751876831,0.20979291200637817,0.3574231266975403
1751015584582334000,7.326333984375,0.03816176578402519,0.22868165373802185,0.27261289954185486
1751015584592277000,7.336277099609375,0.01949780061841011,0.1909095048904419,0.1630656123161316
1751015584602220000,7.346219970703125,0.009215336292982101,0.10814165323972702,0.05708965286612511
1751015584612164000,7.3561640625,0.01950126327574253,0.024213727563619614,-0.03460671380162239
1751015584622107100,7.366107177734375,0.07102756947278976,-0.04127446934580803,-0.10928521305322647
1751015584632050000,7.3760498046875,0.1366467922925949,-0.10667344927787781,-0.17251718044281006
1751015584641993000,7.385992919921875,0.18423961102962494,-0.1532771736383438,-0.23302340507507324
1751015584651936000,7.39593603515625,0.19276785850524902,-0.1850726455450058,-0.2933221459388733
1751015584661880000,7.405880126953125,0.14209668338298798,-0.2017267346382141,-0.35801512002944946
1751015584671823000,7.415822998046875,0.0659145712852478,-0.19715407490730286,-0.4199940860271454
1751015584681766100,7.42576611328125,-0.036565203219652176,-0.17541176080703735,-0.48873427510261536
1751015584691709000,7.435708984375,-0.1634025126695633,-0.14188788831233978,-0.5660833716392517
1751015584701652000,7.44565185546875,-0.26233547925949097,-0.060682788491249084,-0.6460341215133667
1751015584711596000,7.455595947265625,-0.3004210889339447,0.029633525758981705,-0.7450174689292908
1751015584721539000,7.4655390625,-0.28694549202919006,0.11263866722583771,-0.8493648767471313
1751015584731482000,7.475482177734375,-0.2455058991909027,0.155465230345726,-0.9381211400032043
1751015584741425200,7.485425048828125,-0.21270108222961426,0.163538858294487,-0.9670395851135254
1751015584751368000,7.495367919921875,-0.20119808614253998,0.16217559576034546,-0.9146608114242554
1751015584761311000,7.50531103515625,-0.19109006226062775,0.16494926810264587,-0.7825515270233154
1751015584771255000,7.515255126953125,-0.1847032755613327,0.18087977170944214,-0.5910379886627197
1751015584781198000,7.525197998046875,-0.18569156527519226,0.17842939496040344,-0.3728015422821045
1751015584791141000,7.53514111328125,-0.2156771570444107,0.13988067209720612,-0.1765095293521881
1751015584801084200,7.545084228515625,-0.27071937918663025,0.08695700019598007,-0.02117186412215233
1751015584811027000,7.55502685546875,-0.3403242826461792,0.030304642394185066,0.07617732882499695
1751015584820971000,7.564970947265625,-0.39398193359375,-0.032703086733818054,0.12378878891468048
1751015584830914000,7.5749140625,-0.41758817434310913,-0.07812809199094772,0.13148133456707
1751015584840857000,7.584857177734375,-0.3878803551197052,-0.09527591615915298,0.12914493680000305
1751015584850800000,7.594800048828125,-0.3260643780231476,-0.08189033716917038,0.1418769806623459
1751015584860743200,7.6047431640625,-0.2586885392665863,-0.04211043566465378,0.1761057823896408
1751015584870687000,7.61468701171875,-0.20456752181053162,0.016449280083179474,0.22701051831245422
1751015584880630000,7.624630126953125,-0.17936763167381287,0.06228547915816307,0.2697840631008148
1751015584890573000,7.634572998046875,-0.18541193008422852,0.08960285037755966,0.2929184138774872
1751015584900516000,7.64451611328125,-0.20715399086475372,0.11250311136245728,0.2966015636920929
1751015584910459100,7.654459228515625,-0.238591268658638,0.11322934925556183,0.280378133058548
1751015584920402200,7.664402099609375,-0.2865268290042877,0.10379350930452347,0.2516325116157532
1751015584930346000,7.674345947265625,-0.3388097584247589,0.09601414948701859,0.21958588063716888
1751015584940289000,7.6842890625,-0.3808663785457611,0.10180465877056122,0.19172416627407074
1751015584950232000,7.694232177734375,-0.4096580743789673,0.1290128380060196,0.16952697932720184
1751015584960175000,7.704175048828125,-0.4199211001396179,0.17061328887939453,0.1535394936800003
1751015584970118100,7.7141181640625,-0.414568692445755,0.22827498614788055,0.1504611372947693
1751015584980062000,7.72406201171875,-0.39336034655570984,0.30625686049461365,0.15251417458057404
1751015584990005000,7.7340048828125,-0.35786333680152893,0.3996720314025879,0.15901601314544678
1751015584999948000,7.743947998046875,-0.3055591285228729,0.47441524267196655,0.1621103435754776
1751015585009891000,7.75389111328125,-0.25142425298690796,0.5192999243736267,0.1503428965806961
1751015585019834000,7.763834228515625,-0.20397523045539856,0.5305631756782532,0.13474290072917938
1751015585029778000,7.77377783203125,-0.16926172375679016,0.5172727108001709,0.10919839143753052
1751015585039721000,7.783720947265625,-0.14486265182495117,0.4837626814842224,0.08701878786087036
1751015585049664000,7.7936640625,-0.1273302584886551,0.42535823583602905,0.058217234909534454
1751015585059607000,7.80360693359375,-0.12006222456693649,0.3537926971912384,0.01631159521639347
1751015585069550000,7.813550048828125,-0.12209847569465637,0.26408278942108154,-0.02172207273542881
1751015585079493000,7.8234931640625,-0.12754863500595093,0.1697075366973877,-0.06848078966140747
1751015585089437000,7.83343701171875,-0.1317066252231598,0.0839468315243721,-0.10044112056493759
1751015585099380000,7.8433798828125,-0.13150502741336823,0.018199777230620384,-0.11868750303983688
1751015585109323000,7.853322998046875,-0.1256151795387268,-0.04375360533595085,-0.12285774201154709
1751015585119266000,7.86326611328125,-0.11026232689619064,-0.08810216188430786,-0.11531887203454971
1751015585129209000,7.873208984375,-0.0838666707277298,-0.11973385512828827,-0.10485131293535233
1751015585139153000,7.88315283203125,-0.05206666141748428,-0.16384698450565338,-0.10454212129116058
1751015585149096000,7.893095947265625,-0.03560113534331322,-0.20643679797649384,-0.12202044576406479
1751015585159039000,7.9030390625,-0.031870048493146896,-0.21146483719348907,-0.14254969358444214
1751015585168982000,7.91298193359375,-0.031268972903490067,-0.19539906084537506,-0.16596101224422455
1751015585178925000,7.922925048828125,-0.028652150183916092,-0.16941459476947784,-0.20009900629520416
1751015585188869000,7.932869140625,-0.010635866783559322,-0.11877325177192688,-0.22790293395519257
1751015585198812000,7.94281201171875,0.042511239647865295,-0.03915805369615555,-0.22378888726234436
1751015585208755000,7.9527548828125,0.12291606515645981,0.0403016172349453,-0.1823013573884964
1751015585218698000,7.962697998046875,0.20158584415912628,0.08295053988695145,-0.12512782216072083
1751015585228641000,7.97264111328125,0.25388315320014954,0.05529468134045601,-0.0682927742600441
1751015585238584000,7.982583984375,0.284074068069458,-0.017226923257112503,-0.026854516938328743
1751015585248528100,7.992528076171875,0.2789839506149292,-0.09261062741279602,-0.00017736652807798237
1751015585258471000,8.002470947265625,0.2408573478460312,-0.11610982567071915,0.007153783459216356
1751015585268414000,8.0124140625,0.18429873883724213,-0.05235135555267334,-0.0057502975687384605
1751015585278357000,8.02235693359375,0.14751036465168,0.0752369612455368,-0.03350096940994263
1751015585288300000,8.032300048828125,0.14735376834869385,0.24737145006656647,-0.08219500631093979
1751015585298244000,8.042244140625,0.1884162425994873,0.41933149099349976,-0.149661123752594
1751015585308187000,8.052186767578124,0.24914804100990295,0.5269434452056885,-0.20599950850009918
1751015585318130000,8.0621298828125,0.2887905240058899,0.5303983688354492,-0.23811589181423187
1751015585328073000,8.072072998046876,0.28818172216415405,0.4660457372665405,-0.22872266173362732
1751015585338016000,8.08201611328125,0.2763175964355469,0.36180561780929565,-0.16256573796272278
1751015585347960000,8.0919599609375,0.2713417708873749,0.24981330335140228,-0.05733359605073929
1751015585357903000,8.101903076171874,0.28660938143730164,0.1315273940563202,0.069852314889431
1751015585367846000,8.111845947265625,0.31795692443847656,0.02377776801586151,0.20249052345752716
1751015585377789000,8.121788818359375,0.3560875356197357,-0.04905489459633827,0.32086002826690674
1751015585387732000,8.13173193359375,0.4048321843147278,-0.08965771645307541,0.4116261601448059
1751015585397675000,8.141675048828125,0.4558604657649994,-0.100047767162323,0.468702495098114
1751015585407619000,8.151619140625,0.49719592928886414,-0.09827117621898651,0.48999661207199097
1751015585417562000,8.16156201171875,0.5248813629150391,-0.09422343969345093,0.47456544637680054
1751015585427505000,8.1715048828125,0.5220040678977966,-0.10304782539606094,0.4351266920566559
1751015585437448000,8.181447998046876,0.47374439239501953,-0.14806349575519562,0.3713842034339905
1751015585447391000,8.191390869140625,0.3825087547302246,-0.20505940914154053,0.30670401453971863
1751015585457335000,8.2013349609375,0.25438621640205383,-0.24700579047203064,0.2460758239030838
1751015585467282000,8.211281982421875,0.12582983076572418,-0.24308376014232635,0.2073630392551422
1751015585477224700,8.221224609375,0.015729960054159164,-0.20234644412994385,0.18507957458496094
1751015585487167500,8.23116748046875,-0.052689310163259506,-0.1375053972005844,0.1655958890914917
1751015585497110500,8.241110595703125,-0.08388877660036087,-0.06551030278205872,0.13787397742271423
1751015585507054800,8.251054931640626,-0.09562798589468002,0.002954510971903801,0.11485947668552399
1751015585516998000,8.260997802734375,-0.0796881690621376,0.05205174908041954,0.09138716757297516
1751015585526941000,8.27094091796875,-0.05180354416370392,0.0774359330534935,0.07011517137289047
1751015585536883700,8.2808837890625,-0.013858557678759098,0.08296439051628113,0.061225272715091705
1751015585546826500,8.290826416015625,0.036490101367235184,0.05279317498207092,0.06717344373464584
1751015585556770800,8.300770751953126,0.08977355808019638,-0.012491556815803051,0.09259118884801865
1751015585566713900,8.3107138671875,0.13748621940612793,-0.128346785902977,0.1253856122493744
1751015585576657000,8.320656982421875,0.15802398324012756,-0.27143123745918274,0.1783985048532486
1751015585586600000,8.330599853515626,0.1746852546930313,-0.3952818214893341,0.24941062927246094
1751015585596542700,8.340542724609374,0.19421102106571198,-0.47564244270324707,0.31980782747268677
1751015585606485500,8.350485595703125,0.23656539618968964,-0.5092728137969971,0.36898496747016907
1751015585616429800,8.360429931640626,0.2958231270313263,-0.5091434121131897,0.3960821032524109
1751015585626372900,8.370372802734375,0.3465491533279419,-0.4663067162036896,0.38602039217948914
1751015585636316000,8.38031591796875,0.38333407044410706,-0.39338457584381104,0.3461472988128662
1751015585646258700,8.3902587890625,0.40042489767074585,-0.29075273871421814,0.28613802790641785
1751015585656201700,8.40020166015625,0.3946138918399811,-0.18702581524848938,0.21744389832019806
1751015585666145800,8.410145751953126,0.35568034648895264,-0.06920037418603897,0.1379954218864441
1751015585676088800,8.4200888671875,0.3091687560081482,0.04689720273017883,0.052625659853219986
1751015585686032000,8.430031982421875,0.25707361102104187,0.14629435539245605,-0.02984657883644104
1751015585695975000,8.439974853515626,0.19853758811950684,0.20670151710510254,-0.10279588401317596
1751015585705917700,8.449917724609374,0.1336193084716797,0.20845839381217957,-0.17462027072906494
1751015585715860500,8.459860595703125,0.07573231309652328,0.1828387975692749,-0.21545292437076569
1751015585725804800,8.4698046875,0.031083883717656136,0.1699962317943573,-0.22618412971496582
1751015585735747800,8.479747802734375,0.009167132899165154,0.1595289409160614,-0.23217171430587769
1751015585745691000,8.48969091796875,-0.01642637699842453,0.11950802057981491,-0.24367497861385345
1751015585755633700,8.499633544921876,-0.044254545122385025,0.07165634632110596,-0.22898365557193756
1751015585765576700,8.50957666015625,-0.07204649597406387,0.02213912457227707,-0.19579534232616425
1751015585775520800,8.519520751953126,-0.11012464016675949,-0.04634326323866844,-0.16768380999565125
1751015585785463800,8.5294638671875,-0.1798027902841568,-0.10752459615468979,-0.1614975482225418
1751015585795406800,8.53940673828125,-0.27785637974739075,-0.13827106356620789,-0.17608554661273956
1751015585805350000,8.549349853515626,-0.381430983543396,-0.13790753483772278,-0.20482957363128662
1751015585815292700,8.559292724609374,-0.46709102392196655,-0.1349884420633316,-0.2423790842294693
1751015585825236700,8.56923681640625,-0.522199809551239,-0.10460630059242249,-0.25890904664993286
1751015585835179800,8.5791796875,-0.5507044196128845,-0.04874863103032112,-0.24976642429828644
1751015585845122800,8.589122802734375,-0.553796112537384,0.025411084294319153,-0.20753774046897888
1751015585855065900,8.59906591796875,-0.5312183499336243,0.10161131620407104,-0.13518951833248138
1751015585865008600,8.609008544921876,-0.49846917390823364,0.1730881631374359,-0.05793493986129761
1751015585874951700,8.61895166015625,-0.4689997136592865,0.22577640414237976,0.019396334886550903
1751015585884895700,8.628895751953126,-0.45444339513778687,0.24052898585796356,0.08912880718708038
1751015585894838800,8.6388388671875,-0.44782570004463196,0.2459423989057541,0.15525031089782715
1751015585904781800,8.64878173828125,-0.43994462490081787,0.24067385494709015,0.21622897684574127
1751015585914724900,8.658724853515626,-0.4258200228214264,0.23627804219722748,0.25778013467788696
1751015585924667600,8.668667724609374,-0.40658479928970337,0.24268348515033722,0.271295964717865
1751015585934611700,8.67861181640625,-0.3777981698513031,0.26151496171951294,0.2470252364873886
1751015585944554800,8.6885546875,-0.34586846828460693,0.2727481722831726,0.19803212583065033
1751015585954497800,8.698497802734375,-0.31814709305763245,0.2687305212020874,0.12474832683801651
1751015585964440800,8.70844091796875,-0.29726362228393555,0.24061021208763123,0.033605363219976425
1751015585974383600,8.718383544921876,-0.2981877624988556,0.18345797061920166,-0.05421184003353119
1751015585984327700,8.72832763671875,-0.3269754648208618,0.11449941247701645,-0.1255003958940506
1751015585994270700,8.738270751953126,-0.3696100115776062,0.0438566692173481,-0.17735667526721954
1751015586004213800,8.7482138671875,-0.4251992404460907,-0.013886254280805588,-0.21496956050395966
1751015586014156800,8.75815673828125,-0.47947126626968384,-0.0415855273604393,-0.2311384081840515
1751015586024099800,8.768099853515626,-0.5198016166687012,-0.03542563319206238,-0.23059885203838348
1751015586034042600,8.778042724609374,-0.5346812605857849,0.0020354539155960083,-0.21910998225212097
1751015586043986700,8.787986572265625,-0.5308079719543457,0.0544629767537117,-0.19731147587299347
1751015586053929700,8.7979296875,-0.502990186214447,0.10772886127233505,-0.1685788929462433
1751015586063872800,8.807872802734375,-0.4536580443382263,0.14704830944538116,-0.14084899425506592
1751015586073815800,8.81781591796875,-0.3893008828163147,0.16100166738033295,-0.11118058115243912
1751015586083758600,8.827758544921876,-0.3212217092514038,0.15946529805660248,-0.0861348882317543
1751015586093703000,8.837702880859375,-0.25450870394706726,0.14959987998008728,-0.056176453828811646
1751015586103645700,8.847645751953126,-0.18740583956241608,0.14445970952510834,-0.039632365107536316
1751015586113588700,8.857588623046874,-0.12516777217388153,0.1388859748840332,-0.039022233337163925
1751015586123531800,8.86753173828125,-0.06833751499652863,0.1342448890209198,-0.06623201817274094
1751015586133474800,8.877474853515626,-0.03243943303823471,0.12933987379074097,-0.11960922181606293
1751015586143419000,8.8874189453125,-0.02959437668323517,0.109303317964077,-0.19341686367988586
1751015586153362000,8.89736181640625,-0.05832535773515701,0.08005835115909576,-0.27111831307411194
1751015586163304700,8.9073046875,-0.10821834951639175,0.04917899891734123,-0.33688801527023315
1751015586173247700,8.917247802734375,-0.17214566469192505,0.017429590225219727,-0.38305869698524475
1751015586183190800,8.927190673828125,-0.23484979569911957,-0.008917062543332577,-0.4036113917827606
1751015586193133600,8.937133544921876,-0.2884019613265991,-0.030759243294596672,-0.40069547295570374
1751015586203078000,8.947077880859375,-0.32572537660598755,-0.05648244917392731,-0.37812334299087524
1751015586213021000,8.95702099609375,-0.324911504983902,-0.07447370141744614,-0.332380086183548
1751015586222963700,8.966963623046874,-0.26610037684440613,-0.04904796928167343,-0.27121925354003906
1751015586232906800,8.97690673828125,-0.15087366104125977,0.0004087952256668359,-0.2262006402015686
1751015586242849800,8.986849853515626,0.00035233621019870043,0.047387756407260895,-0.1990843415260315
1751015586252793900,8.9967939453125,0.15613527595996857,0.10167176276445389,-0.18357861042022705
1751015586262737000,9.00673681640625,0.2992902994155884,0.14761050045490265,-0.16051563620567322
1751015586272679700,9.0166796875,0.38945454359054565,0.16758766770362854,-0.12281300127506256
1751015586282622700,9.026622802734375,0.43668332695961,0.16947345435619354,-0.08023731410503387
1751015586292565800,9.036565673828125,0.4710268974304199,0.15591104328632355,-0.03905738890171051
1751015586302509800,9.046509765625,0.5057657361030579,0.12973615527153015,-0.026428943499922752
1751015586312452900,9.056452880859375,0.5444337725639343,0.10393065959215164,-0.026511501520872116
1751015586322396000,9.06639599609375,0.5864893198013306,0.07028721272945404,-0.036791834980249405
1751015586332338700,9.076338623046874,0.6122546195983887,0.02177933044731617,-0.058036405593156815
1751015586342281700,9.08628173828125,0.6210811138153076,-0.029737655073404312,-0.08697377890348434
1751015586352225800,9.096225830078126,0.6214891076087952,-0.06615931540727615,-0.11094755679368973
1751015586362168800,9.1061689453125,0.611941397190094,-0.06073871627449989,-0.1230955645442009
1751015586372112000,9.11611181640625,0.6013942360877991,0.009669938124716282,-0.11139044165611267
1751015586382055000,9.126054931640626,0.5933959484100342,0.15108592808246613,-0.07272213697433472
1751015586391997700,9.135997802734375,0.5918193459510803,0.3293411433696747,-0.02647874504327774
1751015586401940700,9.145940673828125,0.5835041999816895,0.4835754632949829,-0.00487092137336731
1751015586411884800,9.155884765625,0.5550323128700256,0.5981334447860718,-0.022047778591513634
1751015586421827800,9.165827880859375,0.5196921825408936,0.6329399347305298,-0.08095024526119232
1751015586431771000,9.17577099609375,0.45364364981651306,0.5491999983787537,-0.15407133102416992
1751015586441714000,9.1857138671875,0.35992729663848877,0.39165937900543213,-0.19164666533470154
1751015586451656700,9.19565673828125,0.28777986764907837,0.22780227661132812,-0.16276468336582184
1751015586461600800,9.205600830078126,0.2789938151836395,0.07162784785032272,-0.08262057602405548
1751015586471539700,9.215539794921876,0.3365178406238556,-0.04980830103158951,0.01774677261710167
1751015586481482800,9.225482666015624,0.45135360956192017,-0.11732050031423569,0.13579538464546204
1751015586491425800,9.23542578125,0.5987622141838074,-0.1380430907011032,0.24908758699893951
1751015586501368800,9.245368896484376,0.7591058611869812,-0.12324017286300659,0.3610231876373291
1751015586511312600,9.255312744140625,0.8926851749420166,-0.08995439112186432,0.46258094906806946
1751015586521255700,9.265255615234375,0.9649756550788879,-0.09317974746227264,0.5271322727203369
1751015586531198700,9.27519873046875,0.9957255721092224,-0.12600266933441162,0.5408046841621399
1751015586541141800,9.285141845703125,0.9738833904266357,-0.17897027730941772,0.5099801421165466
1751015586551084800,9.295084716796875,0.9097994565963745,-0.2716972827911377,0.44813090562820435
1751015586561028600,9.305028564453124,0.7853978872299194,-0.39497074484825134,0.3497646749019623
1751015586570971600,9.3149716796875,0.6098958253860474,-0.5218661427497864,0.2590475380420685
1751015586580914700,9.324914794921876,0.4009751081466675,-0.6050041317939758,0.18874914944171906
1751015586590857700,9.334857666015624,0.21239934861660004,-0.6340794563293457,0.14912717044353485
1751015586600800800,9.34480078125,0.08450210094451904,-0.6196573972702026,0.1248181015253067
1751015586610743800,9.354743896484376,0.022313028573989868,-0.5384190082550049,0.12141591310501099
1751015586620687600,9.3646875,0.02238333597779274,-0.40057218074798584,0.15282389521598816
1751015586630630700,9.374630615234375,0.05879886820912361,-0.2232232242822647,0.21509073674678802
1751015586640573700,9.38457373046875,0.10352160036563873,-0.06995458155870438,0.27037689089775085
1751015586650516700,9.394516845703125,0.14889919757843018,0.043718185275793076,0.29510220885276794
1751015586660459800,9.404459716796875,0.19045862555503845,0.12596619129180908,0.31218773126602173
1751015586670403800,9.41440380859375,0.21655814349651337,0.16610614955425262,0.3135107755661011
1751015586680346600,9.4243466796875,0.21540606021881104,0.15845249593257904,0.2993640601634979
1751015586690289700,9.43428955078125,0.18991267681121826,0.10015828907489777,0.28329241275787354
1751015586700232700,9.444232666015624,0.1419648677110672,-0.003689543344080448,0.2702599763870239
1751015586710175700,9.45417578125,0.08271565288305283,-0.12185027450323105,0.2689012289047241
1751015586720120000,9.4641201171875,0.01593981869518757,-0.22538332641124725,0.26882240176200867
1751015586730062800,9.474062744140625,-0.035404328256845474,-0.3024086058139801,0.2505355477333069
1751015586740005600,9.484005615234375,-0.04965410381555557,-0.32116392254829407,0.21254342794418335
1751015586749948700,9.49394873046875,-0.023980433121323586,-0.27622947096824646,0.17780248820781708
1751015586759891700,9.5038916015625,0.027968518435955048,-0.18921679258346558,0.16255882382392883
1751015586769836000,9.5138359375,0.0827137902379036,-0.1000530943274498,0.17010462284088135
1751015586779778800,9.52377880859375,0.11996821314096451,-0.029713686555624008,0.19443552196025848
1751015586789721600,9.5337216796875,0.13843776285648346,0.029377862811088562,0.2253207415342331
1751015586799664600,9.54366455078125,0.1247033178806305,0.09932445734739304,0.24659380316734314
1751015586809607700,9.553607666015624,0.08388397842645645,0.17617982625961304,0.23621892929077148
1751015586819550700,9.56355078125,0.011274758726358414,0.2514229118824005,0.19587042927742004
1751015586829495000,9.5734951171875,-0.08071082830429077,0.3050592541694641,0.12707646191120148
1751015586839437800,9.583437744140625,-0.19095903635025024,0.3285523056983948,0.0489792600274086
1751015586849380600,9.593380615234375,-0.2967858612537384,0.3157840669155121,-0.03212065249681473
1751015586859323600,9.60332373046875,-0.3827923834323883,0.2639293968677521,-0.0869482159614563
1751015586869266700,9.6132666015625,-0.42982593178749084,0.18965569138526917,-0.1232212632894516
1751015586879211000,9.6232109375,-0.44520410895347595,0.08761027455329895,-0.16509148478507996
1751015586889153800,9.63315380859375,-0.4422261416912079,0.011457451619207859,-0.22500035166740417
1751015586899096800,9.643096923828125,-0.4058700203895569,-0.07291015982627869,-0.3256143033504486
1751015586909039600,9.65303955078125,-0.36194702982902527,-0.1580548882484436,-0.45589908957481384
1751015586918982700,9.662982666015624,-0.3478149473667145,-0.22576148808002472,-0.5924249887466431
1751015586928927000,9.672927001953125,-0.40129175782203674,-0.254151314496994,-0.7242485284805298
1751015586938870000,9.6828701171875,-0.5139133930206299,-0.25511857867240906,-0.8355638384819031
1751015586948812800,9.692812744140625,-0.6515599489212036,-0.20657208561897278,-0.9008789658546448
1751015586958755800,9.702755859375,-0.7827754616737366,-0.12283270806074142,-0.9350907206535339
1751015586968698600,9.71269873046875,-0.8696699142456055,-0.0565173365175724,-0.9742479920387268
1751015586978643000,9.722642822265625,-0.9212936758995056,-0.015179751440882683,-1.0389715433120728
1751015586988586000,9.7325859375,-0.9526662230491638,0.0031430625822395086,-1.1433147192001343
1751015586998528800,9.74252880859375,-0.9837636947631836,-0.02708035334944725,-1.2758376598358154
1751015587008471800,9.752471923828125,-0.9956129193305969,-0.09964083880186081,-1.3977787494659424
1751015587018414800,9.762414794921876,-0.9771726727485657,-0.2274661809206009,-1.4501897096633911
1751015587028359000,9.77235888671875,-0.901770293712616,-0.3430710732936859,-1.3924747705459595
1751015587038302000,9.782302001953125,-0.7567673325538635,-0.3882406949996948,-1.1794764995574951
1751015587048245000,9.792244873046876,-0.5449599623680115,-0.32477009296417236,-0.8215258121490479
1751015587058187800,9.802187744140625,-0.27204322814941406,-0.15090082585811615,-0.34774836897850037
1751015587068130800,9.812130859375,0.01401781477034092,0.1204792782664299,0.1805596500635147
1751015587078073900,9.822073974609374,0.2668053209781647,0.3787150979042053,0.7025594711303711
1751015587088018000,9.832017822265625,0.43491336703300476,0.5807094573974609,1.107601523399353
1751015587097961000,9.8419609375,0.5830307006835938,0.6659402251243591,1.3680058717727661
1751015587107903700,9.85190380859375,0.6924839019775391,0.6236507892608643,1.4755624532699585
1751015587117846800,9.8618466796875,0.7276083827018738,0.4961431920528412,1.4579781293869019
1751015587127789800,9.871789794921876,0.6680923104286194,0.32577836513519287,1.3258012533187866
1751015587137734000,9.88173388671875,0.5122257471084595,0.10561537742614746,1.102060317993164
1751015587147677000,9.891677001953125,0.26014262437820435,-0.1730135977268219,0.8190703392028809
1751015587157620000,9.901619873046876,-0.0691327303647995,-0.4215051531791687,0.5373241901397705
1751015587167562800,9.911562744140625,-0.4404972195625305,-0.5338016152381897,0.3090428113937378
1751015587177505800,9.921505859375,-0.7995637655258179,-0.5278374552726746,0.10931557416915894
1751015587187449900,9.931449951171874,-1.0886224508285522,-0.4318139851093292,-0.049137718975543976
1751015587197393000,9.941392822265625,-1.2746222019195557,-0.259645938873291,-0.15657922625541687
1751015587207336000,9.9513359375,-1.3304548263549805,-0.06003990024328232,-0.21965458989143372
1751015587217278700,9.96127880859375,-1.2661757469177246,0.17730660736560822,-0.22351884841918945
1751015587227221800,9.9712216796875,-1.1135653257369995,0.44442060589790344,-0.15634699165821075
1751015587237164800,9.981164794921876,-0.8907908797264099,0.6925896406173706,-0.02497752197086811
1751015587247108900,9.99110888671875,-0.6380007266998291,0.876292884349823,0.1650392860174179
1751015587257052000,10.001052001953125,-0.3956698477268219,1.000460147857666,0.38629844784736633
1751015587266995000,10.010994873046876,-0.18841837346553802,1.0269553661346436,0.5918223261833191
1751015587276937700,10.020937744140625,-0.047141145914793015,0.9542300701141357,0.751964271068573
1751015587286880800,10.030880859375,0.034023214131593704,0.8542379140853882,0.8753951787948608
1751015587296824800,10.040824951171874,0.056421730667352676,0.740751326084137,0.9206603765487671
1751015587306768000,10.050767822265625,0.0388704352080822,0.5988836884498596,0.8726467490196228
1751015587316711000,10.0607109375,-0.0028687571175396442,0.45094987750053406,0.7592664361000061
1751015587326653700,10.07065380859375,-0.05782867968082428,0.2991579473018646,0.594605028629303
1751015587336596700,10.0805966796875,-0.12319490313529968,0.13716638088226318,0.3731437623500824
1751015587346540800,10.090540771484376,-0.194844588637352,-0.009638246148824692,0.12024438381195068
1751015587356483800,10.10048388671875,-0.2738179564476013,-0.19610266387462616,-0.1372271031141281
1751015587366427000,10.110427001953125,-0.3667324483394623,-0.35420122742652893,-0.369928777217865
1751015587376370000,10.120369873046876,-0.43295595049858093,-0.43977925181388855,-0.546774685382843
1751015587386312700,10.130312744140625,-0.4624810814857483,-0.45783814787864685,-0.6567776203155518
1751015587396257000,10.140257080078126,-0.4294600188732147,-0.3702060282230377,-0.680446982383728
1751015587406199800,10.15019970703125,-0.33137738704681396,-0.21374423801898956,-0.6000019311904907
1751015587416142800,10.160142822265625,-0.22616815567016602,-0.05511651560664177,-0.4483868479728699
1751015587426086000,10.1700859375,-0.1468735933303833,0.09657261520624161,-0.2602995038032532
1751015587436028700,10.180028564453124,-0.09720111638307571,0.2593633830547333,-0.0908590629696846
1751015587445971700,10.1899716796875,-0.04711824283003807,0.4009130597114563,0.0401117317378521
1751015587455916000,10.199916015625,0.024624653160572052,0.5221763849258423,0.1307114064693451
1751015587465858800,10.20985888671875,0.12569348514080048,0.6415019631385803,0.157450869679451
1751015587475801600,10.219801513671875,0.23501065373420715,0.7153863310813904,0.10324010252952576
1751015587485744600,10.22974462890625,0.34426602721214294,0.7042497992515564,-0.003507116809487343
1751015587495687700,10.239687744140625,0.4686790704727173,0.6829647421836853,-0.0771712139248848
1751015587505631700,10.2496318359375,0.6197359561920166,0.6731208562850952,-0.062077220529317856
1751015587515574800,10.25957470703125,0.7654018402099609,0.6652387380599976,0.04231416806578636
1751015587525517800,10.269517822265625,0.8906641006469727,0.6320461630821228,0.2222471833229065
1751015587535460600,10.279460693359376,0.9720830917358398,0.5998163223266602,0.4292653501033783
1751015587545403600,10.289403564453124,0.9860801100730896,0.5465677380561829,0.6212294697761536
1751015587555347700,10.29934765625,0.9170557856559753,0.43919122219085693,0.7358148694038391
1751015587565290800,10.309290771484376,0.7870439887046814,0.27278438210487366,0.775496244430542
1751015587575233800,10.31923388671875,0.6282349228858948,0.07503402978181839,0.7446757555007935
1751015587585176800,10.3291767578125,0.4362865090370178,-0.14402960240840912,0.6525309085845947
1751015587595119600,10.33911962890625,0.21052181720733643,-0.42152807116508484,0.48684820532798767
1751015587605063700,10.349063720703125,-0.04951615259051323,-0.7345077991485596,0.2804020941257477
1751015587615006700,10.3590068359375,-0.3778138756752014,-0.9764136672019958,0.04440155252814293
1751015587624949800,10.36894970703125,-0.7402336001396179,-1.0273178815841675,-0.20771218836307526
1751015587634892800,10.378892822265625,-1.021385908126831,-0.902216374874115,-0.45506206154823303
1751015587644835600,10.388835693359376,-1.1392958164215088,-0.6532361507415771,-0.6378006935119629
1751015587654779600,10.398779541015625,-1.1098979711532593,-0.31120580434799194,-0.7838506102561951
1751015587664722700,10.40872265625,-0.9954839944839478,0.024404674768447876,-0.9627718925476074
1751015587674665700,10.418665771484376,-0.8485760688781738,0.3170168399810791,-1.1897543668746948
1751015587684608800,10.42860888671875,-0.7052849531173706,0.5982077717781067,-1.4389421939849854
1751015587694551800,10.4385517578125,-0.5636628270149231,0.8779848217964172,-1.6700315475463867
1751015587704495600,10.44849560546875,-0.4434639811515808,1.0962340831756592,-1.9183894395828247
1751015587714438700,10.458438720703125,-0.33007192611694336,1.2076804637908936,-2.102024793624878
1751015587724381700,10.468381591796875,-0.22913731634616852,1.2445260286331177,-2.167262077331543
1751015587734324700,10.47832470703125,-0.19364403188228607,1.3312867879867554,-2.116060733795166
1751015587744267800,10.488267822265625,-0.22523152828216553,1.4481630325317383,-1.9319294691085815
1751015587754210800,10.4982109375,-0.2934260070323944,1.481785535812378,-1.5960034132003784
1751015587764154600,10.508154541015625,-0.3959742486476898,1.5061792135238647,-1.146240234375
1751015587774097700,10.51809765625,-0.5382261872291565,1.5029853582382202,-0.7294003963470459
1751015587784040700,10.528040771484376,-0.659305214881897,1.4128884077072144,-0.40608999133110046
1751015587793983700,10.537983642578125,-0.755919337272644,1.2672841548919678,-0.14174115657806396
1751015587803926800,10.5479267578125,-0.8687897324562073,1.1236050128936768,0.11767496913671494
1751015587813870600,10.55787060546875,-1.0068011283874512,0.9250364899635315,0.4151356816291809
1751015587823813600,10.567813720703125,-1.1230978965759277,0.7055041193962097,0.7183288335800171
1751015587833756700,10.577756591796875,-1.2243869304656982,0.6203053593635559,0.9790410995483398
1751015587843699700,10.58769970703125,-1.2296932935714722,0.767718493938446,1.1776982545852661
1751015587853642800,10.597642822265625,-1.0644476413726807,0.8686419129371643,1.2737047672271729
1751015587863586600,10.607586669921876,-0.7658641338348389,0.8940964341163635,1.2764410972595215
1751015587873529600,10.617529541015625,-0.47883927822113037,0.8589363098144531,1.2255898714065552
1751015587883472600,10.62747265625,-0.35061126947402954,0.8834730386734009,1.140357255935669
1751015587893415700,10.637415771484376,-0.3936588764190674,0.7850458025932312,1.026839256286621
1751015587903358700,10.647358642578125,-0.5640793442726135,0.5164018273353577,0.9427616596221924
1751015587913302800,10.657302734375,-0.7235369086265564,0.30157342553138733,0.9623864889144897
1751015587923245600,10.66724560546875,-0.7313271760940552,0.2505624294281006,1.1221604347229004
1751015587933188600,10.677188720703125,-0.6420231461524963,0.3374707102775574,1.3564802408218384
1751015587943131600,10.687131591796875,-0.529220461845398,0.47967100143432617,1.5788012742996216
1751015587953074700,10.69707470703125,-0.3918814957141876,0.6041420698165894,1.7336493730545044
1751015587963018800,10.707018798828125,-0.21946710348129272,0.7414783835411072,1.795238733291626
1751015587972961800,10.7169619140625,-0.06569166481494904,0.8858195543289185,1.7349681854248047
1751015587982904600,10.726904541015625,0.05830298736691475,0.9251453876495361,1.5527353286743164
1751015587992847600,10.73684765625,0.13132846355438232,0.8965571522712708,1.2547377347946167
1751015588002790700,10.746790771484376,0.17515237629413605,0.8459083437919617,0.9109632968902588
1751015588012733700,10.756733642578125,0.20956707000732422,0.7956188321113586,0.5764127373695374
1751015588022677800,10.766677734375,0.23987890779972076,0.7761801481246948,0.3141864240169525
1751015588032620500,10.77662060546875,0.2595572769641876,0.7784435749053955,0.16938529908657074
1751015588042563600,10.7865634765625,0.23796595633029938,0.8157118558883667,0.14069026708602905
1751015588052506600,10.796506591796875,0.13786599040031433,0.759350597858429,0.17528580129146576
1751015588062449700,10.80644970703125,-0.029466545209288597,0.6343750953674316,0.21779464185237885
1751015588072393700,10.816393798828125,-0.22520196437835693,0.4819035232067108,0.27675968408584595
1751015588082336800,10.826336669921876,-0.4162885546684265,0.29265397787094116,0.3510704040527344
1751015588092279600,10.836279541015625,-0.6269491314888,0.11661849170923233,0.40781649947166443
1751015588102222600,10.84622265625,-0.8476521968841553,-0.05549468472599983,0.4552825689315796
1751015588112165600,10.85616552734375,-1.0568501949310303,-0.2192106395959854,0.500088632106781
1751015588122109700,10.866109619140625,-1.2257965803146362,-0.31187745928764343,0.5450885891914368
1751015588132052700,10.876052734375,-1.3384053707122803,-0.32999947667121887,0.5683324337005615
1751015588141995800,10.885995849609374,-1.3877042531967163,-0.33985716104507446,0.5488609671592712
1751015588151938600,10.8959384765625,-1.376143455505371,-0.38148078322410583,0.484463632106781
1751015588161881600,10.905881591796875,-1.2989088296890259,-0.4195956885814667,0.40487638115882874
1751015588171825700,10.91582568359375,-1.1795518398284912,-0.39855775237083435,0.3235032260417938
1751015588181768700,10.925768798828125,-1.0895020961761475,-0.41745075583457947,0.2185312807559967
1751015588191711700,10.935711669921876,-1.0915197134017944,-0.5154929161071777,0.07528942823410034
1751015588201654800,10.94565478515625,-1.1435108184814453,-0.5893668532371521,-0.05666780471801758
1751015588211597600,10.95559765625,-1.2109920978546143,-0.6318355202674866,-0.14461922645568848
1751015588221541600,10.965541748046874,-1.3043017387390137,-0.6483747959136963,-0.17070835828781128
1751015588231484700,10.975484619140625,-1.4467734098434448,-0.6187891960144043,-0.1523546576499939
1751015588241427700,10.985427734375,-1.6398273706436157,-0.5775341987609863,-0.13494396209716797
1751015588251370800,10.995370849609374,-1.8468819856643677,-0.5662248134613037,-0.12479306757450104
1751015588261313800,11.005313720703125,-2.014413595199585,-0.5867079496383667,-0.08441847562789917
1751015588271256600,11.015256591796875,-2.162489175796509,-0.5831350684165955,-0.008801214396953583
1751015588281200600,11.02520068359375,-2.270573139190674,-0.5543808937072754,0.07208564132452011
1751015588291143700,11.035143798828125,-2.3064982891082764,-0.5211271047592163,0.16985641419887543
1751015588301086700,11.045086669921876,-2.299567222595215,-0.5065287351608276,0.26295945048332214
1751015588311029800,11.05502978515625,-2.296502113342285,-0.5497099757194519,0.34633371233940125
1751015588320973600,11.0649736328125,-2.3168699741363525,-0.6785483956336975,0.42873165011405945
1751015588330916600,11.07491650390625,-2.386350393295288,-0.8936316967010498,0.5085564255714417
1751015588340859600,11.084859619140625,-2.541586399078369,-1.0906832218170166,0.5884565711021423
1751015588350802700,11.094802734375,-2.7224135398864746,-1.1137800216674805,0.6340395212173462
1751015588360745700,11.104745849609374,-2.817584753036499,-0.9949801564216614,0.5805984139442444
1751015588370688800,11.114688720703125,-2.7830777168273926,-0.8706129193305969,0.39413532614707947
1751015588380632600,11.124632568359376,-2.6677746772766113,-0.8261895179748535,0.12116397172212601
1751015588390575600,11.13457568359375,-2.549536943435669,-0.8349646329879761,-0.1643143743276596
1751015588400518700,11.1445185546875,-2.4640557765960693,-0.8979241847991943,-0.3856249153614044
1751015588410461700,11.154461669921876,-2.4325079917907715,-1.0106168985366821,-0.5071476101875305
1751015588420404700,11.16440478515625,-2.4803247451782227,-1.1761621236801147,-0.5363308191299438
1751015588430348500,11.1743486328125,-2.6255056858062744,-1.3294899463653564,-0.504342257976532
1751015588440291600,11.18429150390625,-2.82389760017395,-1.4354560375213623,-0.47201040387153625
1751015588450234600,11.194234619140625,-2.98541259765625,-1.5255433320999146,-0.4248572885990143
1751015588460177700,11.204177734375,-3.099987745285034,-1.5387036800384521,-0.33525604009628296
1751015588470120400,11.214120361328124,-3.1747913360595703,-1.4661625623703003,-0.21415303647518158
1751015588480064500,11.224064453125,-3.2175087928771973,-1.34829580783844,-0.09085480868816376
1751015588490007300,11.23400732421875,-3.2246875762939453,-1.2412775754928589,-0.0028660940006375313
1751015588499950300,11.243950439453124,-3.1808087825775146,-1.149452805519104,0.02744920179247856
1751015588509893400,11.253893310546875,-3.0955023765563965,-1.0668349266052246,-0.0041284323669970036
1751015588519836400,11.26383642578125,-2.9787402153015137,-0.9991807341575623,-0.07299591600894928
1751015588529780500,11.273780517578125,-2.8565657138824463,-0.942997932434082,-0.16230475902557373
1751015588539723500,11.2837236328125,-2.7311723232269287,-0.9158269762992859,-0.21869559586048126
1751015588549666300,11.293666259765626,-2.6142544746398926,-0.8953113555908203,-0.20580562949180603
1751015588559609300,11.303609375,-2.5101795196533203,-0.8677060604095459,-0.1196020320057869
1751015588569552400,11.313552490234375,-2.436894178390503,-0.8618106245994568,0.0025507756508886814
1751015588579496400,11.323496337890624,-2.377951145172119,-0.9236002564430237,0.13146668672561646
1751015588589439500,11.333439453125,-2.3086023330688477,-1.029329538345337,0.2579694986343384
1751015588599382500,11.343382568359376,-2.235260248184204,-1.197488784790039,0.3720289468765259
1751015588609325300,11.3533251953125,-2.1991283893585205,-1.431967854499817,0.47350549697875977
1751015588619268400,11.363268310546875,-2.250331401824951,-1.6355031728744507,0.5844778418540955
1751015588629211400,11.37321142578125,-2.362478256225586,-1.712384819984436,0.740006685256958
1751015588639155500,11.383155517578125,-2.4540975093841553,-1.6838890314102173,0.9071565270423889
1751015588649098500,11.393098388671875,-2.5119431018829346,-1.6157288551330566,0.9911409616470337
1751015588659041300,11.403041259765626,-2.4955124855041504,-1.516912817955017,0.956754207611084
1751015588668984300,11.412984375,-2.3785481452941895,-1.3778183460235596,0.8039803504943848
1751015588678927400,11.42292724609375,-2.169104814529419,-1.2732820510864258,0.5414600372314453
1751015588688871400,11.432871337890624,-1.8910467624664307,-1.1985620260238647,0.21602976322174072
1751015588698814500,11.442814453125,-1.561822772026062,-1.117327332496643,-0.09996015578508377
1751015588708757500,11.452757568359376,-1.2411558628082275,-1.0349600315093994,-0.3554246723651886
1751015588718700300,11.4627001953125,-0.9673959016799927,-0.9569864273071289,-0.5221635699272156
1751015588728643300,11.472643310546875,-0.7658630609512329,-0.8705042600631714,-0.5823891162872314
1751015588738587400,11.48258740234375,-0.6769204139709473,-0.7068578004837036,-0.5755407810211182
1751015588748530400,11.492530517578125,-0.666857123374939,-0.5184647440910339,-0.5598862171173096
1751015588758473500,11.502473388671875,-0.6804152727127075,-0.382289856672287,-0.5597777962684631
1751015588768416500,11.51241650390625,-0.6827929615974426,-0.27121418714523315,-0.5584390163421631
1751015588778359300,11.522359375,-0.6445140242576599,-0.15932893753051758,-0.5436547994613647
1751015588788303400,11.532303466796876,-0.573311448097229,-0.03645095229148865,-0.49137505888938904
1751015588798246400,11.542246337890624,-0.4729805886745453,0.07331416010856628,-0.4094775319099426
1751015588808189400,11.552189453125,-0.33896368741989136,0.19294042885303497,-0.2925405204296112
1751015588818132500,11.562132568359376,-0.1437281370162964,0.3386715352535248,-0.13955576717853546
1751015588828075500,11.572075439453124,0.09827117621898651,0.4817621111869812,0.028970664367079735
1751015588838019300,11.582019287109375,0.3411194980144501,0.6053810119628906,0.19377852976322174
1751015588847962400,11.59196240234375,0.5100600719451904,0.7218782901763916,0.3247447907924652
1751015588857905400,11.601905517578125,0.5688035488128662,0.7946057915687561,0.36450818181037903
1751015588867848400,11.611848388671875,0.541998565196991,0.7708312273025513,0.31386443972587585
1751015588877791500,11.62179150390625,0.45872682332992554,0.7268163561820984,0.22101014852523804
1751015588887735300,11.6317353515625,0.3570108413696289,0.6813029050827026,0.10009410977363586
1751015588897678300,11.64167822265625,0.268981397151947,0.5755530595779419,-0.06013710796833038
1751015588907621400,11.651621337890624,0.2294108271598816,0.4041650593280792,-0.23091363906860352
1751015588917564400,11.661564453125,0.2299674153327942,0.1803215742111206,-0.3889131247997284
1751015588927507500,11.671507568359376,0.20242661237716675,-0.08563447743654251,-0.5282915234565735
1751015588937451300,11.681451171875,0.14301228523254395,-0.295170396566391,-0.6415799856185913
1751015588947394300,11.691394287109375,0.08510131388902664,-0.44186529517173767,-0.6953492164611816
1751015588957337300,11.70133740234375,0.060628458857536316,-0.5089012980461121,-0.6646443009376526
1751015588967280400,11.7112802734375,0.07633445411920547,-0.5257652401924133,-0.5604656934738159
1751015588977223400,11.721223388671875,0.12503089010715485,-0.5100797414779663,-0.4309298098087311
1751015588987166500,11.73116650390625,0.18740558624267578,-0.5114174485206604,-0.3104846477508545
1751015588997110300,11.7411103515625,0.24589818716049194,-0.5464686751365662,-0.21690940856933594
1751015589007053300,11.75105322265625,0.2685188055038452,-0.6246619820594788,-0.1606501340866089
1751015589016996400,11.760996337890624,0.243186816573143,-0.7386130690574646,-0.13062618672847748
1751015589026939400,11.770939453125,0.17540962994098663,-0.84056556224823,-0.11009321361780167
1751015589036882400,11.78088232421875,0.09264391660690308,-0.9083272814750671,-0.0753682553768158
1751015589046826200,11.790826171875,0.026920564472675323,-0.8993790745735168,-0.005415804218500853
1751015589056769300,11.800769287109375,-0.007250189781188965,-0.8172870874404907,0.11562806367874146
1751015589066712300,11.81071240234375,0.0013875069562345743,-0.6558814644813538,0.29656270146369934
1751015589076655400,11.8206552734375,0.062256716191768646,-0.43411684036254883,0.518094003200531
1751015589086598400,11.830598388671875,0.15121614933013916,-0.19269540905952454,0.7464696764945984
1751015589096542500,11.84054248046875,0.25994741916656494,0.04633580520749092,0.9468472599983215
1751015589106485200,11.8504853515625,0.37904372811317444,0.24451254308223724,1.0998152494430542
1751015589116428300,11.86042822265625,0.4903010129928589,0.3719879388809204,1.1967324018478394
1751015589126371300,11.870371337890624,0.5583024024963379,0.4431862235069275,1.2401344776153564
1751015589136314400,11.880314453125,0.5828557014465332,0.4765990376472473,1.2237437963485718
1751015589146258400,11.890258544921876,0.5791834592819214,0.45801788568496704,1.169480323791504
1751015589156201500,11.900201416015625,0.5407450199127197,0.39333024621009827,1.0767629146575928
1751015589166144300,11.910144287109375,0.4618786871433258,0.29101505875587463,0.9744120240211487
1751015589176087300,11.92008740234375,0.35200437903404236,0.15662263333797455,0.8796391487121582
1751015589186030300,11.9300302734375,0.22570742666721344,0.02539324015378952,0.815545380115509
1751015589195974400,11.939974365234375,0.10769902914762497,-0.08286771923303604,0.7829320430755615
1751015589205917400,11.94991748046875,-0.0006982808117754757,-0.17407645285129547,0.7824931740760803
1751015589215860500,11.959860595703125,-0.060691844671964645,-0.2681283950805664,0.8080398440361023
1751015589225803300,11.96980322265625,-0.0625603199005127,-0.4094359874725342,0.86111980676651
1751015589235746300,11.979746337890624,-0.03268897160887718,-0.5703670978546143,0.9170587062835693
1751015589245690400,11.9896904296875,-0.018989669159054756,-0.7074471712112427,0.9436682462692261
1751015589255633400,11.99963330078125,-0.04380633682012558,-0.8086339831352234,0.9086966514587402
1751015589265576400,12.009576416015625,-0.09489615261554718,-0.8905211091041565,0.7993403673171997
1751015589275519500,12.01951953125,-0.16744332015514374,-0.9473066329956055,0.6223964691162109
1751015589285462300,12.029462158203126,-0.283515602350235,-0.999643087387085,0.3983345925807953
1751015589295406300,12.03940625,-0.4470776319503784,-1.0432312488555908,0.15439942479133606
1751015589305349400,12.049349365234375,-0.6300639510154724,-0.9344760775566101,-0.03538142517209053
1751015589315292400,12.05929248046875,-0.7143679261207581,-0.624039351940155,-0.14345090091228485
1751015589325235500,12.0692353515625,-0.6641840934753418,-0.28290680050849915,-0.22675032913684845
1751015589335178500,12.079178466796876,-0.5070539116859436,-0.0007084008539095521,-0.3323681056499481
1751015589345122600,12.08912255859375,-0.29056817293167114,0.215147465467453,-0.44584351778030396
1751015589355065300,12.0990654296875,-0.06730633974075317,0.34829404950141907,-0.5353683233261108
1751015589365008400,12.10900830078125,0.10845110565423965,0.4269324243068695,-0.5732161402702332
1751015589374951400,12.118951416015625,0.23025770485401154,0.4959026873111725,-0.5603528022766113
1751015589384894500,12.12889453125,0.29912278056144714,0.5476273894309998,-0.5109943151473999
1751015589394838500,12.138838623046874,0.32007095217704773,0.5633181929588318,-0.44897887110710144
1751015589404781300,12.14878125,0.30574554204940796,0.5333632230758667,-0.3818051517009735
1751015589414724400,12.158724365234375,0.26972949504852295,0.47301122546195984,-0.3132375478744507
1751015589424667400,12.16866748046875,0.2281080037355423,0.41210445761680603,-0.24553066492080688
1751015589434610400,12.1786103515625,0.198449969291687,0.3434116840362549,-0.1903313249349594
1751015589444553500,12.188553466796876,0.1882641762495041,0.2273266315460205,-0.14484107494354248
1751015589454497500,12.19849755859375,0.20779819786548615,0.11288953572511673,-0.07971134036779404
1751015589464440300,12.2084404296875,0.24589285254478455,0.042451586574316025,0.023311447352170944
1751015589474383000,12.218383056640626,0.2779088616371155,0.02690272033214569,0.1410258263349533
1751015589484326100,12.228326171875,0.29122596979141235,0.03382241353392601,0.2564869225025177
1751015589494270200,12.238270263671875,0.2922497093677521,0.02936055138707161,0.331820011138916
1751015589504213000,12.248212890625,0.281158983707428,-0.0032794165890663862,0.3347359001636505
1751015589514156000,12.258156005859375,0.23672066628932953,-0.058334946632385254,0.262999951839447
1751015589524099000,12.26809912109375,0.14273850619792938,-0.10058359801769257,0.13591735064983368
1751015589534042000,12.2780419921875,0.009998838417232037,-0.10621564835309982,-0.029452696442604065
1751015589543985200,12.287985107421875,-0.13726837933063507,-0.08873918652534485,-0.21090105175971985
1751015589553929200,12.29792919921875,-0.260911226272583,-0.04304653778672218,-0.40339380502700806
1751015589563872000,12.3078720703125,-0.3289563059806824,0.01589321345090866,-0.5680719614028931
1751015589573815000,12.31781494140625,-0.3359591066837311,0.082170769572258,-0.6882234215736389
1751015589583758000,12.327758056640626,-0.3113211393356323,0.11190496385097504,-0.7728314995765686
1751015589593701000,12.337701171875,-0.28109052777290344,0.09019167721271515,-0.8103448152542114
