time,seconds_elapsed,z,y,x
1751013682969422800,0.1184228515625,-0.9945526123046875,-0.24334716796875,-0.0202789306640625
1751013682979367000,0.128366943359375,-1.00201416015625,-0.23455810546875,-0.005889892578125
1751013682989310000,0.13831005859375,-1.00921630859375,-0.225830078125,0.00970458984375
1751013682999254000,0.14825390625,-1.012939453125,-0.22100830078125,0.0172576904296875
1751013683009197000,0.158197021484375,-1.012115478515625,-0.22308349609375,0.0189056396484375
1751013683019140900,0.168140869140625,-1.00830078125,-0.226348876953125,0.017822265625
1751013683029084000,0.178083984375,-0.9980010986328125,-0.2284393310546875,0.013580322265625
1751013683039027000,0.18802685546875,-0.98687744140625,-0.2285003662109375,0.0105438232421875
1751013683048971000,0.197970947265625,-0.9832611083984375,-0.2324066162109375,0.0108642578125
1751013683058914000,0.2079140625,-0.9767303466796875,-0.2397613525390625,0.0104827880859375
1751013683068857900,0.21785791015625,-0.96826171875,-0.24322509765625,0.0095062255859375
1751013683078801000,0.22780078125,-0.96307373046875,-0.243896484375,0.0118255615234375
1751013683088745000,0.237744873046875,-0.9606475830078125,-0.2441253662109375,0.0154571533203125
1751013683098688000,0.24768798828125,-0.9596099853515625,-0.24383544921875,0.019775390625
1751013683108630800,0.257630859375,-0.9637451171875,-0.2431182861328125,0.0179595947265625
1751013683118574800,0.267574951171875,-0.9706573486328125,-0.2430419921875,0.0243682861328125
1751013683128518000,0.277517822265625,-0.97039794921875,-0.2433319091796875,0.0316009521484375
1751013683138462000,0.2874619140625,-0.9640045166015625,-0.244659423828125,0.03375244140625
1751013683148404700,0.29740478515625,-0.95989990234375,-0.2450714111328125,0.033355712890625
1751013683158347800,0.30734765625,-0.9613494873046875,-0.244415283203125,0.0322265625
1751013683168291800,0.317291748046875,-0.9604949951171875,-0.24652099609375,0.0293121337890625
1751013683178235000,0.32723486328125,-0.9625244140625,-0.2483673095703125,0.02886962890625
1751013683188179000,0.337178955078125,-0.9677886962890625,-0.249664306640625,0.0279693603515625
1751013683198122000,0.3471220703125,-0.9691162109375,-0.2517242431640625,0.0251617431640625
1751013683208066000,0.357066162109375,-0.9759368896484375,-0.2533111572265625,0.0213165283203125
1751013683218009000,0.367009033203125,-0.9825286865234375,-0.2543792724609375,0.019195556640625
1751013683227952000,0.3769521484375,-0.9859161376953125,-0.2551727294921875,0.0197296142578125
1751013683237896000,0.38689599609375,-0.989227294921875,-0.25299072265625,0.01715087890625
1751013683247839000,0.3968388671875,-0.9935455322265625,-0.2493896484375,0.0170440673828125
1751013683257783000,0.406782958984375,-0.99609375,-0.2486572265625,0.0166778564453125
1751013683267725800,0.416725830078125,-0.997406005859375,-0.2494354248046875,0.0153961181640625
1751013683277670000,0.426669921875,-0.99798583984375,-0.2524566650390625,0.0128173828125
1751013683287613000,0.436613037109375,-0.99896240234375,-0.253814697265625,0.0120086669921875
1751013683297556000,0.446555908203125,-0.999114990234375,-0.2526702880859375,0.016632080078125
1751013683307499800,0.456499755859375,-0.9986724853515625,-0.251617431640625,0.01849365234375
1751013683317442800,0.46644287109375,-0.9971771240234375,-0.2507171630859375,0.015045166015625
1751013683327387000,0.476386962890625,-0.997039794921875,-0.2512054443359375,0.0109405517578125
1751013683337330000,0.486329833984375,-0.997222900390625,-0.2545013427734375,0.0118408203125
1751013683347273700,0.496273681640625,-0.992889404296875,-0.255035400390625,0.0132904052734375
1751013683357216800,0.506216796875,-0.989715576171875,-0.2560577392578125,0.01226806640625
1751013683367159800,0.516159912109375,-0.991119384765625,-0.25689697265625,0.0102996826171875
1751013683377104000,0.526103759765625,-0.9889678955078125,-0.257049560546875,0.0106964111328125
1751013683387047000,0.536046875,-0.9860076904296875,-0.2573699951171875,0.0108184814453125
1751013683396991000,0.545990966796875,-0.9835205078125,-0.2578277587890625,0.0099945068359375
1751013683406934000,0.55593408203125,-0.9815216064453125,-0.257354736328125,0.013275146484375
1751013683416878000,0.565878173828125,-0.981048583984375,-0.2552642822265625,0.01629638671875
1751013683426821000,0.575821044921875,-0.9774017333984375,-0.2550811767578125,0.0168304443359375
1751013683436764000,0.585763916015625,-0.978118896484375,-0.2558135986328125,0.017364501953125
1751013683446708000,0.5957080078125,-0.9808349609375,-0.2557830810546875,0.0182952880859375
1751013683456651000,0.605651123046875,-0.97991943359375,-0.258758544921875,0.0205841064453125
1751013683466594800,0.6155947265625,-0.975067138671875,-0.263427734375,0.0210113525390625
1751013683476537900,0.625537841796875,-0.9704132080078125,-0.2638397216796875,0.021270751953125
1751013683486481000,0.63548095703125,-0.9691925048828125,-0.2620697021484375,0.0258941650390625
1751013683496425000,0.645425048828125,-0.9710235595703125,-0.2606353759765625,0.027008056640625
1751013683506368000,0.655367919921875,-0.973175048828125,-0.2601470947265625,0.026458740234375
1751013683516311800,0.665311767578125,-0.9778289794921875,-0.2576904296875,0.0281982421875
1751013683526254800,0.6752548828125,-0.9806365966796875,-0.254486083984375,0.028594970703125
1751013683536199000,0.685198974609375,-0.9831085205078125,-0.2543182373046875,0.0250701904296875
1751013683546142000,0.695141845703125,-0.9853057861328125,-0.2534027099609375,0.0211181640625
1751013683556085000,0.7050849609375,-0.985107421875,-0.2528533935546875,0.0189208984375
1751013683566028800,0.71502880859375,-0.9831085205078125,-0.254180908203125,0.0197296142578125
1751013683575971800,0.724971923828125,-0.9801177978515625,-0.2574310302734375,0.021453857421875
1751013683585911600,0.73491162109375,-0.9781036376953125,-0.2593536376953125,0.0219268798828125
1751013683595854600,0.7448544921875,-0.974761962890625,-0.2611083984375,0.0186767578125
1751013683605798700,0.754798583984375,-0.9768524169921875,-0.2616119384765625,0.0153350830078125
1751013683615741700,0.76474169921875,-0.979278564453125,-0.2609710693359375,0.013641357421875
1751013683625684700,0.774684814453125,-0.9811859130859375,-0.260223388671875,0.0137176513671875
1751013683635628800,0.78462890625,-0.982177734375,-0.2613372802734375,0.0166015625
1751013683645571600,0.794571533203125,-0.9842987060546875,-0.2611541748046875,0.0196075439453125
1751013683655515600,0.804515625,-0.9847869873046875,-0.2633819580078125,0.02020263671875
1751013683665458700,0.814458740234375,-0.9819793701171875,-0.264251708984375,0.0202789306640625
1751013683675402800,0.82440283203125,-0.9803466796875,-0.261505126953125,0.022308349609375
1751013683685345500,0.834345458984375,-0.98004150390625,-0.2600555419921875,0.0225677490234375
1751013683695288600,0.84428857421875,-0.97723388671875,-0.261383056640625,0.0215606689453125
1751013683705232600,0.854232666015625,-0.97503662109375,-0.2628631591796875,0.02105712890625
1751013683715175700,0.86417578125,-0.9773101806640625,-0.2624359130859375,0.0236968994140625
1751013683725119500,0.874119384765625,-0.9773712158203125,-0.263275146484375,0.0217437744140625
1751013683735062500,0.8840625,-0.9799041748046875,-0.263031005859375,0.0204315185546875
1751013683745005600,0.894005615234375,-0.9837646484375,-0.262725830078125,0.020843505859375
1751013683754949600,0.90394970703125,-0.9855804443359375,-0.2614898681640625,0.0225830078125
1751013683764892700,0.913892578125,-0.9852447509765625,-0.2610015869140625,0.023712158203125
1751013683774836500,0.92383642578125,-0.9852447509765625,-0.261077880859375,0.02288818359375
1751013683784779500,0.933779541015625,-0.9836578369140625,-0.2625579833984375,0.0212860107421875
1751013683794723600,0.9437236328125,-0.98382568359375,-0.2638092041015625,0.0214385986328125
1751013683804666600,0.95366650390625,-0.9852447509765625,-0.263397216796875,0.018402099609375
1751013683814609400,0.963609375,-0.9848480224609375,-0.262481689453125,0.0176544189453125
1751013683824553700,0.9735537109375,-0.9812469482421875,-0.26190185546875,0.0201568603515625
1751013683834496800,0.983496826171875,-0.97601318359375,-0.261871337890625,0.023162841796875
1751013683844440600,0.993440673828125,-0.9751434326171875,-0.2626495361328125,0.025238037109375
1751013683854383600,1.003383544921875,-0.976226806640625,-0.2626800537109375,0.0261688232421875
1751013683864327700,1.01332763671875,-0.9795989990234375,-0.2635650634765625,0.024932861328125
1751013683874270700,1.023270751953125,-0.9810638427734375,-0.2650909423828125,0.02215576171875
1751013683884213800,1.0332138671875,-0.9813385009765625,-0.2637786865234375,0.021636962890625
1751013683894157600,1.043157470703125,-0.9801177978515625,-0.2637176513671875,0.022186279296875
1751013683904100600,1.0531005859375,-0.9771575927734375,-0.266754150390625,0.021148681640625
1751013683914044700,1.063044677734375,-0.9730682373046875,-0.2698211669921875,0.0201568603515625
1751013683923987700,1.07298779296875,-0.9716796875,-0.27191162109375,0.020233154296875
1751013683933931500,1.082931640625,-0.97125244140625,-0.274139404296875,0.019378662109375
1751013683943874600,1.09287451171875,-0.9715118408203125,-0.27484130859375,0.0211029052734375
1751013683953817600,1.102817626953125,-0.972564697265625,-0.2749176025390625,0.0241241455078125
1751013683963761700,1.11276171875,-0.976837158203125,-0.2741546630859375,0.0263671875
1751013683973704700,1.12270458984375,-0.977203369140625,-0.273406982421875,0.0284576416015625
1751013683983648500,1.1326484375,-0.978790283203125,-0.27203369140625,0.0296478271484375
1751013683993591600,1.142591552734375,-0.98297119140625,-0.270263671875,0.0320587158203125
1751013684003535600,1.15253564453125,-0.98504638671875,-0.27099609375,0.031982421875
1751013684013478400,1.162478515625,-0.985626220703125,-0.2683563232421875,0.0299072265625
1751013684023421400,1.17242138671875,-0.9822998046875,-0.2680206298828125,0.0284423828125
1751013684033365800,1.18236572265625,-0.980865478515625,-0.2707366943359375,0.0284576416015625
1751013684043308800,1.192308837890625,-0.9738922119140625,-0.2724609375,0.0255584716796875
1751013684053252600,1.202252685546875,-0.96759033203125,-0.2718963623046875,0.02301025390625
1751013684063195600,1.212195556640625,-0.9649200439453125,-0.2712860107421875,0.020263671875
1751013684073139700,1.2221396484375,-0.9664459228515625,-0.2726593017578125,0.0192108154296875
1751013684083082800,1.232082763671875,-0.9676361083984375,-0.27252197265625,0.0186309814453125
1751013684093025800,1.24202587890625,-0.9669189453125,-0.271484375,0.02069091796875
1751013684102969600,1.251969482421875,-0.9673004150390625,-0.27227783203125,0.0203704833984375
1751013684112912600,1.26191259765625,-0.9691162109375,-0.272674560546875,0.0193023681640625
1751013684122856700,1.271856689453125,-0.9688873291015625,-0.27294921875,0.019073486328125
1751013684132799700,1.2817998046875,-0.97076416015625,-0.2734222412109375,0.017913818359375
1751013684142743600,1.29174365234375,-0.9714813232421875,-0.2734832763671875,0.017822265625
1751013684152686600,1.3016865234375,-0.974365234375,-0.2743682861328125,0.018890380859375
1751013684162629600,1.311629638671875,-0.9761505126953125,-0.273773193359375,0.0199432373046875
1751013684172573400,1.321573486328125,-0.9747467041015625,-0.2756805419921875,0.016937255859375
1751013684182516500,1.3315166015625,-0.976287841796875,-0.276458740234375,0.015106201171875
1751013684192460500,1.34146044921875,-0.97625732421875,-0.277801513671875,0.0135955810546875
1751013684202403600,1.351403564453125,-0.978729248046875,-0.278594970703125,0.0133056640625
1751013684212347400,1.361347412109375,-0.9824066162109375,-0.277618408203125,0.014404296875
1751013684222290400,1.37129052734375,-0.9817352294921875,-0.2766265869140625,0.014892578125
1751013684232233500,1.3812333984375,-0.98150634765625,-0.2772216796875,0.01788330078125
1751013684242177800,1.391177734375,-0.9827117919921875,-0.2763671875,0.021453857421875
1751013684252120800,1.401120849609375,-0.9781494140625,-0.277679443359375,0.0250396728515625
1751013684262064600,1.411064697265625,-0.9732666015625,-0.2766571044921875,0.0250244140625
1751013684272007700,1.421007568359375,-0.9742584228515625,-0.274932861328125,0.0248565673828125
1751013684281951700,1.43095166015625,-0.9759979248046875,-0.2734832763671875,0.0244903564453125
1751013684291894800,1.440894775390625,-0.9776458740234375,-0.2715911865234375,0.0246124267578125
1751013684301837600,1.450837646484375,-0.9786376953125,-0.2709808349609375,0.023345947265625
1751013684311781600,1.46078173828125,-0.97882080078125,-0.2728118896484375,0.0204925537109375
1751013684321724700,1.470724609375,-0.977081298828125,-0.272796630859375,0.01849365234375
1751013684331668700,1.480668701171875,-0.9754638671875,-0.2746124267578125,0.0157318115234375
1751013684341611500,1.490611572265625,-0.973114013671875,-0.277496337890625,0.0175628662109375
1751013684351555600,1.5005556640625,-0.96868896484375,-0.27679443359375,0.01812744140625
1751013684361498600,1.51049853515625,-0.9677581787109375,-0.2771759033203125,0.0162506103515625
1751013684371441700,1.520441650390625,-0.9688568115234375,-0.277191162109375,0.0145721435546875
1751013684381385500,1.530385498046875,-0.9678497314453125,-0.277862548828125,0.01531982421875
1751013684391328500,1.54032861328125,-0.96649169921875,-0.2770538330078125,0.0159912109375
1751013684401272600,1.5502724609375,-0.965179443359375,-0.2762451171875,0.0184173583984375
1751013684411215600,1.560215576171875,-0.9629974365234375,-0.2763519287109375,0.019287109375
1751013684421159400,1.570159423828125,-0.9661102294921875,-0.2752838134765625,0.0227508544921875
1751013684431102500,1.5801025390625,-0.969512939453125,-0.276092529296875,0.0210723876953125
1751013684441045500,1.59004541015625,-0.96826171875,-0.2759552001953125,0.0176239013671875
1751013684450989800,1.59998974609375,-0.9708251953125,-0.275604248046875,0.01654052734375
1751013684460932600,1.6099326171875,-0.972137451171875,-0.27655029296875,0.0167999267578125
1751013684470876700,1.619876708984375,-0.9727630615234375,-0.277679443359375,0.0164337158203125
1751013684480819700,1.62981982421875,-0.973602294921875,-0.2777557373046875,0.0162811279296875
1751013684490762800,1.6397626953125,-0.975372314453125,-0.277740478515625,0.0167694091796875
1751013684500706600,1.64970654296875,-0.976776123046875,-0.278961181640625,0.01611328125
1751013684510649600,1.659649658203125,-0.9764251708984375,-0.279937744140625,0.0147552490234375
1751013684520593700,1.66959375,-0.9765167236328125,-0.280792236328125,0.01446533203125
1751013684530536700,1.67953662109375,-0.975677490234375,-0.27862548828125,0.017669677734375
1751013684540480500,1.68948046875,-0.97222900390625,-0.2764129638671875,0.0198822021484375
1751013684550423600,1.699423583984375,-0.9693450927734375,-0.277252197265625,0.019287109375
1751013684560367600,1.70936767578125,-0.9709014892578125,-0.27801513671875,0.01678466796875
1751013684570310700,1.719310546875,-0.972808837890625,-0.279022216796875,0.015838623046875
1751013684580253700,1.729253662109375,-0.9696807861328125,-0.279693603515625,0.0186614990234375
1751013684590197500,1.739197509765625,-0.9658050537109375,-0.281036376953125,0.02105712890625
1751013684600140500,1.749140625,-0.967529296875,-0.27960205078125,0.0253448486328125
1751013684610084600,1.759084716796875,-0.968231201171875,-0.27935791015625,0.0254669189453125
1751013684620027600,1.769027587890625,-0.969329833984375,-0.2814178466796875,0.022735595703125
1751013684629970400,1.778970458984375,-0.9727935791015625,-0.28369140625,0.0200958251953125
1751013684639914500,1.78891455078125,-0.97259521484375,-0.2865447998046875,0.01812744140625
1751013684649857500,1.798857421875,-0.9704132080078125,-0.2871856689453125,0.0176544189453125
1751013684659801600,1.808801513671875,-0.972412109375,-0.2856292724609375,0.017303466796875
1751013684669744400,1.818744384765625,-0.9709625244140625,-0.287384033203125,0.0159149169921875
1751013684679688400,1.8286884765625,-0.9675140380859375,-0.2898101806640625,0.016265869140625
1751013684689631500,1.838631591796875,-0.969146728515625,-0.2899322509765625,0.0188751220703125
1751013684699574500,1.848574462890625,-0.9734954833984375,-0.286956787109375,0.0221405029296875
1751013684709518300,1.858518310546875,-0.97705078125,-0.2849578857421875,0.0223236083984375
1751013684719461400,1.86846142578125,-0.9827423095703125,-0.2841033935546875,0.0206451416015625
1751013684729405400,1.878405517578125,-0.9882965087890625,-0.28271484375,0.017547607421875
1751013684739348500,1.888348388671875,-0.9859161376953125,-0.2822723388671875,0.01751708984375
1751013684749292500,1.89829248046875,-0.9824981689453125,-0.2823638916015625,0.0179443359375
1751013684759235300,1.9082353515625,-0.982269287109375,-0.2838134765625,0.016693115234375
1751013684769178400,1.918178466796875,-0.9789886474609375,-0.2813873291015625,0.015350341796875
1751013684779122700,1.928122802734375,-0.9754486083984375,-0.279388427734375,0.016387939453125
1751013684789065500,1.9380654296875,-0.9728851318359375,-0.2783203125,0.0167999267578125
1751013684799009500,1.948009521484375,-0.974884033203125,-0.279327392578125,0.0146026611328125
1751013684808952600,1.95795263671875,-0.97369384765625,-0.2805023193359375,0.013275146484375
1751013684818896600,1.967896728515625,-0.9673919677734375,-0.2799835205078125,0.0128936767578125
1751013684828839400,1.97783935546875,-0.965911865234375,-0.2786407470703125,0.0113067626953125
1751013684838782500,1.987782470703125,-0.9666900634765625,-0.2789764404296875,0.0079345703125
1751013684848726500,1.9977265625,-0.9651947021484375,-0.281402587890625,0.00823974609375
1751013684858669600,2.007669677734375,-0.9651336669921875,-0.2782135009765625,0.0098419189453125
1751013684868613400,2.01761328125,-0.967926025390625,-0.2757415771484375,0.0146942138671875
1751013684878556400,2.027556396484375,-0.968353271484375,-0.275909423828125,0.016693115234375
1751013684888500500,2.03750048828125,-0.9708404541015625,-0.27545166015625,0.0182037353515625
1751013684898443500,2.047443603515625,-0.9698333740234375,-0.2756805419921875,0.018157958984375
1751013684908386600,2.057386474609375,-0.9694671630859375,-0.2779998779296875,0.0172576904296875
1751013684918330400,2.067330322265625,-0.9682159423828125,-0.2790374755859375,0.0162200927734375
1751013684928273400,2.0772734375,-0.96746826171875,-0.2800750732421875,0.01708984375
1751013684938217500,2.087217529296875,-0.9643402099609375,-0.2814788818359375,0.0156402587890625
1751013684948160500,2.097160400390625,-0.967071533203125,-0.2809600830078125,0.015472412109375
1751013684958104600,2.1071044921875,-0.9730987548828125,-0.278961181640625,0.016357421875
1751013684968047400,2.11704736328125,-0.977935791015625,-0.277984619140625,0.0151519775390625
1751013684977990400,2.126990478515625,-0.9822998046875,-0.276885986328125,0.016143798828125
1751013684987934500,2.1369345703125,-0.9852142333984375,-0.2743377685546875,0.0182342529296875
1751013684997877500,2.14687744140625,-0.9843902587890625,-0.2733612060546875,0.0183868408203125
1751013685007821600,2.156821533203125,-0.98248291015625,-0.273162841796875,0.021331787109375
1751013685017764600,2.1667646484375,-0.9821624755859375,-0.2718505859375,0.020965576171875
1751013685027708400,2.17670849609375,-0.97772216796875,-0.2716522216796875,0.017120361328125
1751013685037651500,2.1866513671875,-0.975494384765625,-0.2718505859375,0.016815185546875
1751013685047594500,2.196594482421875,-0.97412109375,-0.2740631103515625,0.0161895751953125
1751013685057538600,2.20653857421875,-0.9718170166015625,-0.2750396728515625,0.0186004638671875
1751013685067481600,2.216481689453125,-0.9694366455078125,-0.27349853515625,0.01873779296875
1751013685077425400,2.22642529296875,-0.967926025390625,-0.2720794677734375,0.0185699462890625
1751013685087368400,2.236368408203125,-0.9721221923828125,-0.2699127197265625,0.0172271728515625
1751013685097312500,2.2463125,-0.975677490234375,-0.268218994140625,0.0175628662109375
1751013685107255600,2.256255615234375,-0.9756622314453125,-0.266510009765625,0.0213775634765625
1751013685117198600,2.266198486328125,-0.9730987548828125,-0.2635040283203125,0.0254058837890625
1751013685127142400,2.276142333984375,-0.9713287353515625,-0.26275634765625,0.025115966796875
1751013685137085400,2.28608544921875,-0.9705352783203125,-0.263336181640625,0.0232696533203125
1751013685147029500,2.296029541015625,-0.97265625,-0.26397705078125,0.02117919921875
1751013685156972300,2.30597216796875,-0.97412109375,-0.26531982421875,0.0184783935546875
1751013685166916600,2.31591650390625,-0.974456787109375,-0.26605224609375,0.017059326171875
1751013685176859400,2.325859375,-0.9743804931640625,-0.2686309814453125,0.0163726806640625
1751013685186802400,2.335802490234375,-0.9723663330078125,-0.2709197998046875,0.016815185546875
1751013685196746500,2.34574658203125,-0.971343994140625,-0.27264404296875,0.017730712890625
1751013685206689500,2.355689453125,-0.972320556640625,-0.2720489501953125,0.0204315185546875
1751013685216633600,2.365633544921875,-0.972320556640625,-0.270904541015625,0.0236968994140625
1751013685226576600,2.37557666015625,-0.974334716796875,-0.26873779296875,0.023834228515625
1751013685236520400,2.3855205078125,-0.9779205322265625,-0.2679443359375,0.0227508544921875
1751013685246463500,2.39546337890625,-0.98480224609375,-0.268402099609375,0.0215606689453125
1751013685256406500,2.405406494140625,-0.98626708984375,-0.2697601318359375,0.0229949951171875
1751013685266350600,2.4153505859375,-0.9850006103515625,-0.2701263427734375,0.0213165283203125
1751013685276293600,2.425293701171875,-0.9846649169921875,-0.2686920166015625,0.02056884765625
1751013685286237400,2.435237548828125,-0.9822998046875,-0.2691497802734375,0.0208587646484375
1751013685296180500,2.445180419921875,-0.982574462890625,-0.2685089111328125,0.0222320556640625
1751013685306124500,2.45512451171875,-0.982635498046875,-0.26959228515625,0.0222930908203125
1751013685316067600,2.465067626953125,-0.9820709228515625,-0.2717132568359375,0.0211029052734375
1751013685326010400,2.47501025390625,-0.977081298828125,-0.2737884521484375,0.0182037353515625
1751013685335954400,2.484954345703125,-0.9760589599609375,-0.273712158203125,0.018341064453125
1751013685345897500,2.4948974609375,-0.975372314453125,-0.2732696533203125,0.0223846435546875
1751013685355841300,2.50484130859375,-0.97509765625,-0.273345947265625,0.02630615234375
1751013685365784300,2.514784423828125,-0.9771575927734375,-0.271881103515625,0.02886962890625
1751013685375728600,2.524728759765625,-0.98077392578125,-0.269622802734375,0.0301055908203125
1751013685385671400,2.53467138671875,-0.980224609375,-0.268646240234375,0.028350830078125
1751013685395614500,2.544614501953125,-0.9788665771484375,-0.2706756591796875,0.02593994140625
1751013685405558500,2.55455859375,-0.9763946533203125,-0.270965576171875,0.02398681640625
1751013685415501600,2.56450146484375,-0.9682159423828125,-0.27166748046875,0.0216522216796875
1751013685425445600,2.574445556640625,-0.9588470458984375,-0.271942138671875,0.02178955078125
1751013685435388700,2.584388671875,-0.951629638671875,-0.27313232421875,0.0209808349609375
1751013685445332500,2.59433251953125,-0.9474334716796875,-0.2733612060546875,0.0207672119140625
1751013685455275500,2.604275634765625,-0.9492340087890625,-0.2705841064453125,0.02069091796875
1751013685465218600,2.614218505859375,-0.959808349609375,-0.26617431640625,0.0230255126953125
1751013685475162600,2.62416259765625,-0.9772186279296875,-0.261016845703125,0.024139404296875
1751013685485105400,2.63410546875,-0.988250732421875,-0.2578125,0.027191162109375
1751013685495049500,2.644049560546875,-0.990631103515625,-0.257415771484375,0.0281219482421875
1751013685504992500,2.653992431640625,-0.99212646484375,-0.2541656494140625,0.0255279541015625
1751013685514936300,2.663936279296875,-0.9956512451171875,-0.2523040771484375,0.020904541015625
1751013685524879400,2.67387939453125,-0.9999237060546875,-0.254119873046875,0.0151519775390625
1751013685534822400,2.683822509765625,-1.0013580322265625,-0.256439208984375,0.0106964111328125
1751013685544766500,2.693766357421875,-0.999237060546875,-0.2586212158203125,0.0101318359375
1751013685554709500,2.70370947265625,-0.990142822265625,-0.2613067626953125,0.011932373046875
1751013685564653300,2.7136533203125,-0.984954833984375,-0.2629241943359375,0.01214599609375
1751013685574596400,2.723596435546875,-0.9781036376953125,-0.26434326171875,0.01348876953125
1751013685584544300,2.733544189453125,-0.974884033203125,-0.265716552734375,0.017425537109375
1751013685594487300,2.7434873046875,-0.9727020263671875,-0.26519775390625,0.0180511474609375
1751013685604430000,2.75343017578125,-0.9704437255859375,-0.2635498046875,0.0173492431640625
1751013685614374100,2.7633740234375,-0.971588134765625,-0.2625885009765625,0.0199737548828125
1751013685624317200,2.773317138671875,-0.9734954833984375,-0.263519287109375,0.021575927734375
1751013685634261200,2.78326123046875,-0.9744873046875,-0.2652130126953125,0.0219268798828125
1751013685644204000,2.7932041015625,-0.974853515625,-0.264678955078125,0.0240325927734375
1751013685654148000,2.803148193359375,-0.9759674072265625,-0.2619476318359375,0.0235748291015625
1751013685664091100,2.813091064453125,-0.9744110107421875,-0.262359619140625,0.0215606689453125
1751013685674034200,2.8230341796875,-0.9747772216796875,-0.2635345458984375,0.0214691162109375
1751013685683978000,2.83297802734375,-0.9776153564453125,-0.2616729736328125,0.0241241455078125
1751013685693921000,2.842921142578125,-0.976776123046875,-0.2598876953125,0.0272064208984375
1751013685703865000,2.852864990234375,-0.9775543212890625,-0.2606964111328125,0.02886962890625
1751013685713808100,2.86280810546875,-0.98272705078125,-0.25958251953125,0.0298919677734375
1751013685723752000,2.872751953125,-0.985748291015625,-0.2598419189453125,0.030426025390625
1751013685733695000,2.882695068359375,-0.98834228515625,-0.2585601806640625,0.029022216796875
1751013685743638000,2.892637939453125,-0.989837646484375,-0.2577972412109375,0.024932861328125
1751013685753582300,2.902582275390625,-0.9936981201171875,-0.258087158203125,0.0247955322265625
1751013685763525000,2.912525146484375,-0.99395751953125,-0.2575225830078125,0.026458740234375
1751013685773469200,2.92246923828125,-0.9914093017578125,-0.258209228515625,0.0256805419921875
1751013685783412200,2.932412109375,-0.9878387451171875,-0.258453369140625,0.024658203125
1751013685793356300,2.942356201171875,-0.985076904296875,-0.259033203125,0.0242919921875
1751013685803299000,2.952299072265625,-0.9810791015625,-0.2596282958984375,0.0226898193359375
1751013685813242000,2.9622421875,-0.97882080078125,-0.26007080078125,0.0219879150390625
1751013685823186200,2.972186279296875,-0.9798431396484375,-0.2605438232421875,0.024139404296875
1751013685833129200,2.982129150390625,-0.98052978515625,-0.2616119384765625,0.0264434814453125
1751013685843073000,2.992072998046875,-0.97796630859375,-0.262542724609375,0.028106689453125
1751013685853016000,3.00201611328125,-0.9780120849609375,-0.262176513671875,0.02716064453125
1751013685862960000,3.011960205078125,-0.977294921875,-0.2623443603515625,0.025054931640625
1751013685872903200,3.021903076171875,-0.9779815673828125,-0.261077880859375,0.0257720947265625
1751013685882846200,3.03184619140625,-0.9736480712890625,-0.2618255615234375,0.02374267578125
1751013685892790000,3.0417900390625,-0.9719696044921875,-0.2642364501953125,0.0190887451171875
1751013685902733000,3.051733154296875,-0.9745025634765625,-0.2645416259765625,0.0139312744140625
1751013685912677000,3.061677001953125,-0.9761962890625,-0.2645263671875,0.0123748779296875
1751013685922620200,3.0716201171875,-0.9764556884765625,-0.26593017578125,0.013916015625
1751013685932564000,3.08156396484375,-0.9744415283203125,-0.2671966552734375,0.01318359375
1751013685942507000,3.091507080078125,-0.969268798828125,-0.265838623046875,0.01275634765625
1751013685952450000,3.101449951171875,-0.9669342041015625,-0.261138916015625,0.0209503173828125
1751013685962394000,3.11139404296875,-0.9692535400390625,-0.262725830078125,0.021087646484375
1751013685972337000,3.1213369140625,-0.973541259765625,-0.2665557861328125,0.02191162109375
1751013685982281200,3.13128125,-0.967254638671875,-0.2668914794921875,0.0205841064453125
1751013685992224300,3.141224365234375,-0.963714599609375,-0.2626800537109375,0.005615234375
1751013686002168000,3.15116796875,-0.9528045654296875,-0.2781829833984375,-0.0096588134765625
1751013686012111000,3.161111083984375,-0.9387664794921875,-0.2827911376953125,-0.0211334228515625
1751013686022054100,3.17105419921875,-0.9472503662109375,-0.2738800048828125,-0.029876708984375
1751013686031998200,3.180998291015625,-0.947784423828125,-0.2637176513671875,-0.0079803466796875
1751013686041941200,3.190941162109375,-0.966094970703125,-0.2625274658203125,-0.023345947265625
1751013686051885000,3.200885009765625,-0.9846343994140625,-0.260833740234375,-0.00799560546875
1751013686061828000,3.210828125,-0.9954071044921875,-0.2530670166015625,0.0037689208984375
1751013686071772200,3.220772216796875,-1.008453369140625,-0.2508087158203125,0.013580322265625
1751013686081715200,3.230715087890625,-1.01605224609375,-0.2471160888671875,0.0244903564453125
1751013686091658200,3.240658203125,-1.0135040283203125,-0.2359771728515625,0.03326416015625
1751013686101602000,3.25060205078125,-1.009857177734375,-0.226043701171875,0.0501708984375
1751013686111545000,3.260545166015625,-1.0073089599609375,-0.2276458740234375,0.063018798828125
1751013686121489200,3.2704892578125,-1.0036773681640625,-0.23699951171875,0.073028564453125
1751013686131432000,3.280431884765625,-1.00250244140625,-0.252532958984375,0.06817626953125
1751013686141376000,3.2903759765625,-0.996063232421875,-0.2518310546875,0.0576171875
1751013686151319000,3.300319091796875,-0.993682861328125,-0.251190185546875,0.0436859130859375
1751013686161262000,3.310261962890625,-0.988616943359375,-0.2503204345703125,0.0408935546875
1751013686171206100,3.3202060546875,-0.9871673583984375,-0.2504730224609375,0.0437469482421875
1751013686181149000,3.33014892578125,-0.983154296875,-0.252593994140625,0.045440673828125
1751013686191093200,3.34009326171875,-0.9808349609375,-0.249969482421875,0.0484466552734375
1751013686201036300,3.350036376953125,-0.979339599609375,-0.2552642822265625,0.0531768798828125
1751013686210979300,3.359979248046875,-0.980926513671875,-0.2673797607421875,0.052978515625
1751013686220923100,3.369923095703125,-0.9796600341796875,-0.27386474609375,0.040740966796875
1751013686230866200,3.3798662109375,-0.973785400390625,-0.2781524658203125,0.01947021484375
1751013686240810200,3.389810302734375,-0.9660797119140625,-0.279632568359375,0.00457763671875
1751013686250753300,3.399753173828125,-0.9658660888671875,-0.2767486572265625,-0.002288818359375
1751013686260697000,3.409697021484375,-0.9657745361328125,-0.2765960693359375,-0.0021820068359375
1751013686270640000,3.41964013671875,-0.9626007080078125,-0.2751617431640625,-0.002777099609375
1751013686280583200,3.429583251953125,-0.96026611328125,-0.2705078125,-0.00128173828125
1751013686290527200,3.43952734375,-0.9617462158203125,-0.2695770263671875,0.0007476806640625
1751013686300470000,3.449469970703125,-0.963714599609375,-0.2685699462890625,-0.00048828125
1751013686310414000,3.4594140625,-0.964508056640625,-0.26617431640625,-0.0009613037109375
1751013686320357000,3.469357177734375,-0.9656829833984375,-0.273345947265625,-0.0066070556640625
1751013686330301000,3.479301025390625,-0.96435546875,-0.2907257080078125,-0.0162811279296875
1751013686340244000,3.489243896484375,-0.9682159423828125,-0.2910308837890625,-0.0162811279296875
1751013686350187000,3.49918701171875,-0.978546142578125,-0.2835693359375,-0.0264129638671875
1751013686360131000,3.509131103515625,-0.97039794921875,-0.27655029296875,-0.01300048828125
1751013686370074000,3.51907421875,-0.982421875,-0.273193359375,-0.0034027099609375
1751013686380018200,3.52901806640625,-0.995361328125,-0.2678375244140625,0.0088043212890625
1751013686389961000,3.5389609375,-0.987457275390625,-0.2632293701171875,0.017181396484375
1751013686399905300,3.5489052734375,-0.9734649658203125,-0.258544921875,0.0112762451171875
1751013686409848300,3.558848388671875,-0.974517822265625,-0.261566162109375,0.006988525390625
1751013686419792100,3.568792236328125,-0.978729248046875,-0.26983642578125,0.0120391845703125
1751013686429735200,3.578735107421875,-0.9818115234375,-0.2723846435546875,0.0211944580078125
1751013686439678200,3.58867822265625,-0.987335205078125,-0.2719879150390625,0.02496337890625
1751013686449622300,3.598622314453125,-0.9878692626953125,-0.274261474609375,0.02569580078125
1751013686459565000,3.60856494140625,-0.98748779296875,-0.276397705078125,0.0233306884765625
1751013686469509000,3.618509033203125,-0.989227294921875,-0.274658203125,0.0230865478515625
1751013686479452200,3.6284521484375,-0.9896240234375,-0.2715606689453125,0.0218658447265625
1751013686489395200,3.638395263671875,-0.990234375,-0.27093505859375,0.0222320556640625
1751013686499339000,3.648339111328125,-0.988250732421875,-0.270782470703125,0.0199432373046875
1751013686509282000,3.658281982421875,-0.986328125,-0.2702789306640625,0.0167083740234375
1751013686519226000,3.66822607421875,-0.98480224609375,-0.269287109375,0.0135040283203125
1751013686529169200,3.678169189453125,-0.982269287109375,-0.2686767578125,0.014251708984375
1751013686539113000,3.688113037109375,-0.98101806640625,-0.2697601318359375,0.0175018310546875
1751013686549056000,3.698055908203125,-0.9798126220703125,-0.2716217041015625,0.020294189453125
1751013686558999000,3.7079990234375,-0.9765472412109375,-0.273468017578125,0.0218353271484375
1751013686568943000,3.717943115234375,-0.971832275390625,-0.2740631103515625,0.02264404296875
1751013686578886100,3.72788623046875,-0.9685211181640625,-0.2750244140625,0.0233154296875
1751013686588830500,3.73783056640625,-0.9652557373046875,-0.2739410400390625,0.0278167724609375
1751013686598773500,3.7477734375,-0.9607086181640625,-0.2728271484375,0.0267791748046875
1751013686608717600,3.757717529296875,-0.9584197998046875,-0.273712158203125,0.02569580078125
1751013686618660400,3.767660400390625,-0.959503173828125,-0.2719573974609375,0.0264434814453125
1751013686628603400,3.777603271484375,-0.964447021484375,-0.2707061767578125,0.0262603759765625
1751013686638547500,3.78754736328125,-0.96728515625,-0.27197265625,0.0271453857421875
1751013686648490500,3.797490478515625,-0.9664764404296875,-0.2718963623046875,0.02587890625
1751013686658434300,3.807434326171875,-0.9669189453125,-0.2718505859375,0.0242462158203125
1751013686668377300,3.81737744140625,-0.9703521728515625,-0.2704620361328125,0.023834228515625
1751013686678321400,3.8273212890625,-0.9737396240234375,-0.267791748046875,0.022613525390625
1751013686688264400,3.837264404296875,-0.975738525390625,-0.2665863037109375,0.0197296142578125
1751013686698207500,3.84720751953125,-0.9764862060546875,-0.2681427001953125,0.0165863037109375
1751013686708151300,3.8571513671875,-0.9749298095703125,-0.2691802978515625,0.0126190185546875
1751013686718094300,3.86709423828125,-0.972625732421875,-0.2707672119140625,0.0114593505859375
1751013686728038400,3.877038330078125,-0.968902587890625,-0.27154541015625,0.0118865966796875
1751013686737981400,3.8869814453125,-0.966522216796875,-0.27252197265625,0.0145263671875
1751013686747925200,3.89692529296875,-0.9676666259765625,-0.2740478515625,0.018035888671875
1751013686757868300,3.906868408203125,-0.97259521484375,-0.27398681640625,0.01971435546875
1751013686767811300,3.916811279296875,-0.9757537841796875,-0.2751312255859375,0.017059326171875
1751013686777755100,3.926755126953125,-0.9756622314453125,-0.27484130859375,0.0127410888671875
1751013686787698200,3.9366982421875,-0.9752960205078125,-0.2750701904296875,0.01123046875
1751013686797642500,3.946642578125,-0.9752960205078125,-0.2751617431640625,0.009552001953125
1751013686807585500,3.95658544921875,-0.9744110107421875,-0.275299072265625,0.0098114013671875
1751013686817529300,3.966529296875,-0.9721221923828125,-0.2765655517578125,0.0100250244140625
1751013686827472400,3.976472412109375,-0.97222900390625,-0.2777557373046875,0.00958251953125
1751013686837415400,3.98641552734375,-0.9738616943359375,-0.2786102294921875,0.010528564453125
1751013686847359500,3.996359375,-0.9764404296875,-0.2787322998046875,0.0141754150390625
1751013686857302500,4.006302490234375,-0.980316162109375,-0.2765960693359375,0.0173492431640625
1751013686867246300,4.016246337890625,-0.98138427734375,-0.27825927734375,0.0178070068359375
1751013686877189400,4.026189453125,-0.978912353515625,-0.2781524658203125,0.0159912109375
1751013686887133400,4.036133544921875,-0.9775543212890625,-0.276702880859375,0.0137786865234375
1751013686897076500,4.046076416015625,-0.97882080078125,-0.2742767333984375,0.0151824951171875
1751013686907019300,4.056019287109375,-0.976531982421875,-0.275238037109375,0.0163116455078125
1751013686916963300,4.06596337890625,-0.97552490234375,-0.276275634765625,0.0168304443359375
1751013686926906400,4.07590625,-0.97686767578125,-0.2761383056640625,0.014556884765625
1751013686936850400,4.085850341796875,-0.977020263671875,-0.275604248046875,0.0088958740234375
1751013686946793200,4.095793212890625,-0.9763946533203125,-0.2758331298828125,0.007720947265625
1751013686956737300,4.1057373046875,-0.9789276123046875,-0.2759857177734375,0.011260986328125
1751013686966680300,4.115680419921875,-0.9792633056640625,-0.274322509765625,0.0102691650390625
1751013686976623400,4.125623291015625,-0.9779052734375,-0.27301025390625,0.0100860595703125
1751013686986567200,4.135567138671875,-0.9759979248046875,-0.2724609375,0.010894775390625
1751013686996510200,4.14551025390625,-0.9776153564453125,-0.273284912109375,0.0118255615234375
1751013687006454500,4.15545458984375,-0.9769134521484375,-0.2740478515625,0.011474609375
1751013687016397600,4.1653974609375,-0.9777679443359375,-0.2723388671875,0.009246826171875
1751013687026341400,4.17534130859375,-0.9776153564453125,-0.2718963623046875,0.0088043212890625
1751013687036284400,4.185284423828125,-0.9776611328125,-0.2730712890625,0.009521484375
1751013687046227500,4.1952275390625,-0.9767608642578125,-0.2728729248046875,0.0101165771484375
1751013687056171500,4.205171630859375,-0.9780426025390625,-0.2725372314453125,0.01007080078125
1751013687066114300,4.2151142578125,-0.9753875732421875,-0.2731170654296875,0.00946044921875
1751013687076058400,4.225058349609375,-0.97381591796875,-0.2736358642578125,0.00927734375
1751013687086001400,4.23500146484375,-0.973724365234375,-0.275360107421875,0.0103759765625
1751013687095945500,4.244945556640625,-0.9744110107421875,-0.276763916015625,0.011810302734375
1751013687105888300,4.25488818359375,-0.976226806640625,-0.277069091796875,0.0131378173828125
1751013687115831300,4.264831298828125,-0.976715087890625,-0.2776336669921875,0.0132598876953125
1751013687125775400,4.274775390625,-0.977630615234375,-0.27801513671875,0.014007568359375
1751013687135718400,4.284718505859375,-0.9799957275390625,-0.27685546875,0.0159149169921875
1751013687145662200,4.294662109375,-0.978271484375,-0.27606201171875,0.0175628662109375
1751013687155605200,4.304605224609375,-0.97735595703125,-0.27252197265625,0.016693115234375
1751013687165549300,4.31454931640625,-0.978485107421875,-0.2699737548828125,0.0131683349609375
1751013687175492400,4.324492431640625,-0.9774627685546875,-0.2686309814453125,0.0126800537109375
1751013687185435400,4.334435302734375,-0.9784088134765625,-0.26861572265625,0.0150146484375
1751013687195379200,4.344379150390625,-0.98101806640625,-0.269622802734375,0.016815185546875
1751013687205322200,4.354322265625,-0.9814910888671875,-0.2720489501953125,0.0171356201171875
1751013687215266600,4.3642666015625,-0.983612060546875,-0.27252197265625,0.015838623046875
1751013687225209600,4.374209716796875,-0.983245849609375,-0.271697998046875,0.0156097412109375
1751013687235153400,4.3841533203125,-0.982391357421875,-0.26947021484375,0.01519775390625
1751013687245096400,4.394096435546875,-0.979278564453125,-0.268157958984375,0.014678955078125
1751013687255039500,4.40403955078125,-0.972930908203125,-0.2681427001953125,0.01336669921875
1751013687264983300,4.4139833984375,-0.96875,-0.2686614990234375,0.0113372802734375
1751013687274926300,4.42392626953125,-0.96600341796875,-0.2715301513671875,0.012420654296875
1751013687284870400,4.433870361328125,-0.962860107421875,-0.27557373046875,0.01544189453125
1751013687294813400,4.4438134765625,-0.9657440185546875,-0.2769012451171875,0.0155181884765625
1751013687304757200,4.45375732421875,-0.967376708984375,-0.27838134765625,0.0155792236328125
1751013687314700300,4.4637001953125,-0.9666290283203125,-0.2791290283203125,0.0154266357421875
1751013687324643300,4.473643310546875,-0.965606689453125,-0.279754638671875,0.016082763671875
1751013687334587400,4.48358740234375,-0.963958740234375,-0.2779998779296875,0.0152587890625
1751013687344530400,4.493530517578125,-0.96160888671875,-0.2776336669921875,0.0148162841796875
1751013687354474200,4.50347412109375,-0.9607086181640625,-0.279449462890625,0.013671875
1751013687364417300,4.513417236328125,-0.9629364013671875,-0.2781219482421875,0.01190185546875
1751013687374361300,4.523361328125,-0.963470458984375,-0.276885986328125,0.011260986328125
1751013687384304400,4.533304443359375,-0.9620819091796875,-0.277496337890625,0.0136566162109375
1751013687394247200,4.5432470703125,-0.9613189697265625,-0.2791290283203125,0.0177459716796875
1751013687404191200,4.553191162109375,-0.9640350341796875,-0.27655029296875,0.0208282470703125
1751013687414134300,4.56313427734375,-0.9656829833984375,-0.2755889892578125,0.0207366943359375
1751013687424078600,4.57307861328125,-0.9707489013671875,-0.2732696533203125,0.0187225341796875
1751013687434021400,4.583021484375,-0.97357177734375,-0.27093505859375,0.0165863037109375
1751013687443965400,4.59296533203125,-0.97528076171875,-0.2708892822265625,0.0161590576171875
1751013687453908500,4.602908447265625,-0.977874755859375,-0.2706756591796875,0.01544189453125
1751013687463851500,4.6128515625,-0.977142333984375,-0.2690277099609375,0.01373291015625
1751013687473795300,4.62279541015625,-0.975494384765625,-0.2695159912109375,0.011993408203125
1751013687483738400,4.63273828125,-0.9782257080078125,-0.27142333984375,0.0135650634765625
1751013687493682400,4.642682373046875,-0.9783782958984375,-0.2736663818359375,0.015655517578125
1751013687503625500,4.65262548828125,-0.9812774658203125,-0.275390625,0.0142669677734375
1751013687513569300,4.6625693359375,-0.98016357421875,-0.277618408203125,0.012786865234375
1751013687523512300,4.67251220703125,-0.9785919189453125,-0.2776031494140625,0.0113983154296875
1751013687533455400,4.682455322265625,-0.9803009033203125,-0.2760772705078125,0.0102691650390625
1751013687543399400,4.6923994140625,-0.9796295166015625,-0.2737579345703125,0.0099334716796875
1751013687553342500,4.702342529296875,-0.978973388671875,-0.2712860107421875,0.0099029541015625
1751013687563286300,4.712286376953125,-0.9785919189453125,-0.27069091796875,0.011810302734375
1751013687573229300,4.722229248046875,-0.9778594970703125,-0.27130126953125,0.0095672607421875
1751013687583173400,4.73217333984375,-0.9787139892578125,-0.2693328857421875,0.008026123046875
1751013687593116200,4.7421162109375,-0.9830322265625,-0.26898193359375,0.0089569091796875
1751013687603059200,4.75205908203125,-0.98321533203125,-0.269866943359375,0.0099334716796875
1751013687613003300,4.762003173828125,-0.9824066162109375,-0.270843505859375,0.0101470947265625
1751013687622946300,4.7719462890625,-0.980926513671875,-0.2714691162109375,0.0114898681640625
1751013687632890400,4.781890380859375,-0.977783203125,-0.270355224609375,0.0113372802734375
1751013687642833400,4.79183349609375,-0.977630615234375,-0.2684173583984375,0.01153564453125
1751013687652776400,4.8017763671875,-0.978668212890625,-0.269439697265625,0.01312255859375
1751013687662720500,4.811720458984375,-0.9773406982421875,-0.2698516845703125,0.01373291015625
1751013687672663600,4.82166357421875,-0.9787139892578125,-0.270599365234375,0.0144195556640625
1751013687682607400,4.831607421875,-0.9816131591796875,-0.2708587646484375,0.014495849609375
1751013687692550400,4.84155029296875,-0.9841766357421875,-0.270538330078125,0.01483154296875
1751013687702494500,4.851494384765625,-0.9842681884765625,-0.270599365234375,0.0134429931640625
1751013687712437500,4.8614375,-0.9835052490234375,-0.2713623046875,0.013275146484375
1751013687722380300,4.87138037109375,-0.983734130859375,-0.271026611328125,0.0131988525390625
1751013687732324400,4.881324462890625,-0.9825897216796875,-0.2718353271484375,0.0126190185546875
1751013687742267400,4.891267333984375,-0.9781646728515625,-0.271453857421875,0.0127716064453125
1751013687752211500,4.90121142578125,-0.9753265380859375,-0.26898193359375,0.012542724609375
1751013687762154200,4.911154296875,-0.975555419921875,-0.2675323486328125,0.012481689453125
1751013687772098300,4.921098388671875,-0.9750213623046875,-0.2689208984375,0.016265869140625
1751013687782041300,4.931041259765625,-0.973602294921875,-0.26898193359375,0.0178680419921875
1751013687791985200,4.940985107421875,-0.972930908203125,-0.26715087890625,0.02032470703125
1751013687801928200,4.95092822265625,-0.9700164794921875,-0.266510009765625,0.021575927734375
1751013687811871200,4.960871337890625,-0.970672607421875,-0.2681732177734375,0.0210418701171875
1751013687821815300,4.970815185546875,-0.9705657958984375,-0.2694854736328125,0.0220184326171875
1751013687831758300,4.98075830078125,-0.9716949462890625,-0.2694549560546875,0.025482177734375
1751013687841702400,4.990702392578125,-0.9741363525390625,-0.2691192626953125,0.02813720703125
1751013687851645400,5.0006455078125,-0.9750518798828125,-0.2700653076171875,0.0285797119140625
1751013687861588500,5.01058837890625,-0.9753570556640625,-0.271270751953125,0.0286102294921875
1751013687871532500,5.020532470703125,-0.9758758544921875,-0.2697296142578125,0.0293121337890625
1751013687881475300,5.030475341796875,-0.98052978515625,-0.266448974609375,0.027984619140625
1751013687891419400,5.04041943359375,-0.9824371337890625,-0.26708984375,0.0280303955078125
1751013687901362400,5.050362548828125,-0.980804443359375,-0.2661895751953125,0.0272216796875
1751013687911306500,5.060306396484375,-0.9800872802734375,-0.2639923095703125,0.0251007080078125
1751013687921249300,5.070249267578125,-0.984161376953125,-0.2620086669921875,0.023223876953125
1751013687931192300,5.0801923828125,-0.9862060546875,-0.2623748779296875,0.0226593017578125
1751013687941136400,5.090136474609375,-0.9846954345703125,-0.2621002197265625,0.0225067138671875
1751013687951079400,5.100079345703125,-0.9864959716796875,-0.2607421875,0.02398681640625
1751013687961023200,5.110023193359375,-0.98870849609375,-0.2595977783203125,0.0236358642578125
1751013687970966300,5.11996630859375,-0.985595703125,-0.2593841552734375,0.0219268798828125
1751013687980910300,5.129910400390625,-0.98248291015625,-0.259674072265625,0.0191192626953125
1751013687990853400,5.139853271484375,-0.9793243408203125,-0.2603759765625,0.0164642333984375
1751013688000796400,5.14979638671875,-0.979400634765625,-0.2621612548828125,0.0140533447265625
1751013688010740200,5.159740234375,-0.975860595703125,-0.2637786865234375,0.0156097412109375
1751013688020683300,5.169683349609375,-0.9732513427734375,-0.264617919921875,0.018402099609375
1751013688030627600,5.179627685546875,-0.9718780517578125,-0.2656707763671875,0.0198211669921875
1751013688040570400,5.1895703125,-0.972625732421875,-0.266204833984375,0.0204620361328125
1751013688050514400,5.199514404296875,-0.972198486328125,-0.2677764892578125,0.0189971923828125
1751013688060457500,5.20945751953125,-0.97222900390625,-0.269439697265625,0.0166473388671875
1751013688070400500,5.219400390625,-0.973480224609375,-0.2700653076171875,0.015045166015625
1751013688080344300,5.22934423828125,-0.9737396240234375,-0.27105712890625,0.013641357421875
1751013688090287400,5.239287353515625,-0.9716033935546875,-0.27197265625,0.01434326171875
1751013688100231400,5.2492314453125,-0.9701690673828125,-0.27276611328125,0.0156707763671875
1751013688110174500,5.259174560546875,-0.9702911376953125,-0.2711944580078125,0.0169677734375
1751013688120118300,5.2691181640625,-0.973541259765625,-0.2680206298828125,0.0200042724609375
1751013688130061300,5.279061279296875,-0.973114013671875,-0.2661590576171875,0.0234375
1751013688140004400,5.28900439453125,-0.97406005859375,-0.2651214599609375,0.027313232421875
1751013688149948400,5.298948486328125,-0.97564697265625,-0.26287841796875,0.028045654296875
1751013688159891500,5.308891357421875,-0.977294921875,-0.26080322265625,0.028533935546875
1751013688169835300,5.318835205078125,-0.980621337890625,-0.2582244873046875,0.02618408203125
1751013688179778300,5.3287783203125,-0.9818267822265625,-0.257232666015625,0.0222930908203125
1751013688189722400,5.338722412109375,-0.98199462890625,-0.256378173828125,0.0189361572265625
1751013688199665400,5.34866552734375,-0.981292724609375,-0.2574920654296875,0.019744873046875
1751013688209608200,5.358608154296875,-0.9788360595703125,-0.2583465576171875,0.02154541015625
1751013688219552300,5.36855224609375,-0.9772186279296875,-0.2591400146484375,0.024871826171875
1751013688229495300,5.378495361328125,-0.974273681640625,-0.2591094970703125,0.0258026123046875
1751013688239439400,5.388439453125,-0.971527099609375,-0.2600860595703125,0.02667236328125
1751013688249382100,5.398382080078125,-0.969879150390625,-0.2618865966796875,0.0290679931640625
1751013688259326500,5.408326416015625,-0.9702301025390625,-0.262664794921875,0.0320587158203125
1751013688269269500,5.41826953125,-0.971649169921875,-0.2637786865234375,0.031829833984375
1751013688279212500,5.428212646484375,-0.973480224609375,-0.2637786865234375,0.0301971435546875
1751013688289156400,5.43815625,-0.975738525390625,-0.264129638671875,0.03070068359375
1751013688299099400,5.448099365234375,-0.9793853759765625,-0.2632904052734375,0.02947998046875
1751013688309043500,5.45804345703125,-0.9814453125,-0.2620086669921875,0.0303192138671875
1751013688318986500,5.467986572265625,-0.983642578125,-0.2606201171875,0.0308837890625
1751013688328930300,5.477930419921875,-0.984466552734375,-0.2606658935546875,0.0303955078125
1751013688338873300,5.487873291015625,-0.9856719970703125,-0.26153564453125,0.029205322265625
1751013688348816400,5.49781640625,-0.985198974609375,-0.2613372802734375,0.0285797119140625
1751013688358760400,5.507760498046875,-0.985382080078125,-0.2626953125,0.03363037109375
1751013688368703500,5.517703369140625,-0.988616943359375,-0.2620697021484375,0.03399658203125
1751013688378647300,5.527647216796875,-0.9871826171875,-0.260101318359375,0.0358428955078125
1751013688388590300,5.53759033203125,-0.98663330078125,-0.25958251953125,0.0341644287109375
1751013688398534400,5.547534423828125,-0.9869537353515625,-0.2588958740234375,0.030670166015625
1751013688408477200,5.557477294921875,-0.9849700927734375,-0.2596282958984375,0.0301361083984375
1751013688418420200,5.567420166015625,-0.985626220703125,-0.25927734375,0.0328369140625
1751013688428364300,5.5773642578125,-0.986358642578125,-0.2605743408203125,0.033172607421875
1751013688438307300,5.587307373046875,-0.984832763671875,-0.26220703125,0.0344085693359375
1751013688448251400,5.59725146484375,-0.9836578369140625,-0.2620849609375,0.0324554443359375
1751013688458194200,5.607194091796875,-0.97943115234375,-0.2609100341796875,0.0283355712890625
1751013688468138500,5.617138427734375,-0.9771881103515625,-0.2603759765625,0.0254669189453125
1751013688478081500,5.62708154296875,-0.9721221923828125,-0.2616119384765625,0.02679443359375
1751013688488024600,5.637024658203125,-0.9721527099609375,-0.2619171142578125,0.0282440185546875
1751013688497968400,5.646968505859375,-0.9748992919921875,-0.2623443603515625,0.0307464599609375
1751013688507911400,5.656911376953125,-0.9732818603515625,-0.263519287109375,0.0304718017578125
1751013688517855500,5.66685546875,-0.97064208984375,-0.2606048583984375,0.03021240234375
1751013688527798500,5.676798583984375,-0.9718475341796875,-0.2600860595703125,0.0296783447265625
1751013688537742300,5.686742431640625,-0.97125244140625,-0.2608184814453125,0.02716064453125
1751013688547685400,5.696685302734375,-0.9714508056640625,-0.26165771484375,0.02386474609375
1751013688557628400,5.70662841796875,-0.9717559814453125,-0.26019287109375,0.0261688232421875
1751013688567572500,5.716572509765625,-0.9743499755859375,-0.2602386474609375,0.029388427734375
1751013688577515300,5.726515380859375,-0.978790283203125,-0.2586822509765625,0.030609130859375
1751013688587456800,5.736456787109375,-0.98333740234375,-0.2559356689453125,0.0339508056640625
1751013688597399800,5.74639990234375,-0.9814910888671875,-0.254425048828125,0.0361480712890625
1751013688607342800,5.7563427734375,-0.9783782958984375,-0.2542724609375,0.0325927734375
1751013688617286700,5.76628662109375,-0.9800262451171875,-0.2539215087890625,0.0277862548828125
1751013688627229700,5.776229736328125,-0.9785614013671875,-0.2546539306640625,0.0265655517578125
1751013688637173800,5.786173828125,-0.974395751953125,-0.2562408447265625,0.0300750732421875
1751013688647116500,5.796116455078125,-0.9750823974609375,-0.2565765380859375,0.0336456298828125
1751013688657060600,5.806060546875,-0.98541259765625,-0.2573394775390625,0.0360870361328125
1751013688667003600,5.816003662109375,-0.988189697265625,-0.2580413818359375,0.0382843017578125
1751013688676946700,5.82594677734375,-0.985260009765625,-0.2579345703125,0.037841796875
1751013688686890500,5.835890380859375,-0.986297607421875,-0.25665283203125,0.0340423583984375
1751013688696833500,5.84583349609375,-0.985015869140625,-0.25732421875,0.0332489013671875
1751013688706777600,5.855777587890625,-0.9850311279296875,-0.25640869140625,0.031646728515625
1751013688716720600,5.865720703125,-0.9827880859375,-0.255157470703125,0.0318756103515625
1751013688726664400,5.87566455078125,-0.9792938232421875,-0.2547760009765625,0.0316162109375
1751013688736607500,5.885607421875,-0.979248046875,-0.2556915283203125,0.0307769775390625
1751013688746550500,5.895550537109375,-0.981292724609375,-0.2581939697265625,0.03094482421875
1751013688756494600,5.90549462890625,-0.9832305908203125,-0.2597808837890625,0.032745361328125
1751013688766437600,5.915437744140625,-0.982696533203125,-0.26129150390625,0.035980224609375
1751013688776381700,5.925381591796875,-0.984130859375,-0.2627716064453125,0.03363037109375
1751013688786324700,5.93532470703125,-0.9826202392578125,-0.262359619140625,0.0274505615234375
1751013688796268800,5.945268798828125,-0.9842071533203125,-0.25689697265625,0.0235137939453125
1751013688806211600,5.955211669921875,-0.9852752685546875,-0.2552490234375,0.0223388671875
1751013688816154600,5.965154541015625,-0.9857635498046875,-0.258056640625,0.02130126953125
1751013688826098700,5.9750986328125,-0.985595703125,-0.257293701171875,0.0211944580078125
1751013688836041700,5.985041748046875,-0.9801788330078125,-0.257659912109375,0.0220489501953125
1751013688845985500,5.994985595703125,-0.9756927490234375,-0.2570037841796875,0.022918701171875
1751013688855928600,6.004928466796875,-0.974945068359375,-0.25726318359375,0.025665283203125
1751013688865872600,6.01487255859375,-0.9759521484375,-0.2581024169921875,0.0261993408203125
1751013688875815700,6.024815673828125,-0.977386474609375,-0.259613037109375,0.0238189697265625
1751013688885758700,6.0347587890625,-0.9788665771484375,-0.2599639892578125,0.023406982421875
1751013688895702500,6.04470263671875,-0.98211669921875,-0.260650634765625,0.02374267578125
1751013688905645600,6.0546455078125,-0.9843597412109375,-0.2607269287109375,0.0230865478515625
1751013688915589600,6.064589599609375,-0.9831085205078125,-0.26141357421875,0.0191192626953125
1751013688925532700,6.07453271484375,-0.978851318359375,-0.260040283203125,0.01708984375
1751013688935476500,6.0844765625,-0.9793243408203125,-0.2603302001953125,0.0183868408203125
1751013688945419500,6.09441943359375,-0.976409912109375,-0.262176513671875,0.0206451416015625
1751013688955362600,6.104362548828125,-0.975860595703125,-0.261383056640625,0.02587890625
1751013688965306600,6.114306640625,-0.9758758544921875,-0.2607421875,0.028839111328125
1751013688975249400,6.12424951171875,-0.973663330078125,-0.260101318359375,0.0308685302734375
1751013688985193700,6.13419384765625,-0.97564697265625,-0.2581024169921875,0.031768798828125
1751013688995136800,6.14413671875,-0.9791717529296875,-0.2571258544921875,0.0308685302734375
1751013689005080600,6.15408056640625,-0.9789886474609375,-0.2567901611328125,0.0308074951171875
1751013689015023600,6.164023681640625,-0.979888916015625,-0.2557830810546875,0.026580810546875
1751013689024966700,6.173966552734375,-0.981353759765625,-0.2548370361328125,0.0260772705078125
1751013689034910700,6.18391064453125,-0.9830322265625,-0.254425048828125,0.0265045166015625
1751013689044853800,6.193853759765625,-0.9847869873046875,-0.256683349609375,0.027923583984375
1751013689054797600,6.203797607421875,-0.982666015625,-0.255645751953125,0.0293731689453125
1751013689064740600,6.21374072265625,-0.9802093505859375,-0.255889892578125,0.0291290283203125
1751013689074684700,6.2236845703125,-0.9802703857421875,-0.2564239501953125,0.032318115234375
1751013689084627700,6.233627685546875,-0.979400634765625,-0.257110595703125,0.034881591796875
1751013689094570800,6.24357080078125,-0.9759368896484375,-0.2578887939453125,0.0344696044921875
1751013689104514600,6.2535146484375,-0.9721832275390625,-0.257659912109375,0.0340423583984375
1751013689114457600,6.26345751953125,-0.9739990234375,-0.2566680908203125,0.031402587890625
1751013689124401700,6.273401611328125,-0.97479248046875,-0.2575836181640625,0.0303497314453125
1751013689134344700,6.2833447265625,-0.977142333984375,-0.259674072265625,0.0273590087890625
1751013689144288500,6.29328857421875,-0.97662353515625,-0.262451171875,0.026519775390625
1751013689154231600,6.3032314453125,-0.9745330810546875,-0.262298583984375,0.026458740234375
1751013689164174600,6.313174560546875,-0.9740142822265625,-0.26190185546875,0.0284423828125
1751013689174118400,6.323118408203125,-0.9774932861328125,-0.2609405517578125,0.03082275390625
1751013689184061400,6.3330615234375,-0.98248291015625,-0.260955810546875,0.0321807861328125
1751013689194005800,6.343005859375,-0.9821319580078125,-0.2600860595703125,0.030792236328125
1751013689203948800,6.35294873046875,-0.979522705078125,-0.259674072265625,0.029296875
1751013689213892600,6.362892578125,-0.9799041748046875,-0.2599945068359375,0.0254974365234375
1751013689223835600,6.372835693359375,-0.9783935546875,-0.2594757080078125,0.023468017578125
1751013689233778700,6.38277880859375,-0.976318359375,-0.2589874267578125,0.026031494140625
1751013689243722800,6.39272265625,-0.9758148193359375,-0.26116943359375,0.03009033203125
1751013689253665800,6.402665771484375,-0.975616455078125,-0.26312255859375,0.0334930419921875
1751013689263609600,6.412609619140625,-0.9761505126953125,-0.2624053955078125,0.033660888671875
1751013689273552600,6.422552734375,-0.9769744873046875,-0.260467529296875,0.0350341796875
1751013689283495700,6.43249560546875,-0.9800262451171875,-0.2588043212890625,0.035125732421875
1751013689293439700,6.442439697265625,-0.980560302734375,-0.2586669921875,0.031982421875
1751013689303382500,6.452382568359375,-0.98284912109375,-0.256927490234375,0.0281219482421875
1751013689313326600,6.46232666015625,-0.98321533203125,-0.2556915283203125,0.02764892578125
1751013689323269600,6.47226953125,-0.9842376708984375,-0.254058837890625,0.0261383056640625
1751013689333213400,6.48221337890625,-0.9835357666015625,-0.253021240234375,0.025146484375
1751013689343156500,6.492156494140625,-0.9810943603515625,-0.2540435791015625,0.0266571044921875
1751013689353099500,6.502099609375,-0.97967529296875,-0.253753662109375,0.0313873291015625
1751013689363043600,6.512043701171875,-0.9754486083984375,-0.2549591064453125,0.0353546142578125
1751013689372986600,6.521986572265625,-0.974578857421875,-0.2572021484375,0.0363311767578125
1751013689382930400,6.531930419921875,-0.9748687744140625,-0.2572021484375,0.0350799560546875
1751013689392873500,6.54187353515625,-0.9752197265625,-0.25555419921875,0.033905029296875
1751013689402817800,6.55181787109375,-0.974639892578125,-0.2546539306640625,0.0323944091796875
1751013689412760800,6.5617607421875,-0.97503662109375,-0.25634765625,0.029144287109375
1751013689422703600,6.57170361328125,-0.9742431640625,-0.25738525390625,0.026123046875
1751013689432647700,6.581647705078125,-0.9760284423828125,-0.2572784423828125,0.0236053466796875
1751013689442590700,6.5915908203125,-0.975189208984375,-0.2593231201171875,0.0245819091796875
1751013689452534800,6.60153466796875,-0.973175048828125,-0.2616424560546875,0.02685546875
1751013689462477600,6.6114775390625,-0.971038818359375,-0.2613067626953125,0.0280609130859375
1751013689472421600,6.621421630859375,-0.972259521484375,-0.2612762451171875,0.031158447265625
1751013689482364700,6.63136474609375,-0.970703125,-0.26165771484375,0.0308837890625
1751013689492307700,6.6413076171875,-0.9700469970703125,-0.2611236572265625,0.02972412109375
1751013689502251500,6.65125146484375,-0.968231201171875,-0.2600860595703125,0.029052734375
1751013689512194600,6.661194580078125,-0.9702606201171875,-0.2603607177734375,0.028076171875
1751013689522138600,6.671138671875,-0.974700927734375,-0.2601165771484375,0.027587890625
1751013689532081700,6.68108154296875,-0.977752685546875,-0.260955810546875,0.0313873291015625
1751013689542025500,6.691025390625,-0.98052978515625,-0.260772705078125,0.0322113037109375
1751013689551968500,6.700968505859375,-0.981109619140625,-0.260040283203125,0.0331573486328125
1751013689561911600,6.71091162109375,-0.9820404052734375,-0.257659912109375,0.0325469970703125
1751013689571855600,6.720855712890625,-0.9862213134765625,-0.2552337646484375,0.0310516357421875
1751013689581798700,6.730798583984375,-0.9875640869140625,-0.2545013427734375,0.0308837890625
1751013689591741700,6.74074169921875,-0.9871673583984375,-0.2540740966796875,0.03338623046875
1751013689601684700,6.750684814453125,-0.9877471923828125,-0.2550201416015625,0.0354156494140625
1751013689611629000,6.760629150390625,-0.9880523681640625,-0.256927490234375,0.0342254638671875
1751013689621572000,6.770572021484375,-0.9866943359375,-0.25762939453125,0.0339813232421875
1751013689631515100,6.78051513671875,-0.987579345703125,-0.257537841796875,0.0328369140625
1751013689641459000,6.790458984375,-0.990264892578125,-0.25677490234375,0.0308380126953125
1751013689651402000,6.800402099609375,-0.9882354736328125,-0.2573394775390625,0.0321197509765625
1751013689661346000,6.810345947265625,-0.987060546875,-0.2584228515625,0.036407470703125
1751013689671289000,6.8202890625,-0.9851531982421875,-0.2598114013671875,0.038543701171875
1751013689681233000,6.83023291015625,-0.9815521240234375,-0.2589111328125,0.0380859375
1751013689691176000,6.840176025390625,-0.9816436767578125,-0.2567138671875,0.03619384765625
1751013689701119000,6.850118896484375,-0.979888916015625,-0.2553863525390625,0.0357818603515625
1751013689711062800,6.860062744140625,-0.979278564453125,-0.2555084228515625,0.0361480712890625
1751013689721005800,6.870005859375,-0.9816131591796875,-0.253814697265625,0.0373077392578125
1751013689730950000,6.879949951171875,-0.983245849609375,-0.2528228759765625,0.037139892578125
1751013689740893000,6.889892822265625,-0.9857940673828125,-0.2545013427734375,0.0361328125
1751013689750836700,6.899836669921875,-0.98565673828125,-0.2552337646484375,0.0330657958984375
1751013689760779800,6.90977978515625,-0.9853057861328125,-0.25225830078125,0.02923583984375
1751013689770722800,6.919722900390625,-0.98486328125,-0.250152587890625,0.029541015625
1751013689780667000,6.9296669921875,-0.984954833984375,-0.2491455078125,0.032135009765625
1751013689790610000,6.93960986328125,-0.9824981689453125,-0.2464141845703125,0.03338623046875
1751013689800553700,6.9495537109375,-0.9774627685546875,-0.245849609375,0.0302734375
1751013689810496800,6.959496826171875,-0.9727325439453125,-0.245574951171875,0.028656005859375
1751013689820441000,6.969441162109375,-0.9671783447265625,-0.2464141845703125,0.0286407470703125
1751013689830384000,6.979384033203125,-0.9658050537109375,-0.245697021484375,0.0305938720703125
1751013689840327000,6.989326904296875,-0.9651031494140625,-0.247802734375,0.040283203125
1751013689850271000,6.99927099609375,-0.9602508544921875,-0.2536773681640625,0.0431365966796875
1751013689860214000,7.009214111328125,-0.9598541259765625,-0.256317138671875,0.04229736328125
1751013689870158000,7.019157958984375,-0.9608001708984375,-0.254730224609375,0.0388946533203125
1751013689880100900,7.029100830078125,-0.9611053466796875,-0.2528228759765625,0.033966064453125
1751013689890044000,7.0390439453125,-0.96380615234375,-0.2548065185546875,0.0339813232421875
1751013689899988000,7.048988037109375,-0.965667724609375,-0.2570037841796875,0.0414581298828125
1751013689909931000,7.058930908203125,-0.966400146484375,-0.2569122314453125,0.0391082763671875
1751013689919874800,7.068874755859375,-0.9651336669921875,-0.2576141357421875,0.03643798828125
1751013689929817900,7.07881787109375,-0.9694061279296875,-0.25701904296875,0.034149169921875
1751013689939762000,7.088761962890625,-0.9711761474609375,-0.25762939453125,0.035675048828125
1751013689949705000,7.098705078125,-0.9741973876953125,-0.2582550048828125,0.0383758544921875
1751013689959648800,7.108648681640625,-0.9755096435546875,-0.2579345703125,0.0382843017578125
1751013689969591800,7.118591796875,-0.9788665771484375,-0.2577362060546875,0.036651611328125
1751013689979534800,7.128534912109375,-0.98272705078125,-0.2549896240234375,0.036285400390625
1751013689989479000,7.13847900390625,-0.9841461181640625,-0.25201416015625,0.03692626953125
1751013689999422000,7.148421875,-0.986846923828125,-0.2501220703125,0.034027099609375
1751013690009365800,7.15836572265625,-0.9893646240234375,-0.249725341796875,0.0316619873046875
1751013690019308800,7.168308837890625,-0.99090576171875,-0.2480926513671875,0.03155517578125
1751013690029253000,7.178253173828125,-0.9925994873046875,-0.244781494140625,0.029449462890625
1751013690039196000,7.18819580078125,-0.989410400390625,-0.245758056640625,0.02947998046875
1751013690049139000,7.198138916015625,-0.995269775390625,-0.245880126953125,0.037078857421875
1751013690059083000,7.2080830078125,-0.9994354248046875,-0.2436981201171875,0.0381011962890625
1751013690069026000,7.218026123046875,-0.996063232421875,-0.239959716796875,0.044403076171875
1751013690078969900,7.227969970703125,-1.001007080078125,-0.235565185546875,0.040252685546875
1751013690088913000,7.237912841796875,-0.9982757568359375,-0.2322540283203125,0.038299560546875
1751013690098856000,7.24785595703125,-1.00238037109375,-0.22918701171875,0.0353851318359375
1751013690108800000,7.257800048828125,-1.006134033203125,-0.22821044921875,0.03460693359375
1751013690118743000,7.267742919921875,-1.00775146484375,-0.22857666015625,0.0355072021484375
1751013690128686800,7.277686767578125,-1.00927734375,-0.2309112548828125,0.0339508056640625
1751013690138630000,7.2876298828125,-1.0106964111328125,-0.2327423095703125,0.0335235595703125
1751013690148574000,7.297573974609375,-1.0127105712890625,-0.2315216064453125,0.0351104736328125
1751013690158517000,7.30751708984375,-1.01104736328125,-0.231719970703125,0.0343170166015625
1751013690168459800,7.317459716796875,-1.002716064453125,-0.2325897216796875,0.03546142578125
1751013690178403800,7.32740380859375,-1.0012969970703125,-0.2349090576171875,0.037139892578125
1751013690188347000,7.337346923828125,-0.998779296875,-0.2368927001953125,0.03570556640625
1751013690198291000,7.347291015625,-0.9953155517578125,-0.2382659912109375,0.03179931640625
1751013690208233700,7.357233642578125,-0.9941558837890625,-0.2393951416015625,0.0307769775390625
1751013690218177800,7.367177734375,-0.9918060302734375,-0.241943359375,0.0325927734375
1751013690228120800,7.377120849609375,-0.9900970458984375,-0.242462158203125,0.0338134765625
1751013690238063900,7.38706396484375,-0.987884521484375,-0.24224853515625,0.03118896484375
1751013690248008000,7.397008056640625,-0.9855499267578125,-0.2418060302734375,0.0289154052734375
1751013690257951000,7.406950927734375,-0.9857330322265625,-0.2416229248046875,0.02935791015625
1751013690267895000,7.41689501953125,-0.9859771728515625,-0.24053955078125,0.0322723388671875
1751013690277838000,7.426838134765625,-0.983001708984375,-0.2399749755859375,0.0321044921875
1751013690287782000,7.436781982421875,-0.9797515869140625,-0.238922119140625,0.0306549072265625
1751013690297725000,7.446724853515625,-0.97772216796875,-0.2384033203125,0.02911376953125
1751013690307668000,7.45666796875,-0.97711181640625,-0.2383880615234375,0.0315704345703125
1751013690317612000,7.466612060546875,-0.97711181640625,-0.23797607421875,0.03466796875
1751013690327554800,7.476554931640625,-0.976806640625,-0.2386627197265625,0.034637451171875
1751013690337499000,7.486498779296875,-0.9736785888671875,-0.2409820556640625,0.0331573486328125
1751013690347442000,7.49644189453125,-0.9754638671875,-0.2401580810546875,0.033294677734375
1751013690357386000,7.506385986328125,-0.9790802001953125,-0.237548828125,0.0346221923828125
1751013690367328800,7.516328857421875,-0.982452392578125,-0.2362823486328125,0.03485107421875
1751013690377271800,7.526271728515625,-0.9835052490234375,-0.237152099609375,0.033050537109375
1751013690387216000,7.5362158203125,-0.9825897216796875,-0.2377777099609375,0.0310211181640625
1751013690397159000,7.546158935546875,-0.979217529296875,-0.23944091796875,0.030426025390625
1751013690407102700,7.556102783203125,-0.9746246337890625,-0.23992919921875,0.03009033203125
1751013690417045800,7.566045654296875,-0.96722412109375,-0.2406005859375,0.0316162109375
1751013690426989800,7.57598974609375,-0.965545654296875,-0.2398681640625,0.0347137451171875
1751013690436932900,7.585932861328125,-0.968048095703125,-0.2398529052734375,0.0373077392578125
1751013690446876000,7.5958759765625,-0.970062255859375,-0.241851806640625,0.038116455078125
1751013690456820000,7.605820068359375,-0.973663330078125,-0.2412567138671875,0.0386810302734375
1751013690466763000,7.615762939453125,-0.9786834716796875,-0.239288330078125,0.0355377197265625
1751013690476707000,7.62570703125,-0.982421875,-0.2394866943359375,0.0318603515625
1751013690486650000,7.635650146484375,-0.98211669921875,-0.2413330078125,0.0288543701171875
1751013690496593000,7.645593017578125,-0.9779510498046875,-0.239532470703125,0.028045654296875
1751013690506537000,7.655536865234375,-0.9768829345703125,-0.23876953125,0.02880859375
1751013690516480000,7.66547998046875,-0.978515625,-0.240814208984375,0.030426025390625
1751013690526423800,7.675423828125,-0.974395751953125,-0.242950439453125,0.0303802490234375
1751013690536366800,7.685366943359375,-0.9707183837890625,-0.2449951171875,0.0289306640625
1751013690546311000,7.695310791015625,-0.973724365234375,-0.24676513671875,0.0302276611328125
1751013690556254000,7.70525390625,-0.9742584228515625,-0.2503204345703125,0.0325775146484375
1751013690566197000,7.715197021484375,-0.9792022705078125,-0.25,0.033294677734375
1751013690576140800,7.725140869140625,-0.9831695556640625,-0.2470703125,0.0335540771484375
1751013690586087400,7.73508740234375,-0.9739227294921875,-0.24603271484375,0.0160675048828125
1751013690596031500,7.745031494140625,-0.99200439453125,-0.2400665283203125,0.0118560791015625
1751013690605974500,7.754974609375,-0.9979705810546875,-0.2418060302734375,0.014190673828125
1751013690615918600,7.764918701171875,-0.9881744384765625,-0.245513916015625,0.016571044921875
1751013690625861600,7.774861572265625,-0.9852752685546875,-0.24334716796875,0.02142333984375
1751013690635804700,7.7848046875,-0.9915008544921875,-0.241729736328125,0.0223541259765625
1751013690645748700,7.794748779296875,-0.9888763427734375,-0.2454681396484375,0.0226593017578125
1751013690655691500,7.80469140625,-0.9861907958984375,-0.2463226318359375,0.024688720703125
1751013690665635600,7.814635498046875,-0.9858245849609375,-0.2461395263671875,0.0290985107421875
1751013690675578600,7.82457861328125,-0.98358154296875,-0.247772216796875,0.0303497314453125
1751013690685522400,7.8345224609375,-0.9875946044921875,-0.248809814453125,0.0279998779296875
1751013690695465500,7.844465576171875,-0.990509033203125,-0.2478790283203125,0.0242156982421875
1751013690705408500,7.854408447265625,-0.9905242919921875,-0.247100830078125,0.0218963623046875
1751013690715352600,7.8643525390625,-0.9915008544921875,-0.245941162109375,0.02301025390625
1751013690725295600,7.874295654296875,-0.9906005859375,-0.244781494140625,0.0232086181640625
1751013690735239400,7.884239501953125,-0.990447998046875,-0.2429962158203125,0.02301025390625
1751013690745182500,7.894182373046875,-0.9910125732421875,-0.2425689697265625,0.024261474609375
1751013690755126500,7.90412646484375,-0.9900054931640625,-0.2429046630859375,0.0280303955078125
1751013690765069600,7.914069580078125,-0.9899444580078125,-0.243408203125,0.0305938720703125
1751013690775012600,7.9240126953125,-0.9898529052734375,-0.2435455322265625,0.031280517578125
1751013690784956400,7.933956298828125,-0.99139404296875,-0.2421417236328125,0.02935791015625
1751013690794899500,7.9438994140625,-0.99273681640625,-0.2423553466796875,0.0297088623046875
1751013690804843500,7.953843505859375,-0.9936676025390625,-0.24163818359375,0.0326995849609375
1751013690814786600,7.96378662109375,-0.9958648681640625,-0.2400970458984375,0.0305328369140625
1751013690824730600,7.973730712890625,-0.9968719482421875,-0.2388153076171875,0.0261688232421875
1751013690834673700,7.983673583984375,-0.9959259033203125,-0.239990234375,0.0257415771484375
1751013690844616700,7.99361669921875,-0.9969635009765625,-0.240478515625,0.0256500244140625
1751013690854560500,8.003560546875,-0.99517822265625,-0.2418975830078125,0.026702880859375
1751013690864503600,8.013503662109375,-0.990325927734375,-0.24420166015625,0.027435302734375
1751013690874447600,8.023447509765624,-0.98455810546875,-0.24664306640625,0.030181884765625
1751013690884390700,8.033390625,-0.9794769287109375,-0.2479705810546875,0.0325927734375
1751013690894333700,8.043333740234376,-0.975799560546875,-0.2489471435546875,0.031951904296875
1751013690904277500,8.053277587890625,-0.9732818603515625,-0.2504425048828125,0.032989501953125
1751013690914220500,8.063220458984375,-0.96868896484375,-0.2519989013671875,0.03350830078125
1751013690924164600,8.07316455078125,-0.9662933349609375,-0.25225830078125,0.0324554443359375
1751013690934107600,8.083107666015625,-0.9665679931640625,-0.2527923583984375,0.031005859375
1751013690944051500,8.093051513671876,-0.96966552734375,-0.2528076171875,0.0283660888671875
1751013690953994500,8.102994384765625,-0.9724884033203125,-0.2516326904296875,0.028167724609375
1751013690963938600,8.1129384765625,-0.9726104736328125,-0.2508697509765625,0.0309600830078125
1751013690973881600,8.122881591796874,-0.970977783203125,-0.2494049072265625,0.0308380126953125
1751013690983824400,8.132824462890625,-0.9696502685546875,-0.2489013671875,0.03057861328125
1751013690993768400,8.1427685546875,-0.9677276611328125,-0.248748779296875,0.031890869140625
1751013691003711500,8.15271142578125,-0.965972900390625,-0.2475738525390625,0.032623291015625
1751013691013655600,8.162655517578125,-0.968719482421875,-0.24896240234375,0.0358734130859375
1751013691023598300,8.172598388671876,-0.9742431640625,-0.248992919921875,0.0421295166015625
1751013691033541400,8.182541259765625,-0.981781005859375,-0.2478179931640625,0.0431671142578125
1751013691043485700,8.192485595703126,-0.985504150390625,-0.245208740234375,0.0384979248046875
1751013691053428700,8.2024287109375,-0.9854583740234375,-0.2445068359375,0.0331878662109375
1751013691063372500,8.21237255859375,-0.985931396484375,-0.2428131103515625,0.0286102294921875
1751013691073315600,8.222315673828126,-0.982421875,-0.240997314453125,0.0245361328125
1751013691083259600,8.232259765625,-0.97711181640625,-0.241485595703125,0.0168914794921875
1751013691093202700,8.24220263671875,-0.97259521484375,-0.241485595703125,0.0172271728515625
1751013691103145500,8.2521455078125,-0.969573974609375,-0.24407958984375,0.0205535888671875
1751013691113089500,8.262089599609375,-0.967071533203125,-0.24908447265625,0.0244598388671875
1751013691123032600,8.272032470703126,-0.967132568359375,-0.2546844482421875,0.0270233154296875
1751013691132976600,8.2819765625,-0.9724273681640625,-0.255615234375,0.0262298583984375
1751013691142919400,8.29191943359375,-0.9834442138671875,-0.2546844482421875,0.022857666015625
1751013691152863500,8.301863525390624,-0.9924163818359375,-0.25439453125,0.0215606689453125
1751013691162806500,8.311806640625,-0.995391845703125,-0.2534637451171875,0.02227783203125
1751013691172749600,8.32174951171875,-0.996063232421875,-0.250213623046875,0.0248870849609375
1751013691182693400,8.331693359375,-0.9959716796875,-0.247894287109375,0.0224151611328125
1751013691192636400,8.341636474609375,-0.9920806884765625,-0.24615478515625,0.0176849365234375
1751013691202580500,8.35158056640625,-0.985015869140625,-0.2468414306640625,0.0175323486328125
1751013691212523500,8.3615234375,-0.9826507568359375,-0.2481536865234375,0.0235137939453125
1751013691222467300,8.37146728515625,-0.980987548828125,-0.2520599365234375,0.028411865234375
1751013691232410400,8.381410400390624,-0.9854736328125,-0.2566070556640625,0.0313720703125
1751013691242353400,8.391353515625,-0.9898223876953125,-0.259796142578125,0.030364990234375
1751013691252297700,8.401297607421874,-0.9920806884765625,-0.260223388671875,0.0284423828125
1751013691262240800,8.41124072265625,-0.9935760498046875,-0.259735107421875,0.0242462158203125
1751013691272184600,8.4211845703125,-0.9937744140625,-0.2576141357421875,0.021636962890625
1751013691282127600,8.431127685546874,-0.992095947265625,-0.25341796875,0.0193328857421875
1751013691292071700,8.44107177734375,-0.986907958984375,-0.25091552734375,0.0174102783203125
1751013691302014500,8.451014404296876,-0.982391357421875,-0.2493743896484375,0.0183258056640625
1751013691311957500,8.46095751953125,-0.977264404296875,-0.247314453125,0.0227508544921875
1751013691321901600,8.470901611328125,-0.974609375,-0.247833251953125,0.0295257568359375
1751013691331844600,8.4808447265625,-0.9746246337890625,-0.2504119873046875,0.034454345703125
1751013691341788400,8.490788330078125,-0.975067138671875,-0.25311279296875,0.034942626953125
1751013691351731500,8.5007314453125,-0.975311279296875,-0.25469970703125,0.03448486328125
1751013691361674500,8.510674560546875,-0.97625732421875,-0.2572174072265625,0.0367889404296875
1751013691371618600,8.52061865234375,-0.9745025634765625,-0.2570343017578125,0.035797119140625
1751013691381561600,8.5305615234375,-0.9717254638671875,-0.2551727294921875,0.032623291015625
1751013691391505400,8.54050537109375,-0.9743194580078125,-0.2518463134765625,0.033905029296875
1751013691401448400,8.550448486328126,-0.9716644287109375,-0.24981689453125,0.0329742431640625
1751013691411392500,8.560392578125,-0.972625732421875,-0.2469940185546875,0.0317840576171875
1751013691421335600,8.57033544921875,-0.978729248046875,-0.2439422607421875,0.02862548828125
1751013691431278600,8.580278564453126,-0.984039306640625,-0.2434234619140625,0.03179931640625
1751013691441222400,8.590222412109375,-0.9880828857421875,-0.242645263671875,0.03289794921875
1751013691451165400,8.60016552734375,-0.989471435546875,-0.244415283203125,0.0281219482421875
1751013691461109800,8.61010986328125,-0.9835205078125,-0.2475433349609375,0.026031494140625
1751013691471052500,8.620052490234375,-0.985107421875,-0.2463531494140625,0.0252227783203125
1751013691480996600,8.62999658203125,-0.99041748046875,-0.245819091796875,0.0237579345703125
1751013691490939600,8.639939697265625,-0.9944610595703125,-0.2465972900390625,0.0202789306640625
1751013691500882700,8.649882568359375,-0.994598388671875,-0.247589111328125,0.018096923828125
1751013691510826500,8.659826416015624,-0.9913787841796875,-0.2506866455078125,0.02191162109375
1751013691520769500,8.66976953125,-0.9872589111328125,-0.252899169921875,0.0254974365234375
1751013691530713600,8.679713623046876,-0.9854888916015625,-0.2544708251953125,0.02459716796875
1751013691540656600,8.68965673828125,-0.9792327880859375,-0.256805419921875,0.0209197998046875
1751013691550600400,8.699600341796875,-0.97344970703125,-0.2582550048828125,0.0191497802734375
1751013691560543500,8.70954345703125,-0.97540283203125,-0.259979248046875,0.0205078125
1751013691570486500,8.719486572265625,-0.97857666015625,-0.260711669921875,0.022186279296875
1751013691580430600,8.7294306640625,-0.977783203125,-0.2616119384765625,0.0203704833984375
1751013691590370000,8.7393701171875,-0.9754486083984375,-0.2607574462890625,0.019287109375
1751013691600313900,8.74931396484375,-0.9749603271484375,-0.2626800537109375,0.0231170654296875
1751013691610257000,8.7592568359375,-0.9794921875,-0.26141357421875,0.0259246826171875
1751013691620201000,8.769200927734374,-0.979705810546875,-0.2609100341796875,0.026458740234375
1751013691630144000,8.77914404296875,-0.97869873046875,-0.2601165771484375,0.02569580078125
1751013691640086800,8.789086669921875,-0.9784088134765625,-0.2577056884765625,0.025787353515625
1751013691650030800,8.79903076171875,-0.979400634765625,-0.257110595703125,0.02392578125
1751013691659974000,8.808973876953125,-0.98114013671875,-0.255706787109375,0.021514892578125
1751013691669917700,8.818917724609374,-0.97967529296875,-0.253692626953125,0.022674560546875
1751013691679860700,8.82886083984375,-0.9788818359375,-0.25347900390625,0.0234527587890625
1751013691689803800,8.8388037109375,-0.980499267578125,-0.2521820068359375,0.0235137939453125
1751013691699747800,8.848747802734374,-0.98089599609375,-0.2516021728515625,0.02490234375
1751013691709691000,8.85869091796875,-0.98175048828125,-0.2517547607421875,0.0276641845703125
1751013691719635000,8.868635009765624,-0.9810028076171875,-0.2522430419921875,0.0293426513671875
1751013691729578000,8.878577880859375,-0.9781036376953125,-0.2508392333984375,0.0278472900390625
1751013691739522000,8.88852197265625,-0.9774169921875,-0.24932861328125,0.028350830078125
1751013691749465000,8.898465087890624,-0.9796905517578125,-0.2496185302734375,0.0292510986328125
1751013691759407900,8.908407958984375,-0.9803009033203125,-0.2514190673828125,0.0276641845703125
1751013691769352000,8.91835205078125,-0.9775848388671875,-0.2523040771484375,0.0296630859375
1751013691779295000,8.928294921875,-0.9747772216796875,-0.251678466796875,0.0294647216796875
1751013691789239000,8.938239013671875,-0.972320556640625,-0.253265380859375,0.0318145751953125
1751013691799181800,8.948181884765624,-0.9730377197265625,-0.25457763671875,0.03253173828125
1751013691809126000,8.9581259765625,-0.9701385498046875,-0.2575836181640625,0.0336151123046875
1751013691819069000,8.96806884765625,-0.967376708984375,-0.259857177734375,0.0347137451171875
1751013691829012000,8.978011962890625,-0.9680938720703125,-0.259063720703125,0.03497314453125
1751013691838955800,8.987955810546875,-0.97125244140625,-0.2599029541015625,0.032745361328125
1751013691848898800,8.99789892578125,-0.973236083984375,-0.261016845703125,0.0335845947265625
1751013691858843000,9.0078427734375,-0.974578857421875,-0.260467529296875,0.034149169921875
1751013691868786000,9.017785888671876,-0.9775848388671875,-0.2602081298828125,0.032073974609375
1751013691878729700,9.027729736328125,-0.9784393310546875,-0.2592010498046875,0.0285491943359375
1751013691888672800,9.0376728515625,-0.979156494140625,-0.2582855224609375,0.0267791748046875
1751013691898615800,9.04761572265625,-0.979583740234375,-0.256591796875,0.0261688232421875
1751013691908560000,9.057559814453125,-0.9793548583984375,-0.2548065185546875,0.0243988037109375
1751013691918503000,9.0675029296875,-0.9798126220703125,-0.254791259765625,0.021881103515625
1751013691928447000,9.077447021484375,-0.9813232421875,-0.2519073486328125,0.0246429443359375
1751013691938390000,9.08739013671875,-0.9844818115234375,-0.2497100830078125,0.0233001708984375
1751013691948334000,9.097333984375,-0.984649658203125,-0.249114990234375,0.024078369140625
1751013691958276900,9.10727685546875,-0.9889068603515625,-0.24871826171875,0.02581787109375
1751013691968220000,9.117219970703125,-0.9905853271484375,-0.2494964599609375,0.025390625
1751013691978164000,9.1271640625,-0.9863739013671875,-0.2502899169921875,0.023406982421875
1751013691988107000,9.13710693359375,-0.9848785400390625,-0.2490234375,0.0232391357421875
1751013691998050800,9.14705078125,-0.9875946044921875,-0.24810791015625,0.02447509765625
1751013692007993900,9.156993896484375,-0.9886474609375,-0.247161865234375,0.0255126953125
1751013692017937000,9.16693701171875,-0.98944091796875,-0.24932861328125,0.026611328125
1751013692027881000,9.176880859375,-0.98736572265625,-0.2530670166015625,0.026580810546875
1751013692037824000,9.186823974609375,-0.9852142333984375,-0.2548675537109375,0.0279083251953125
1751013692047767800,9.196767822265626,-0.98486328125,-0.2561492919921875,0.02520751953125
1751013692057710800,9.2067109375,-0.9833984375,-0.25830078125,0.02581787109375
1751013692067655000,9.216655029296875,-0.98236083984375,-0.259857177734375,0.0272064208984375
1751013692077598000,9.226597900390624,-0.98114013671875,-0.2616119384765625,0.025390625
1751013692087541000,9.236541015625,-0.9796600341796875,-0.261688232421875,0.0228424072265625
1751013692097484800,9.24648486328125,-0.9836273193359375,-0.2611083984375,0.0257415771484375
1751013692107427800,9.256427734375,-0.98626708984375,-0.2606048583984375,0.025054931640625
1751013692117372000,9.266371826171875,-0.9827880859375,-0.260833740234375,0.0230255126953125
1751013692127314700,9.276314697265626,-0.98211669921875,-0.257659912109375,0.0249786376953125
1751013692137259000,9.286259033203125,-0.980987548828125,-0.2546234130859375,0.023590087890625
1751013692147202000,9.2962021484375,-0.9755859375,-0.254974365234375,0.0238189697265625
1751013692157145000,9.30614501953125,-0.9695587158203125,-0.2527008056640625,0.026153564453125
1751013692167089000,9.3160888671875,-0.969207763671875,-0.24969482421875,0.0277099609375
1751013692177032000,9.326031982421876,-0.9709320068359375,-0.24835205078125,0.030120849609375
1751013692186976000,9.33597607421875,-0.9739990234375,-0.24896240234375,0.0337066650390625
1751013692196919000,9.3459189453125,-0.984283447265625,-0.2477569580078125,0.035369873046875
1751013692206862800,9.35586279296875,-0.990264892578125,-0.247161865234375,0.0357666015625
1751013692216806000,9.365805908203125,-0.989898681640625,-0.2462005615234375,0.0319671630859375
1751013692226749000,9.3757490234375,-0.9843902587890625,-0.24462890625,0.02301025390625
1751013692236693000,9.38569287109375,-0.98193359375,-0.2464752197265625,0.0292510986328125
1751013692246636000,9.395635986328125,-0.97943115234375,-0.2478179931640625,0.0300445556640625
1751013692256579800,9.405579833984374,-0.980682373046875,-0.250091552734375,0.029998779296875
1751013692266523000,9.41552294921875,-0.981048583984375,-0.2534942626953125,0.02777099609375
1751013692276467000,9.425467041015626,-0.9824066162109375,-0.254486083984375,0.028594970703125
1751013692286409700,9.43540966796875,-0.9863128662109375,-0.25579833984375,0.0303192138671875
1751013692296352800,9.445352783203125,-0.988555908203125,-0.2552490234375,0.0301513671875
1751013692306296800,9.455296875,-0.9917449951171875,-0.2534637451171875,0.029205322265625
1751013692316240000,9.465239990234375,-0.9964752197265625,-0.2502899169921875,0.029815673828125
1751013692326183700,9.47518359375,-0.9985504150390625,-0.2501678466796875,0.0300750732421875
1751013692336126700,9.485126708984374,-0.99627685546875,-0.2495574951171875,0.0322723388671875
1751013692346071000,9.495071044921875,-0.9906158447265625,-0.2503509521484375,0.03265380859375
1751013692356014000,9.50501416015625,-0.9788360595703125,-0.252044677734375,0.0321197509765625
1751013692365957000,9.51495703125,-0.969451904296875,-0.252777099609375,0.032806396484375
1751013692375901000,9.52490087890625,-0.9670867919921875,-0.2536163330078125,0.034027099609375
1751013692385844000,9.534843994140624,-0.9724884033203125,-0.2531890869140625,0.0339508056640625
1751013692395788000,9.5447880859375,-0.9794921875,-0.2531280517578125,0.0345611572265625
1751013692405731000,9.55473095703125,-0.9831085205078125,-0.2543487548828125,0.034698486328125
1751013692415675000,9.5646748046875,-0.986968994140625,-0.2541351318359375,0.0320281982421875
1751013692425618000,9.574617919921875,-0.9886016845703125,-0.2536163330078125,0.0280303955078125
1751013692435561000,9.58456103515625,-0.9828338623046875,-0.2528076171875,0.0296630859375
1751013692445505000,9.594505126953125,-0.978515625,-0.2547607421875,0.0275726318359375
1751013692455447800,9.60444775390625,-0.9722900390625,-0.2564544677734375,0.02655029296875
1751013692465391900,9.614391845703125,-0.9680328369140625,-0.255126953125,0.0254364013671875
1751013692475335000,9.6243349609375,-0.96881103515625,-0.2528839111328125,0.02490234375
1751013692485278000,9.63427783203125,-0.9737701416015625,-0.252044677734375,0.02777099609375
1751013692495221800,9.6442216796875,-0.9787445068359375,-0.2532501220703125,0.031158447265625
1751013692505164800,9.654164794921876,-0.9820404052734375,-0.2522125244140625,0.0362701416015625
1751013692515108900,9.66410888671875,-0.9827423095703125,-0.2508392333984375,0.039764404296875
1751013692525052000,9.674052001953125,-0.984527587890625,-0.251434326171875,0.04083251953125
1751013692534995700,9.68399560546875,-0.984466552734375,-0.2527618408203125,0.040069580078125
1751013692544938800,9.693938720703125,-0.97894287109375,-0.2544708251953125,0.0374755859375
1751013692554881800,9.7038818359375,-0.980316162109375,-0.255035400390625,0.0355987548828125
1751013692564826000,9.713826171875,-0.983642578125,-0.25634765625,0.03143310546875
1751013692574769000,9.723768798828125,-0.9836273193359375,-0.25933837890625,0.0299835205078125
1751013692584713000,9.733712890625,-0.9871673583984375,-0.2586822509765625,0.0318145751953125
1751013692594656300,9.74365625,-0.982147216796875,-0.2565765380859375,0.0329437255859375
1751013692604600000,9.75360009765625,-0.9793548583984375,-0.25531005859375,0.038299560546875
1751013692614543000,9.763543212890625,-0.9793548583984375,-0.2533111572265625,0.0400238037109375
1751013692624486100,9.773486083984375,-0.97674560546875,-0.25164794921875,0.0397491455078125
1751013692634430200,9.78343017578125,-0.9792633056640625,-0.2516632080078125,0.0386505126953125
1751013692644373200,9.793373291015625,-0.981689453125,-0.2531585693359375,0.03704833984375
1751013692654317000,9.803317138671876,-0.9781341552734375,-0.2576904296875,0.030914306640625
1751013692664260000,9.813260009765624,-0.9885101318359375,-0.25531005859375,0.02740478515625
1751013692674204400,9.823204345703125,-0.98089599609375,-0.25439453125,0.0380859375
1751013692684147500,9.8331474609375,-0.9783172607421875,-0.2551727294921875,0.035736083984375
1751013692694090200,9.84309033203125,-0.9749755859375,-0.25164794921875,0.035980224609375
1751013692704034300,9.853034423828126,-0.971893310546875,-0.2515716552734375,0.03192138671875
1751013692713977300,9.862977294921874,-0.97381591796875,-0.2549896240234375,0.0339202880859375
1751013692723921400,9.87292138671875,-0.979522705078125,-0.2526702880859375,0.044525146484375
1751013692733864200,9.8828642578125,-0.9783172607421875,-0.2548828125,0.0419158935546875
1751013692743808300,9.892808349609375,-0.979156494140625,-0.2521514892578125,0.0454559326171875
1751013692753751300,9.902751220703125,-0.977142333984375,-0.2520904541015625,0.0451507568359375
1751013692763694300,9.9126943359375,-0.975006103515625,-0.2583160400390625,0.0410003662109375
1751013692773638100,9.92263818359375,-0.9756927490234375,-0.2628021240234375,0.0440216064453125
1751013692783581200,9.932581298828126,-0.9820709228515625,-0.2587890625,0.0396270751953125
1751013692793525200,9.942525146484375,-0.980010986328125,-0.2605133056640625,0.0442047119140625
1751013692803468300,9.95246826171875,-0.9781494140625,-0.261871337890625,0.052490234375
1751013692813411300,9.962411376953124,-0.9812469482421875,-0.263916015625,0.045745849609375
1751013692823355100,9.972355224609375,-0.9787445068359375,-0.261199951171875,0.0419921875
1751013692833298200,9.982298095703126,-0.9714813232421875,-0.259735107421875,0.041015625
1751013692843242200,9.9922421875,-0.969451904296875,-0.2628021240234375,0.0362091064453125
1751013692853185300,10.002185302734375,-0.9653472900390625,-0.2626495361328125,0.03204345703125
1751013692863129000,10.012129150390624,-0.96539306640625,-0.260986328125,0.0353546142578125
1751013692873072000,10.022072021484375,-0.9709320068359375,-0.26019287109375,0.03497314453125
1751013692883015200,10.03201513671875,-0.97869873046875,-0.258758544921875,0.035736083984375
1751013692892959200,10.041959228515625,-0.9835052490234375,-0.2576904296875,0.03857421875
1751013692902902000,10.051902099609375,-0.987518310546875,-0.26025390625,0.0413360595703125
1751013692912846300,10.061846435546874,-0.9910125732421875,-0.2631988525390625,0.03753662109375
1751013692922789400,10.071789306640625,-0.98907470703125,-0.2631378173828125,0.0370025634765625
1751013692932733200,10.081733154296876,-0.9817047119140625,-0.2631072998046875,0.0377960205078125
1751013692942676200,10.09167626953125,-0.97869873046875,-0.261260986328125,0.03955078125
1751013692952619300,10.101619384765625,-0.9762420654296875,-0.2598724365234375,0.041290283203125
1751013692962563300,10.111563232421876,-0.975555419921875,-0.2608489990234375,0.04022216796875
1751013692972506400,10.12150634765625,-0.9783782958984375,-0.26092529296875,0.0391998291015625
1751013692982450200,10.1314501953125,-0.98040771484375,-0.2601165771484375,0.0407867431640625
1751013692992393200,10.141393310546874,-0.977630615234375,-0.2628936767578125,0.0382080078125
1751013693002337300,10.151337158203125,-0.9788818359375,-0.2613677978515625,0.0402069091796875
1751013693012280300,10.1612802734375,-0.980926513671875,-0.2586517333984375,0.04693603515625
1751013693022223400,10.171223388671875,-0.9816436767578125,-0.2578277587890625,0.0421142578125
1751013693032167200,10.181167236328125,-0.9853515625,-0.255401611328125,0.038787841796875
1751013693042110200,10.191110107421874,-0.98486328125,-0.2545623779296875,0.04180908203125
1751013693052054300,10.20105419921875,-0.9796142578125,-0.2557525634765625,0.0434722900390625
1751013693061997000,10.2109970703125,-0.9791412353515625,-0.2568206787109375,0.0407867431640625
1751013693071940000,10.220940185546874,-0.9783782958984375,-0.255889892578125,0.040008544921875
1751013693081884200,10.23088427734375,-0.9747161865234375,-0.2554473876953125,0.0369873046875
1751013693091827200,10.2408271484375,-0.97113037109375,-0.25634765625,0.0332489013671875
1751013693101771300,10.250771240234375,-0.9752655029296875,-0.254547119140625,0.0330657958984375
1751013693111714300,10.26071435546875,-0.9797210693359375,-0.2529144287109375,0.0344696044921875
1751013693121658400,10.270658447265625,-0.980865478515625,-0.2540283203125,0.0367431640625
1751013693131601400,10.280601318359375,-0.977569580078125,-0.254425048828125,0.0389404296875
1751013693141544400,10.29054443359375,-0.9741668701171875,-0.2530517578125,0.0388031005859375
1751013693151488300,10.30048828125,-0.9741973876953125,-0.2538299560546875,0.035888671875
1751013693161431300,10.310431396484375,-0.979949951171875,-0.253997802734375,0.0341644287109375
1751013693171375400,10.320375244140624,-0.983306884765625,-0.2540740966796875,0.0323333740234375
1751013693181318400,10.330318359375,-0.9824066162109375,-0.2548065185546875,0.0314483642578125
1751013693191262200,10.34026220703125,-0.98114013671875,-0.2563629150390625,0.0317535400390625
1751013693201205200,10.350205322265625,-0.9791717529296875,-0.2561492919921875,0.033782958984375
1751013693211148300,10.360148193359375,-0.977081298828125,-0.257049560546875,0.039459228515625
1751013693221092400,10.37009228515625,-0.9801025390625,-0.257904052734375,0.034759521484375
1751013693231035100,10.38003515625,-0.9819793701171875,-0.257293701171875,0.034088134765625
1751013693240979200,10.389979248046876,-0.982391357421875,-0.2579193115234375,0.0341339111328125
1751013693250922200,10.399922119140625,-0.981689453125,-0.258575439453125,0.0348358154296875
1751013693260866000,10.409865966796875,-0.9841766357421875,-0.25726318359375,0.0354766845703125
1751013693270809000,10.41980908203125,-0.9840545654296875,-0.255828857421875,0.0406341552734375
1751013693280752000,10.429752197265625,-0.9871978759765625,-0.25347900390625,0.0395965576171875
1751013693290696200,10.4396962890625,-0.9851837158203125,-0.2496490478515625,0.0330963134765625
1751013693300639200,10.44963916015625,-0.9821624755859375,-0.2460784912109375,0.0294647216796875
1751013693310583300,10.459583251953125,-0.985107421875,-0.24462890625,0.02899169921875
1751013693320526300,10.4695263671875,-0.991119384765625,-0.2445526123046875,0.028533935546875
1751013693330470400,10.479470458984375,-0.992279052734375,-0.24835205078125,0.0307464599609375
1751013693340413400,10.489413330078126,-0.9872283935546875,-0.2493896484375,0.03594970703125
1751013693350356200,10.499356201171874,-0.98114013671875,-0.2476806640625,0.0404205322265625
1751013693360300300,10.50930029296875,-0.978057861328125,-0.250152587890625,0.0369873046875
1751013693370243300,10.519243408203126,-0.978424072265625,-0.2571563720703125,0.0370941162109375
1751013693380187400,10.5291875,-0.982452392578125,-0.2585296630859375,0.0391693115234375
1751013693390130200,10.539130126953125,-0.993438720703125,-0.2570343017578125,0.03424072265625
1751013693400073200,10.5490732421875,-0.99029541015625,-0.252410888671875,0.028961181640625
1751013693410017300,10.559017333984375,-0.94500732421875,-0.245697021484375,0.03533935546875
1751013693419960300,10.568960205078126,-0.88092041015625,-0.2413482666015625,0.0543670654296875
1751013693429904100,10.578904052734375,-0.94091796875,-0.245574951171875,0.06805419921875
1751013693439847200,10.58884716796875,-0.983062744140625,-0.261260986328125,0.0545196533203125
1751013693449791200,10.598791259765624,-1.00677490234375,-0.267425537109375,0.0414581298828125
1751013693459734300,10.608734375,-1.0085601806640625,-0.2670745849609375,0.04010009765625
1751013693469677300,10.61867724609375,-1.0094757080078125,-0.2658843994140625,0.0363922119140625
1751013693479621000,10.62862109375,-1.024444580078125,-0.26373291015625,0.031951904296875
1751013693489564200,10.638564208984375,-1.032989501953125,-0.260345458984375,0.0322113037109375
1751013693499508200,10.64850830078125,-1.0092010498046875,-0.2494049072265625,0.0434112548828125
1751013693509451300,10.658451171875,-0.9723052978515625,-0.2467803955078125,0.04498291015625
