time,seconds_elapsed,z,y,x
1751013773841617400,0.103617431640625,-0.08157874643802643,0.02430107817053795,-0.007452323567122221
1751013773851560400,0.113560546875,-0.07923649996519089,0.026208700612187386,-0.0016431703697890043
1751013773861504300,0.123504150390625,-0.08325360715389252,0.016388826072216034,-0.005340436939150095
1751013773871447300,0.133447265625,-0.08917142450809479,0.004239752423018217,-0.009822270832955837
1751013773881391400,0.143391357421875,-0.10136869549751282,0.004610198084264994,-0.004809935111552477
1751013773891334400,0.15333447265625,-0.11192280799150467,0.014099307358264923,0.013598899357020855
1751013773901277200,0.163277099609375,-0.12071815878152847,0.024032631888985634,0.013274259865283966
1751013773911221200,0.17322119140625,-0.11065194755792618,0.04356132447719574,0.004151335451751947
1751013773921164300,0.183164306640625,-0.09284312278032303,0.06502453982830048,-0.004911401774734259
1751013773931108400,0.1931083984375,-0.08013372123241425,0.07877737283706665,-0.010814830660820007
1751013773941051100,0.203051025390625,-0.07495679706335068,0.07710064202547073,-0.019287144765257835
1751013773950994200,0.212994140625,-0.07380285114049911,0.06410867720842361,-0.025848375633358955
1751013773960938200,0.222938232421875,-0.0790514126420021,0.04442019388079643,-0.015823969617486
1751013773970881300,0.23288134765625,-0.0868278369307518,0.022643260657787323,-0.014909973368048668
1751013773980825000,0.2428251953125,-0.08817486464977264,0.006306099239736795,-0.031320370733737946
1751013773990768000,0.25276806640625,-0.09169530123472214,0.0005528722540475428,-0.058996476233005524
1751013774000711200,0.262711181640625,-0.08531835675239563,0.02418203465640545,-0.09577499330043793
1751013774010655200,0.2726552734375,-0.06742963939905167,0.04814302921295166,-0.11597853153944016
1751013774020598300,0.282598388671875,-0.04200976714491844,0.06546635925769806,-0.11770106852054596
1751013774030542300,0.292542236328125,-0.024027571082115173,0.07048188894987106,-0.10540791600942612
1751013774040485400,0.3024853515625,-0.01369210984557867,0.06902913749217987,-0.086924247443676
1751013774050428400,0.312428466796875,-0.013500362634658813,0.06467566639184952,-0.08770907670259476
1751013774060372500,0.32237255859375,-0.019823240116238594,0.06271851062774658,-0.0934138372540474
1751013774070315300,0.332315185546875,-0.026939472183585167,0.05944069102406502,-0.10654455423355103
1751013774080259300,0.34225927734375,-0.035597141832113266,0.0619208924472332,-0.11311856657266617
1751013774090202400,0.352202392578125,-0.04201402887701988,0.07093888521194458,-0.11615004390478134
1751013774100145400,0.3621455078125,-0.04495735466480255,0.08291298896074295,-0.11493270844221115
1751013774110089200,0.372089111328125,-0.036015789955854416,0.09048888832330704,-0.10751181095838547
1751013774120032300,0.3820322265625,-0.020191820338368416,0.10228509455919266,-0.0926862582564354
1751013774129976300,0.391976318359375,-0.0031467911321669817,0.12009551376104355,-0.08600412309169769
1751013774139919400,0.40191943359375,0.008423578925430775,0.1440003216266632,-0.09081538766622543
1751013774149863200,0.41186328125,0.02454528957605362,0.16572850942611694,-0.10266406089067459
1751013774159806200,0.42180615234375,0.039866987615823746,0.17031420767307281,-0.11702675372362137
1751013774169749200,0.431749267578125,0.04627269133925438,0.17072540521621704,-0.12290222197771072
1751013774179693300,0.441693359375,0.04150483384728432,0.1597776859998703,-0.1197756677865982
1751013774189636400,0.45163623046875,0.030431674793362617,0.12771987915039062,-0.11775859445333481
1751013774199580200,0.461580078125,0.006175337824970484,0.08497321605682373,-0.11298274248838425
1751013774209523200,0.471523193359375,-0.016743825748562813,0.043171171098947525,-0.09749513119459152
1751013774219466200,0.48146630859375,-0.03648264333605766,0.01673983223736286,-0.0814967229962349
1751013774229410000,0.49141015625,-0.044136036187410355,0.00549170421436429,-0.07081824541091919
1751013774239353000,0.50135302734375,-0.04617468640208244,0.008072573691606522,-0.06870423257350922
1751013774249297400,0.51129736328125,-0.0388035885989666,0.025918683037161827,-0.08773065358400345
1751013774259240400,0.521240478515625,-0.02767849899828434,0.05363260209560394,-0.12155439704656601
1751013774269183500,0.53118359375,-0.018822956830263138,0.07651820778846741,-0.1588013619184494
1751013774279127300,0.541127197265625,-0.006374808494001627,0.09780805557966232,-0.18136100471019745
1751013774289070300,0.5510703125,0.0014940333785489202,0.1154610812664032,-0.1862146109342575
1751013774299014400,0.561014404296875,0.014089187607169151,0.12891536951065063,-0.1859951764345169
1751013774308957400,0.57095751953125,0.02382011152803898,0.13314393162727356,-0.17902007699012756
1751013774318901200,0.5809013671875,0.03494546562433243,0.12705008685588837,-0.14882516860961914
1751013774328844300,0.59084423828125,0.03927922993898392,0.11862199008464813,-0.11849042773246765
1751013774338787300,0.600787353515625,0.0413287989795208,0.10382493585348129,-0.08162348717451096
1751013774348731400,0.6107314453125,0.04135436564683914,0.08942548930644989,-0.04441114142537117
1751013774358674200,0.620674072265625,0.036489035934209824,0.07645775377750397,-0.016866598278284073
1751013774368618200,0.6306181640625,0.026219619438052177,0.057261157780885696,0.0059963734820485115
1751013774378561300,0.640561279296875,0.016103336587548256,0.041728537529706955,0.0011467571603134274
1751013774388504300,0.65050439453125,0.01272564847022295,0.023628629744052887,-0.020850153639912605
1751013774398448000,0.6604482421875,0.0005331648280844092,0.0068312743678689,-0.04581436142325401
1751013774408391200,0.67039111328125,-0.009796437807381153,-0.006244580261409283,-0.05970247834920883
1751013774418335200,0.680335205078125,-0.02562679909169674,-0.008503739722073078,-0.06926029920578003
1751013774428278300,0.6902783203125,-0.01931803859770298,-0.005477056838572025,-0.052445363253355026
1751013774438221300,0.70022119140625,-0.010462228208780289,0.001529187080450356,-0.021697837859392166
1751013774448165000,0.7101650390625,0.0049465554766356945,0.005086637567728758,0.01145958248525858
1751013774458108200,0.720108154296875,0.018385931849479675,0.004535097163170576,0.04548279568552971
1751013774468052500,0.730052490234375,0.024020913988351822,0.012343751266598701,0.06917401403188705
1751013774477995500,0.73999560546875,0.01992257498204708,0.01654701866209507,0.07639516890048981
1751013774487939300,0.749939208984375,0.018635736778378487,0.015987223014235497,0.06205138564109802
1751013774497882400,0.75988232421875,0.015097459778189659,0.019694343209266663,0.0422276146709919
1751013774507825400,0.769825439453125,0.013702229596674442,0.013284379616379738,0.023848608136177063
1751013774517769200,0.779769287109375,0.005301821045577526,0.0064773401245474815,0.00637827068567276
1751013774527712300,0.789712158203125,-0.0018258632626384497,0.0014524880098178983,-0.0092334458604455
1751013774537656300,0.79965625,-0.014915033243596554,-0.009067530743777752,-0.019957728683948517
1751013774547599400,0.809599365234375,-0.021462680771946907,-0.01985333301126957,-0.0314258337020874
1751013774557542400,0.81954248046875,-0.030286001041531563,-0.035895682871341705,-0.035714056342840195
1751013774567486200,0.829486328125,-0.0404353067278862,-0.04806499555706978,-0.037157222628593445
1751013774577429200,0.83942919921875,-0.0477193184196949,-0.05841111019253731,-0.03470391780138016
1751013774587373300,0.849373291015625,-0.04637175798416138,-0.06867759674787521,-0.02822391502559185
1751013774597316400,0.85931640625,-0.033858899027109146,-0.0738619714975357,-0.017942780628800392
1751013774607259400,0.86925927734375,-0.024035828188061714,-0.06961263716220856,-0.008019044063985348
1751013774617203200,0.879203125,-0.01044305320829153,-0.06042392924427986,-0.006523945834487677
1751013774627146200,0.889146240234375,0.004405933897942305,-0.041968222707509995,-0.006046440917998552
1751013774637090300,0.89909033203125,0.011039068922400475,-0.016082828864455223,-0.021334582939743996
1751013774647033000,0.909033203125,0.018793661147356033,0.005367601290345192,-0.0377843976020813
1751013774656977200,0.91897705078125,0.025624403730034828,0.022310897707939148,-0.055859003216028214
1751013774666920000,0.928919921875,0.022726884111762047,0.0327339768409729,-0.0834277793765068
1751013774676863000,0.938863037109375,0.02063976414501667,0.022901054471731186,-0.10222064703702927
1751013774686807000,0.94880712890625,0.01889193244278431,0.013716877438127995,-0.10197270661592484
1751013774696749800,0.958749755859375,0.018704446032643318,0.0038195056840777397,-0.07819893211126328
1751013774706694000,0.96869384765625,0.024601750075817108,0.0049460227601230145,-0.0355667807161808
1751013774716637000,0.978636962890625,0.03924780339002609,0.016438893973827362,0.0057167415507137775
1751013774726580000,0.988580078125,0.056543171405792236,0.03615480661392212,0.035461585968732834
1751013774736523800,0.998523681640625,0.07820133119821548,0.05182724446058273,0.04700426012277603
1751013774746466800,1.008466796875,0.10057534277439117,0.06393903493881226,0.05656447634100914
1751013774756411000,1.018410888671875,0.11720625311136246,0.0612950474023819,0.0506109781563282
1751013774766354000,1.02835400390625,0.1143401563167572,0.04947727173566818,0.04291364550590515
1751013774776297000,1.038296875,0.10535385459661484,0.046003177762031555,0.031158186495304108
1751013774786241000,1.048240966796875,0.08895383775234222,0.047198936343193054,0.01751348003745079
1751013774796184000,1.05818408203125,0.06923633068799973,0.045819152146577835,0.0008460862445645034
1751013774806128000,1.068128173828125,0.0493377223610878,0.043236687779426575,-0.018190721049904823
1751013774816071000,1.07807080078125,0.04024515673518181,0.043847084045410156,-0.03652232512831688
1751013774826015000,1.088014892578125,0.03459552675485611,0.03677665814757347,-0.046845801174640656
1751013774835958000,1.0979580078125,0.02671896293759346,0.03014272265136242,-0.04296158254146576
1751013774845901000,1.107901123046875,0.0180562324821949,0.027950141578912735,-0.02557380311191082
1751013774855844900,1.117844970703125,0.015616243705153465,0.024090955033898354,0.0018708707066252828
1751013774865788000,1.127787841796875,0.01426229253411293,0.025198563933372498,0.03002341277897358
1751013774875732000,1.13773193359375,0.013483851216733456,0.02629152499139309,0.04934943839907646
1751013774885675000,1.147675048828125,0.01672651618719101,0.03556704893708229,0.06411533802747726
1751013774895618000,1.1576181640625,0.027454527094960213,0.04300552234053612,0.06804296374320984
1751013774905561900,1.167561767578125,0.03241866081953049,0.04119723662734032,0.06800488382577896
1751013774915505000,1.1775048828125,0.030363498255610466,0.03410071134567261,0.045403700321912766
1751013774925449000,1.187448974609375,0.027906998991966248,0.01720934733748436,0.01648416742682457
1751013774935392000,1.19739208984375,0.02309919334948063,0.0027891285717487335,-0.0072943982668221
1751013774945334800,1.207334716796875,0.013547766953706741,-0.013562680222094059,-0.027044933289289474
1751013774955278800,1.21727880859375,0.004670917987823486,-0.0319608636200428,-0.04517653211951256
1751013774965222000,1.227221923828125,0.007286408916115761,-0.037454165518283844,-0.034146253019571304
1751013774975166000,1.237166015625,0.019540945068001747,-0.03181145712733269,-0.012384497560560703
1751013774985108700,1.247108642578125,0.03827441856265068,-0.023379091173410416,0.013708354905247688
1751013774995051800,1.2570517578125,0.05542570725083351,-0.007622233126312494,0.03730636090040207
1751013775004996000,1.26699609375,0.07537518441677094,0.01386734563857317,0.05844466760754585
1751013775014939000,1.27693896484375,0.09543171525001526,0.030312897637486458,0.06644134223461151
1751013775024883000,1.286883056640625,0.11541048437356949,0.03573722392320633,0.07913157343864441
1751013775034826000,1.296825927734375,0.12279941886663437,0.04571768641471863,0.08798125386238098
1751013775044770000,1.30677001953125,0.12392114847898483,0.03730342909693718,0.0949787124991417
1751013775054713000,1.316713134765625,0.11277661472558975,0.023189742118120193,0.09802776575088501
1751013775064656100,1.32665625,0.09477391093969345,0.011130415834486485,0.0870499461889267
1751013775074600000,1.336599853515625,0.06740114092826843,-0.0034048515371978283,0.06426633894443512
1751013775084543000,1.34654296875,0.05152950435876846,-0.006915430538356304,0.03868081793189049
1751013775094487000,1.356487060546875,0.04216556251049042,-0.0011113371001556516,0.019707923755049706
1751013775104430000,1.36643017578125,0.03578702732920647,0.0030916635878384113,0.0022511701099574566
1751013775114372900,1.376372802734375,0.03399551659822464,0.0070099723525345325,0.003236806020140648
1751013775124317000,1.38631689453125,0.030231405049562454,0.008884837850928307,0.015683887526392937
1751013775134260000,1.396260009765625,0.016269251704216003,0.007158843334764242,0.0388944037258625
1751013775144203800,1.406203857421875,0.013545902445912361,0.003721234854310751,0.05470878630876541
1751013775154146800,1.416146728515625,0.005559082608669996,-0.004069310147315264,0.06886748224496841
1751013775164089900,1.42608984375,0.012793293222784996,-0.004061054438352585,0.07716269791126251
1751013775174034000,1.436033935546875,0.030701985582709312,0.002725212834775448,0.07795711606740952
1751013775183977000,1.44597705078125,0.05540067330002785,0.02052951045334339,0.07713819295167923
1751013775193920800,1.455920654296875,0.07716961950063705,0.03448367491364479,0.06935883313417435
1751013775203863800,1.46586376953125,0.10110504925251007,0.059479039162397385,0.06340533494949341
1751013775213808000,1.47580810546875,0.11165089905261993,0.0827643871307373,0.043708331882953644
1751013775223751000,1.4857509765625,0.11311190575361252,0.08597296476364136,0.0145874647423625
1751013775233694000,1.49569384765625,0.10030370205640793,0.0710989460349083,-0.018511632457375526
1751013775243638000,1.505637939453125,0.07666734606027603,0.04205850511789322,-0.0423559807240963
1751013775253581000,1.5155810546875,0.04553286358714104,0.00777536490932107,-0.05590960383415222
1751013775263525000,1.525525146484375,0.017347564920783043,-0.02189837396144867,-0.052387308329343796
1751013775273468000,1.535468017578125,-0.002010420197620988,-0.0291775930672884,-0.031805068254470825
1751013775283411000,1.545410888671875,-0.010952250100672245,-0.029315277934074402,-0.008497614413499832
1751013775293355000,1.55535498046875,-0.015625564381480217,-0.017245300114154816,0.004116448108106852
1751013775303298000,1.565298095703125,-0.014125406742095947,0.012764531187713146,0.007546333130449057
1751013775313241900,1.575241943359375,-0.008160191588103771,0.03774897754192352,0.0005195827106945217
1751013775323185000,1.585184814453125,-0.0006476807757280767,0.04767511039972305,-0.01727805659174919
1751013775333128000,1.5951279296875,0.012144014239311218,0.05649123713374138,-0.03259842470288277
1751013775343072000,1.605072021484375,0.014679343439638615,0.06083964928984642,-0.05216732993721962
1751013775353015000,1.61501513671875,0.013622068800032139,0.056412409991025925,-0.06010834500193596
1751013775362958800,1.624958740234375,-0.0030192257836461067,0.04778856039047241,-0.06199759244918823
1751013775372902000,1.63490185546875,-0.0237607229501009,0.03142716363072395,-0.05697194114327431
1751013775382845000,1.644844970703125,-0.04169232025742531,0.018038388341665268,-0.04398796334862709
1751013775392789000,1.6547890625,-0.05627578869462013,0.005708752200007439,-0.025552764534950256
1751013775402731800,1.664731689453125,-0.06199492886662483,-0.004939631093293428,-0.0037731665652245283
1751013775412675800,1.67467578125,-0.057432398200035095,-0.012354138307273388,0.007800931576639414
1751013775422619000,1.684618896484375,-0.03507329896092415,-0.005347893573343754,0.023685088381171227
1751013775432563000,1.69456298828125,-0.010360495187342167,0.012195413932204247,0.03940439596772194
1751013775442505700,1.704505615234375,0.013324594125151634,0.026274746283888817,0.04506468027830124
1751013775452448800,1.71444873046875,0.02997414395213127,0.037471476942300797,0.04550729691982269
1751013775462393000,1.72439306640625,0.037396639585494995,0.044423658400774,0.03416276350617409
1751013775472336100,1.734336181640625,0.03976445645093918,0.042096320539712906,0.013438576832413673
1751013775482280000,1.744280029296875,0.03604721650481224,0.032819200307130814,-0.004590490832924843
1751013775492223000,1.754222900390625,0.022399581968784332,0.014091051183640957,-0.020771590992808342
1751013775502166000,1.764166015625,0.004680239129811525,-0.009432650171220303,-0.026989540085196495
1751013775512110000,1.774110107421875,-0.003466104157269001,-0.02853097766637802,-0.024810807779431343
1751013775522053000,1.78405322265625,-0.0024551681708544493,-0.037940457463264465,-0.010625213384628296
1751013775531997000,1.793996826171875,0.006173473782837391,-0.039685893803834915,0.002167813014239073
1751013775541940000,1.80393994140625,0.02400972880423069,-0.03415796905755997,0.018100973218679428
1751013775551883000,1.813883056640625,0.04132320359349251,-0.02178492397069931,0.0374365895986557
1751013775561827000,1.8238271484375,0.0609685443341732,-0.002037850907072425,0.06125110760331154
1751013775571769900,1.833769775390625,0.08100643754005432,0.005333512555807829,0.07016231119632721
1751013775581714000,1.8437138671875,0.08850935846567154,0.0070403325371444225,0.06793484091758728
1751013775591657000,1.853656982421875,0.0929267480969429,0.0119117870926857,0.062191467732191086
1751013775601600800,1.863600830078125,0.08497694134712219,0.0033220271579921246,0.04732117801904678
1751013775611543800,1.873543701171875,0.06522507220506668,-0.008715194649994373,0.03646400198340416
1751013775621486800,1.88348681640625,0.047199737280607224,-0.011595137417316437,0.031190410256385803
1751013775631431000,1.893430908203125,0.0276755690574646,-0.014620487578213215,0.03452415391802788
1751013775641374000,1.9033740234375,0.010897122323513031,-0.017946776002645493,0.03229668736457825
1751013775651317800,1.91331787109375,-0.0013049489352852106,-0.013972274959087372,0.030773358419537544
1751013775661260800,1.9232607421875,-0.0062613580375909805,-0.00535348616540432,0.024631842970848083
1751013775671204400,1.933204345703125,-0.0024019049014896154,0.007704524789005518,0.015414642170071602
1751013775681148400,1.9431484375,0.005528988782316446,0.018460499122738838,-0.006679208017885685
1751013775691091200,1.95309130859375,0.02244378998875618,0.026791134849190712,-0.022162294015288353
1751013775701035300,1.96303515625,0.038972966372966766,0.027803935110569,-0.029737655073404312
1751013775710978300,1.972978271484375,0.05488748475909233,0.026256637647747993,-0.032278578728437424
1751013775720921300,1.98292138671875,0.05662626028060913,0.004462658893316984,-0.024474449455738068
1751013775730865200,1.992865234375,0.057004164904356,-0.019958261400461197,-0.009590042755007744
1751013775740808200,2.00280810546875,0.04356638714671135,-0.04059562832117081,0.009610549546778202
1751013775750752300,2.012752197265625,0.029992787167429924,-0.058228686451911926,0.019993148744106293
1751013775760695300,2.0226953125,0.020362529903650284,-0.06284500658512115,0.02551627904176712
1751013775770639400,2.032639404296875,0.02592294290661812,-0.05633357912302017,0.021317007020115852
1751013775780582400,2.04258251953125,0.04567614197731018,-0.04799841716885567,0.006191583350300789
1751013775790525400,2.052525390625,0.06428764015436172,-0.033547572791576385,-0.008730107918381691
1751013775800469500,2.062469482421875,0.07700929790735245,-0.024526648223400116,-0.025021996349096298
1751013775810412300,2.072412353515625,0.09425299614667892,-0.012264922261238098,-0.028139226138591766
1751013775820356400,2.0823564453125,0.10257510840892792,-0.0028125643730163574,-0.014489993453025818
1751013775830299400,2.09229931640625,0.10506463050842285,0.000821318884845823,0.007103183306753635
1751013775840242400,2.102242431640625,0.10690487921237946,0.002543318783864379,0.030292391777038574
1751013775850186200,2.112186279296875,0.10396448522806168,-0.0062309978529810905,0.05578390508890152
1751013775860129300,2.12212939453125,0.10395782440900803,-0.020842963829636574,0.06620831787586212
1751013775870073300,2.1320732421875,0.09579256922006607,-0.03971065953373909,0.05583290383219719
1751013775880016400,2.142016357421875,0.08165917545557022,-0.04435707628726959,0.027586353942751884
1751013775889959400,2.15195947265625,0.06381653249263763,-0.04387078434228897,-0.006324741058051586
1751013775899903200,2.1619033203125,0.05625128746032715,-0.029161613434553146,-0.035527635365724564
1751013775909846300,2.17184619140625,0.05745956301689148,-0.007840612903237343,-0.05451064556837082
1751013775919790300,2.181790283203125,0.05808966979384422,0.009260609745979309,-0.06192115694284439
1751013775929733400,2.1917333984375,0.06124604493379593,0.021710621193051338,-0.05155054107308388
1751013775939676200,2.20167626953125,0.0639510229229927,0.026383936405181885,-0.029807696118950844
1751013775949620200,2.2116201171875,0.06817851960659027,0.02400386892259121,-0.007466438226401806
1751013775959563300,2.221563232421875,0.06800834834575653,0.009812949225306511,0.014112357050180435
1751013775969507300,2.23150732421875,0.06606104224920273,-0.010924287140369415,0.03760889545083046
1751013775979450000,2.2414501953125,0.05487789586186409,-0.031740352511405945,0.04956355690956116
1751013775989394400,2.25139453125,0.04948579519987106,-0.04508572071790695,0.0491797961294651
1751013775999337500,2.26133740234375,0.04466573894023895,-0.046480949968099594,0.041856102645397186
1751013776009280300,2.2712802734375,0.040042225271463394,-0.03623177483677864,0.01992523856461048
1751013776019224300,2.281224365234375,0.034631215035915375,-0.030714236199855804,0.0010713896481320262
1751013776029167400,2.29116748046875,0.03632977977395058,-0.03153582289814949,-0.006533532869070768
1751013776039111400,2.301111328125,0.0398227795958519,-0.0365164652466774,0.0005161206354387105
1751013776049054500,2.311054443359375,0.04454110190272331,-0.043526969850063324,0.016926785930991173
1751013776058997500,2.32099755859375,0.05058647692203522,-0.04375999793410301,0.03752580285072327
1751013776068941300,2.33094140625,0.07038175314664841,-0.032340630888938904,0.06710553169250488
1751013776078884400,2.34088427734375,0.08809603750705719,-0.014858308248221874,0.08433858305215836
1751013776088828400,2.350828369140625,0.10471762716770172,0.003620833856984973,0.0901956707239151
1751013776098771500,2.360771484375,0.1229134052991867,0.028905950486660004,0.09363381564617157
1751013776108714200,2.37071435546875,0.1393032968044281,0.04706098511815071,0.08451887965202332
1751013776118658300,2.380658203125,0.1364222913980484,0.03965766355395317,0.05843880772590637
1751013776128601300,2.390601318359375,0.11547359824180603,0.01684156432747841,0.02701404131948948
1751013776138545200,2.400545166015625,0.08190951496362686,-0.008283229544758797,-0.000368847802747041
1751013776148488200,2.41048828125,0.04700319468975067,-0.030898261815309525,-0.006179066374897957
1751013776158432300,2.420432373046875,0.024345818907022476,-0.049306564033031464,-0.0038245655596256256
1751013776168375300,2.430375244140625,0.021948175504803658,-0.04719387739896774,0.009884322062134743
1751013776178318300,2.440318359375,0.03371508792042732,-0.02695305459201336,0.023790284991264343
1751013776188262100,2.45026220703125,0.05932164564728737,0.0016421051695942879,0.031801071017980576
1751013776198205200,2.460205078125,0.0800841823220253,0.025492576882243156,0.02322143316268921
1751013776208149500,2.4701494140625,0.1050848737359047,0.040825460106134415,0.0016908409306779504
1751013776218092300,2.48009228515625,0.11623845994472504,0.04487426578998566,-0.020830446854233742
1751013776228035300,2.490035400390625,0.11981295049190521,0.04126488044857979,-0.03411083295941353
1751013776237979400,2.4999794921875,0.10990040004253387,0.028195951133966446,-0.03883608058094978
1751013776247922400,2.50992236328125,0.09242554008960724,0.015124890953302383,-0.028381573036313057
1751013776257866500,2.519866455078125,0.07323746383190155,0.01113121397793293,-0.008899219334125519
1751013776267809300,2.529809326171875,0.06304874271154404,0.015339807607233524,0.018549183383584023
1751013776277752300,2.53975244140625,0.05284483730792999,0.021390242502093315,0.04315812140703201
1751013776287696400,2.5496962890625,0.043651074171066284,0.015625830739736557,0.05332793667912483
1751013776297639400,2.559639404296875,0.04283960908651352,0.019944678992033005,0.05903615429997444
1751013776307583200,2.569583251953125,0.05221420153975487,0.025142904371023178,0.05468668043613434
1751013776317526300,2.5795263671875,0.061529673635959625,0.039868585765361786,0.045581065118312836
1751013776327470300,2.58947021484375,0.057671818882226944,0.052983056753873825,0.04133252426981926
1751013776337413400,2.599413330078125,0.05627259239554405,0.058390337973833084,0.04134663939476013
1751013776347356400,2.6093564453125,0.043413519859313965,0.04934198409318924,0.04344068467617035
1751013776357300200,2.61930029296875,0.021888520568609238,0.02869955450296402,0.0398869626224041
1751013776367243300,2.6292431640625,-0.007232612930238247,0.011334946379065514,0.030817832797765732
1751013776377187300,2.639187255859375,-0.033000025898218155,-0.006626211106777191,0.029865220189094543
1751013776387130400,2.64913037109375,-0.04941602051258087,-0.02339906617999077,0.025949841365218163
1751013776397073200,2.6590732421875,-0.05830059200525284,-0.03310681879520416,0.027955735102295876
1751013776407017200,2.669017333984375,-0.05679137632250786,-0.025916285812854767,0.04092293232679367
1751013776416960300,2.678960205078125,-0.046895336359739304,0.0023872575256973505,0.05188396945595741
1751013776426904300,2.688904296875,-0.03148601949214935,0.028493160381913185,0.05301954224705696
1751013776436847000,2.69884716796875,-0.019147329032421112,0.05630268529057503,0.04008723050355911
1751013776446790100,2.7087900390625,-0.011189271695911884,0.0787922814488411,0.017952902242541313
1751013776456734500,2.718734375,-0.0016439693281427026,0.08914106339216232,-0.008024636656045914
1751013776466677500,2.728677490234375,-0.0018274611793458462,0.09167079627513885,-0.030886810272932053
1751013776476621300,2.738621337890625,-0.014164022170007229,0.08572955429553986,-0.055686965584754944
1751013776486564400,2.748564453125,-0.02979065291583538,0.07564549148082733,-0.07091518491506577
1751013776496508400,2.75850830078125,-0.05246533825993538,0.054190002381801605,-0.0808466449379921
1751013776506451500,2.768451416015625,-0.0711444839835167,0.03152916207909584,-0.08363097906112671
1751013776516394500,2.77839453125,-0.08782865852117538,0.019896475598216057,-0.06623893976211548
1751013776526338300,2.78833837890625,-0.09142845124006271,0.018610436469316483,-0.046188801527023315
1751013776536281300,2.79828125,-0.078182153403759,0.024879250675439835,-0.028315527364611626
1751013776546225400,2.808225341796875,-0.05116704851388931,0.03726614639163017,-0.003940945956856012
1751013776556168200,2.818168212890625,-0.013611149974167347,0.058279551565647125,0.008963667787611485
1751013776566111200,2.828111328125,0.020789701491594315,0.07289045304059982,0.006681871134787798
1751013776576055300,2.83805517578125,0.05054706335067749,0.07946419715881348,0.0007850998663343489
1751013776585998300,2.847998291015625,0.06871674954891205,0.07542551308870316,-0.011806059628725052
1751013776595942100,2.857942138671875,0.07321349531412125,0.05884041264653206,-0.01853107288479805
1751013776605885200,2.86788525390625,0.06414436548948288,0.04466493800282478,-0.022457905113697052
1751013776615829200,2.877829345703125,0.04429502785205841,0.03479153662919998,-0.026439595967531204
1751013776625772300,2.887772216796875,0.03663284704089165,0.02714693173766136,-0.01890578120946884
1751013776635715300,2.89771533203125,0.02899916097521782,0.016496950760483742,-0.0018607506062835455
1751013776645659100,2.9076591796875,0.022300511598587036,0.005514341406524181,0.010271811857819557
1751013776655602200,2.917602294921875,0.026610838249325752,0.0029177593532949686,0.011492072604596615
1751013776665546500,2.92754638671875,0.041244909167289734,0.007159908767789602,0.0010109359864145517
1751013776675489800,2.93748974609375,0.05627845227718353,0.016466058790683746,-0.017771007493138313
1751013776685432600,2.9474326171875,0.06121515482664108,0.027358653023838997,-0.03129933401942253
1751013776695376600,2.957376708984375,0.060627393424510956,0.03158508986234665,-0.03454279527068138
1751013776705319700,2.967319580078125,0.056953564286231995,0.031736090779304504,-0.02515382319688797
1751013776715263500,2.977263427734375,0.046243127435445786,0.03154727444052696,-0.009238772094249725
1751013776725206500,2.98720654296875,0.03594175726175308,0.027216706424951553,0.020603012293577194
1751013776735149600,2.997149658203125,0.022478943690657616,0.0210054162889719,0.04387930780649185
1751013776745093600,3.00709375,0.011903530918061733,0.016467656940221786,0.057738661766052246
1751013776755036700,3.01703662109375,-0.0008290420519188046,0.015211443416774273,0.04908472299575806
1751013776764980700,3.026980712890625,-0.004878644831478596,0.010301106609404087,0.024939971044659615
1751013776774923800,3.036923828125,-0.0076065207831561565,0.009546101093292236,0.004482898861169815
1751013776784867800,3.046867919921875,-0.010222810320556164,0.010358897969126701,-0.010936270467936993
1751013776794811000,3.056810791015625,-0.012500878423452377,0.007163636852055788,-0.012593556195497513
1751013776804753700,3.066753662109375,-0.016149142757058144,0.006975617725402117,-0.007811850402504206
1751013776814697700,3.07669775390625,-0.01666393131017685,0.013409548439085484,0.012922456488013268
1751013776824640800,3.086640869140625,-0.014737134799361229,0.01944613642990589,0.040403347462415695
1751013776834584800,3.096584716796875,-0.009608951397240162,0.02756238542497158,0.05375457555055618
1751013776844527600,3.106527587890625,-0.0015166702214628458,0.03387301042675972,0.04502606391906738
1751013776854470700,3.116470703125,0.014851117506623268,0.03543389216065407,0.023804930970072746
1751013776864414700,3.126414794921875,0.027514448389410973,0.02695225551724434,-0.013036440126597881
1751013776874357800,3.136357666015625,0.03177310898900032,0.016582705080509186,-0.04421033710241318
1751013776884301600,3.146301513671875,0.026321617886424065,0.0060152821242809296,-0.06561575829982758
1751013776894244600,3.15624462890625,0.023749271407723427,-0.006858172360807657,-0.06972475349903107
1751013776904187600,3.166187744140625,0.019406188279390335,-0.015789348632097244,-0.0571514368057251
1751013776914131700,3.176131591796875,0.01992310769855976,-0.017893247306346893,-0.044440168887376785
1751013776924074800,3.18607470703125,0.025131186470389366,-0.008402805775403976,-0.026254773139953613
1751013776934018600,3.1960185546875,0.038488004356622696,0.0012354403734207153,-0.011606322601437569
1751013776943961600,3.205961669921875,0.05453674495220184,0.012858008034527302,-0.003294063964858651
1751013776953905700,3.21590576171875,0.07259217649698257,0.026508839800953865,0.003556119045242667
1751013776963848700,3.2258486328125,0.09621841460466385,0.031925175338983536,0.007742874324321747
1751013776973791500,3.23579150390625,0.11031665652990341,0.029623938724398613,0.004926847759634256
1751013776983735800,3.24573583984375,0.1178123876452446,0.02009461633861065,-0.004093545023351908
1751013776993678800,3.255678955078125,0.11492045968770981,0.004780107643455267,-0.020327908918261528
1751013777003622700,3.26562255859375,0.09686289727687836,-0.020602213218808174,-0.03582271188497543
1751013777013565700,3.275565673828125,0.07237087190151215,-0.04693128913640976,-0.05236200615763664
1751013777023508700,3.2855087890625,0.04156182333827019,-0.060495033860206604,-0.06412599235773087
1751013777033452800,3.295452880859375,0.014944327995181084,-0.0557335689663887,-0.06247216463088989
1751013777043395800,3.305395751953125,0.0033103092573583126,-0.03665841370820999,-0.057246509939432144
1751013777053339600,3.315339599609375,0.004861867055296898,-0.013195164501667023,-0.03862542286515236
1751013777063282700,3.32528271484375,0.009522665292024612,0.012622318230569363,-0.011679559014737606
1751013777073226800,3.335226806640625,0.018003234639763832,0.0269453302025795,0.011054781265556812
1751013777083169800,3.345169677734375,0.028425516560673714,0.029470007866621017,0.03452229127287865
1751013777093112800,3.35511279296875,0.02785693109035492,0.02809927798807621,0.05589921772480011
1751013777103056600,3.365056640625,0.014333132654428482,0.025846511125564575,0.05692746490240097
1751013777112999700,3.374999755859375,0.0037997981999069452,0.01908048428595066,0.04907752946019173
1751013777122943700,3.38494384765625,-0.006636863574385643,0.026154372841119766,0.03406156226992607
1751013777132886500,3.394886474609375,-0.014435132034122944,0.040273651480674744,0.022420620545744896
1751013777142829600,3.40482958984375,-0.025123728439211845,0.05471491068601608,0.008331432938575745
1751013777152773600,3.414773681640625,-0.03225354477763176,0.06633614748716354,-0.004879177547991276
1751013777162716700,3.424716552734375,-0.03307459503412247,0.07275117188692093,-0.007567904889583588
1751013777172660500,3.434660400390625,-0.030699854716658592,0.07556772977113724,-0.007032609544694424
1751013777182603500,3.444603515625,-0.02050847001373768,0.07203850895166397,0.01125185564160347
1751013777192547800,3.4545478515625,-0.009425193071365356,0.06700992584228516,0.02966947853565216
1751013777202491000,3.464490966796875,-0.0015193333383649588,0.056662481278181076,0.058752529323101044
1751013777212433700,3.47443359375,0.008935438469052315,0.05161499232053757,0.07895366847515106
1751013777222377700,3.484377685546875,0.01763465441763401,0.05326614901423454,0.08783131837844849
1751013777232320800,3.49432080078125,0.01588522270321846,0.0537380613386631,0.07473762333393097
1751013777242264800,3.504264892578125,0.010816162452101707,0.04686124995350838,0.053765758872032166
1751013777252207900,3.514207763671875,0.004222708288580179,0.042448390275239944,0.026875821873545647
1751013777262150700,3.524150634765625,0.0036075180396437645,0.04260951280593872,-0.0007408913807012141
1751013777272094700,3.5340947265625,0.004744953941553831,0.03514440357685089,-0.02106640301644802
1751013777282037800,3.544037841796875,0.007999070920050144,0.03461470082402229,-0.024439828470349312
1751013777291981800,3.55398193359375,0.010942662134766579,0.04206276312470436,-0.013848437927663326
1751013777301924600,3.563924560546875,0.01525698322802782,0.047510262578725815,-0.003885285696014762
1751013777311867600,3.57386767578125,0.018745724111795425,0.05898076295852661,0.012704609893262386
1751013777321811700,3.583811767578125,0.019235480576753616,0.0671611949801445,0.025370337069034576
1751013777331754800,3.593754638671875,0.016170980408787727,0.06504025310277939,0.03099014051258564
1751013777341698600,3.603698486328125,0.0065100970678031445,0.059848684817552567,0.026863038539886475
1751013777351641600,3.6136416015625,-0.004668787587434053,0.04224146157503128,0.015504923649132252
1751013777361585700,3.623585693359375,-0.014308631420135498,0.02635783702135086,0.006863764952868223
1751013777371528700,3.63352880859375,-0.016949156299233437,0.00851625669747591,0.0015483618481084704
1751013777381471700,3.6434716796875,-0.013978932052850723,-0.014374145306646824,-0.008362858556210995
1751013777391415600,3.65341552734375,-0.006975884083658457,-0.039085350930690765,-0.017313476651906967
1751013777401358600,3.663358642578125,0.0009424926829524338,-0.051248274743556976,-0.023791614919900894
1751013777411303000,3.673302978515625,0.005104480776935816,-0.04779255762696266,-0.029501166194677353
1751013777421245700,3.68324560546875,0.006835269276052713,-0.03875671699643135,-0.03003592975437641
1751013777431188500,3.6931884765625,0.009704825468361378,-0.022007830440998077,-0.02148132398724556
1751013777441132800,3.7031328125,0.015519571490585804,-0.014250840991735458,-0.007078149355947971
1751013777451075800,3.713075927734375,0.01618908904492855,-0.01522875390946865,0.009006277658045292
1751013777461019600,3.72301953125,0.00947792362421751,-0.017417872324585915,0.012110991403460503
1751013777470962700,3.732962646484375,0.0009369000908918679,-0.02347017265856266,-0.006238721311092377
1751013777480906800,3.74290673828125,0.006392118986696005,-0.014025803655385971,-0.03311401233077049
1751013777490849800,3.752849853515625,0.013138172216713428,0.0057534934021532536,-0.05232978239655495
1751013777500792800,3.762792724609375,0.0231681689620018,0.02141367830336094,-0.06299654394388199
1751013777510736600,3.772736572265625,0.032283637672662735,0.05109966918826103,-0.05351302772760391
1751013777520679700,3.7826796875,0.03409485146403313,0.06445968151092529,-0.043713659048080444
1751013777530623700,3.792623779296875,0.019957728683948517,0.05889847129583359,-0.053093310445547104
1751013777540566800,3.80256689453125,0.0004825647920370102,0.05086398124694824,-0.07377541810274124
1751013777550509600,3.812509521484375,-0.013280651532113552,0.045514222234487534,-0.09541067481040955
1751013777560453600,3.82245361328125,-0.023086410015821457,0.03171318769454956,-0.10686759650707245
1751013777570396700,3.832396728515625,-0.026323482394218445,0.027657726779580116,-0.1054563820362091
1751013777580340700,3.8423408203125,-0.026681944727897644,0.03122955746948719,-0.07576027512550354
1751013777590283500,3.852283447265625,-0.013615410774946213,0.031423170119524,-0.038660310208797455
1751013777600227600,3.8622275390625,0.005877862684428692,0.02846493013203144,0.006421147845685482
1751013777610170600,3.872170654296875,0.018153438344597816,0.018069814890623093,0.03945739567279816
1751013777620113700,3.88211376953125,0.029387716203927994,-0.0015038870042189956,0.061710234731435776
1751013777630057700,3.8920576171875,0.03296007961034775,-0.019222164526581764,0.0640689954161644
1751013777640000500,3.90200048828125,0.02773921936750412,-0.033190976828336716,0.04724154621362686
1751013777649944800,3.91194482421875,0.023370036855340004,-0.02738741599023342,0.012307532131671906
1751013777659887900,3.921887939453125,0.014365357346832752,-0.01986371912062168,-0.023574035614728928
1751013777669830100,3.931830078125,0.007314638234674931,0.00498037738725543,-0.05285096541047096
1751013777679774000,3.94177392578125,-0.00038482676609419286,0.031210916116833687,-0.06638461351394653
1751013777689717000,3.951717041015625,-0.011227887123823166,0.04632941633462906,-0.0679665356874466
1751013777699661300,3.961661376953125,-0.022065354511141777,0.05269730091094971,-0.0634482130408287
1751013777709604400,3.971604248046875,-0.03171265497803688,0.050284743309020996,-0.05823880434036255
1751013777719548200,3.981548095703125,-0.03642458841204643,0.035836558789014816,-0.05223843827843666
1751013777729491200,3.9914912109375,-0.040940508246421814,0.02889103628695011,-0.04987621307373047
1751013777739434200,4.001434326171875,-0.04447239264845848,0.02231808938086033,-0.05718286335468292
1751013777749378300,4.01137841796875,-0.04478558152914047,0.023331156000494957,-0.060086771845817566
1751013777759321000,4.021321044921875,-0.04469956085085869,0.028310200199484825,-0.063127301633358
1751013777769265200,4.03126513671875,-0.04872359707951546,0.03250361606478691,-0.07642100751399994
1751013777779208200,4.041208251953125,-0.05633038282394409,0.032474584877491,-0.08712264895439148
1751013777789151200,4.051151123046875,-0.06406819820404053,0.03104180470108986,-0.08760601282119751
1751013777799095000,4.061094970703125,-0.05814506113529205,0.03158029541373253,-0.07657094299793243
1751013777809038000,4.0710380859375,-0.053834736347198486,0.02340119704604149,-0.053951915353536606
1751013777818982100,4.080982177734375,-0.04722423851490021,0.015430355444550514,-0.03604055941104889
1751013777828925200,4.09092529296875,-0.03221439570188522,0.011897938326001167,-0.005961752496659756
1751013777838869000,4.100868896484375,-0.02196948044002056,0.005002481862902641,0.011589543893933296
1751013777848812000,4.11081201171875,-0.02371225319802761,-0.013919278047978878,0.015911854803562164
1751013777858755000,4.120755126953125,-0.03008360043168068,-0.022541794925928116,0.008115717209875584
1751013777868699100,4.13069921875,-0.040217991918325424,-0.021282918751239777,-0.00341603672131896
1751013777878642200,4.14064208984375,-0.05122696980834007,-0.014337128028273582,-0.0160593930631876
1751013777888586000,4.1505859375,-0.061650846153497696,0.004343349486589432,-0.017830129712820053
1751013777898529000,4.160529052734375,-0.06305033713579178,0.024698421359062195,-0.008237157016992569
1751013777908472000,4.17047216796875,-0.05920420214533806,0.036439500749111176,0.008898420259356499
1751013777918416400,4.18041650390625,-0.0463176965713501,0.038127411156892776,0.01050110999494791
1751013777928359200,4.190359130859375,-0.032816268503665924,0.03555586189031601,0.017946509644389153
1751013777938303200,4.20030322265625,-0.021975073963403702,0.03539847210049629,0.019451728090643883
1751013777948246300,4.210246337890625,-0.01726074516773224,0.022852052003145218,0.01913321390748024
1751013777958190000,4.220190185546875,-0.01793559081852436,0.00529676117002964,0.024282969534397125
1751013777968133000,4.230133056640625,-0.02341184951364994,-0.008927715010941029,0.035900477319955826
1751013777978076200,4.240076171875,-0.02893737517297268,-0.01648842915892601,0.04995930194854736
1751013777988020200,4.250020263671875,-0.026265159249305725,-0.01727272942662239,0.06414835900068283
1751013777997963300,4.25996337890625,-0.025354359298944473,-0.0184053722769022,0.07713846117258072
1751013778007907000,4.269906982421875,-0.021195832639932632,-0.020254937931895256,0.06917347759008408
1751013778017850000,4.27985009765625,-0.01071150042116642,-0.01853400282561779,0.061045777052640915
1751013778027793200,4.289793212890625,-0.0034474621061235666,-0.006080529186874628,0.03984195366501808
1751013778037737200,4.2997373046875,-0.0007129282457754016,-0.00780519237741828,0.011653460562229156
1751013778047680300,4.30968017578125,0.004747883416712284,-0.014060159213840961,-0.01392833236604929
1751013778057624000,4.3196240234375,0.007850999012589455,-0.025252891704440117,-0.027210582047700882
1751013778067567000,4.329567138671875,0.006608367897570133,-0.03190653398633003,-0.027063041925430298
1751013778077511200,4.33951123046875,0.008241684176027775,-0.04103957861661911,-0.011415639892220497
1751013778087454200,4.3494541015625,0.00675377668812871,-0.04629559442400932,0.010090717114508152
1751013778097397000,4.35939697265625,-0.0007219829712994397,-0.05386163294315338,0.0275645162910223
1751013778107341000,4.369341064453125,-0.011952267028391361,-0.05487097054719925,0.04735579714179039
1751013778117284000,4.3792841796875,-0.016110526397824287,-0.054788414388895035,0.06318003684282303
1751013778127228200,4.389228271484375,-0.014670555479824543,-0.03925419598817825,0.06821953505277634
1751013778137171200,4.399171142578125,-0.002496180823072791,-0.023239808157086372,0.06469377130270004
1751013778147114000,4.409114013671875,0.005299157928675413,-0.0030517163686454296,0.047328099608421326
1751013778157058300,4.419058349609375,0.023089872673153877,0.024384168907999992,0.029464147984981537
1751013778167001300,4.42900146484375,0.039975911378860474,0.04445534944534302,0.01423273142427206
1751013778176945200,4.438945068359375,0.041061416268348694,0.04090135917067528,0.006476541515439749
1751013778186888200,4.44888818359375,0.0259903222322464,0.022647256031632423,-0.012503807432949543
1751013778196832300,4.458832275390625,0.0057036918587982655,0.004066380672156811,-0.017835987731814384
1751013778206775300,4.468775390625,-0.007556453347206116,-0.023127956315875053,-0.015914518386125565
1751013778216718000,4.478718017578125,-0.030459105968475342,-0.04742184281349182,-0.014403440058231354
1751013778226662100,4.488662109375,-0.04929298162460327,-0.05266214534640312,-0.009850500151515007
1751013778236605200,4.498605224609375,-0.05853574723005295,-0.045883867889642715,-0.005362274590879679
1751013778246549200,4.50854931640625,-0.05302700027823448,-0.029445772990584373,-0.008296545594930649
1751013778256492000,4.518491943359375,-0.034988079220056534,-0.006660299375653267,-0.018810173496603966
1751013778266436000,4.52843603515625,-0.02020833268761635,0.019688216969370842,-0.02263340726494789
1751013778276379100,4.538379150390625,-0.00905874278396368,0.04067818820476532,-0.021573469042778015
1751013778286322200,4.548322265625,-0.0025188177824020386,0.051900748163461685,-0.013953099958598614
1751013778296266000,4.558265869140625,-0.002433330286294222,0.05258464813232422,-0.0018873822409659624
1751013778306209000,4.568208984375,-0.008167115971446037,0.036494094878435135,0.004260525107383728
1751013778316153000,4.578153076171875,-0.02286190539598465,0.017798705026507378,0.006340187508612871
1751013778326096100,4.58809619140625,-0.03754497691988945,0.00762782571837306,0.0020130835473537445
1751013778336039200,4.5980390625,-0.051046404987573624,-0.0034197650384157896,-0.0009392969077453017
1751013778345983200,4.607983154296875,-0.05855065956711769,-0.014154701493680477,-0.006688529159873724
1751013778355926000,4.617926025390625,-0.06349242478609085,-0.014536598697304726,-0.005328186322003603
1751013778365870300,4.627870361328125,-0.06203274428844452,-0.011446532793343067,-0.004953745752573013
1751013778375813000,4.637813232421875,-0.05801696330308914,-0.0030858046375215054,-0.0060086240991950035
1751013778385757200,4.647757080078125,-0.04916941002011299,0.012475844472646713,-0.007074953522533178
1751013778395700200,4.6577001953125,-0.04168619215488434,0.020976655185222626,-0.012222577817738056
1751013778405643300,4.667643310546875,-0.034871164709329605,0.023484820500016212,-0.009490706957876682
1751013778415587000,4.677587158203125,-0.03538914769887924,0.023689350113272667,-0.0082102594897151
1751013778425530000,4.687530029296875,-0.04087259992957115,0.016625048592686653,-0.002310824813321233
1751013778435474200,4.69747412109375,-0.044501688331365585,0.020590228959918022,0.004941229242831469
1751013778445417200,4.707417236328125,-0.041013747453689575,0.023179620504379272,0.012797820381820202
1751013778455361000,4.717361083984375,-0.03663577511906624,0.01697072759270668,0.017601629719138145
1751013778465304000,4.727303955078125,-0.04066220670938492,0.016215188428759575,0.015439143404364586
1751013778475247000,4.7372470703125,-0.04839629307389259,0.011898737400770187,0.00010626012954162434
1751013778485191200,4.747191162109375,-0.050519634038209915,0.005471996963024139,-0.018372349441051483
1751013778495134200,4.75713427734375,-0.05549095571041107,-0.0008546083699911833,-0.033543046563863754
1751013778505078000,4.767078125,-0.059591956436634064,-0.00043755737715400755,-0.04440048709511757
1751013778515021000,4.77702099609375,-0.056586846709251404,0.0026173547375947237,-0.04725246503949165
1751013778524964000,4.786964111328125,-0.050226420164108276,0.00983532052487135,-0.034743864089250565
1751013778534908200,4.796908203125,-0.04452059790492058,0.015419170260429382,-0.01612837053835392
1751013778544851000,4.806850830078125,-0.03202371299266815,0.020979583263397217,0.007876564748585224
1751013778554795300,4.816795166015625,-0.016809074208140373,0.02184990420937538,0.029346702620387077
1751013778564738000,4.826738037109375,-0.0009403621661476791,0.023909060284495354,0.04404575377702713
1751013778574682000,4.83668212890625,0.005687180440872908,0.022476546466350555,0.049498844891786575
1751013778584625200,4.846625244140625,0.00398568669334054,0.014510765671730042,0.04854782670736313
1751013778594568200,4.856568115234375,-0.005078381858766079,0.00765738682821393,0.045412223786115646
1751013778604512300,4.86651220703125,-0.020327908918261528,0.005708752200007439,0.027336282655596733
1751013778614455300,4.876455322265625,-0.04182041808962822,0.007484015077352524,-0.008413191884756088
1751013778624399000,4.886399169921875,-0.05066876858472824,0.009556753560900688,-0.03562643751502037
1751013778634342100,4.896342041015625,-0.05474606901407242,0.015188273973762989,-0.05885958671569824
1751013778644286200,4.9062861328125,-0.06005215272307396,0.015627695247530937,-0.07015432417392731
1751013778654229200,4.916229248046875,-0.06025188788771629,0.018282335251569748,-0.06491082161664963
1751013778664172300,4.92617236328125,-0.0565120130777359,0.016149675473570824,-0.03994422033429146
1751013778674119700,4.93611962890625,-0.05321048945188522,0.005724464543163776,-0.019182216376066208
1751013778684062700,4.946062744140625,-0.0532379224896431,-0.002171807922422886,0.00933065079152584
1751013778694006800,4.9560068359375,-0.04671211168169975,0.005949768237769604,0.033966753631830215
1751013778703949600,4.965949462890625,-0.038779884576797485,0.008106129243969917,0.050942011177539825
1751013778713893600,4.9758935546875,-0.03903661668300629,0.009494435973465443,0.04740985855460167
1751013778723836700,4.985836669921875,-0.04001985490322113,0.007482683751732111,0.03972877189517021
1751013778733779700,4.99577978515625,-0.046065762639045715,0.0026056368369609118,0.023344736546278
1751013778743723500,5.0057236328125,-0.04880934953689575,-0.0024176177103072405,0.008807073347270489
1751013778753666600,5.01566650390625,-0.0493377223610878,-0.007078149355947971,-0.006113552488386631
1751013778763610600,5.025610595703125,-0.049731072038412094,-0.007244330830872059,-0.013555489480495453
1751013778773553700,5.0355537109375,-0.04277356341481209,0.006351372692734003,-0.019712451845407486
1751013778783496700,5.04549658203125,-0.030612770467996597,0.014182131737470627,-0.017111608758568764
1751013778793440500,5.0554404296875,-0.016930513083934784,0.01654888316988945,-0.01738271862268448
1751013778803383600,5.065383544921875,-0.003629888640716672,0.01516111008822918,-0.012605007737874985
1751013778813327600,5.07532763671875,0.005323659162968397,0.006178800016641617,-0.003932956140488386
1751013778823270700,5.085270751953125,0.0036637107841670513,-0.005679457448422909,-0.0021616879384964705
1751013778833214700,5.095214599609375,-0.0025273398496210575,-0.00971734244376421,-0.005229915492236614
1751013778843157800,5.10515771484375,-0.011987953446805477,-0.007300789933651686,-0.008234494365751743
1751013778853100500,5.1151005859375,-0.018746789544820786,-0.0023241406306624413,-0.01330089196562767
1751013778863044900,5.125044921875,-0.02610909938812256,0.00899589154869318,-0.01654728502035141
1751013778872987600,5.134987548828125,-0.0347910039126873,0.016699351370334625,-0.01116423774510622
1751013778882931700,5.144931640625,-0.03545599430799484,0.019107380881905556,0.00015712650201749057
1751013778892874800,5.154874755859375,-0.031910527497529984,0.019090071320533752,0.0032623722217977047
1751013778902818600,5.164818603515625,-0.019946010783314705,0.013686517253518105,-0.00205223192460835
1751013778912761600,5.17476171875,-0.011114702560007572,0.01914386637508869,-0.0073540532030165195
1751013778922704600,5.18470458984375,-0.007400125730782747,0.020144682377576828,-0.01828393153846264
1751013778932648700,5.194648681640625,-0.00814980547875166,0.024093352258205414,-0.04114210978150368
1751013778942591700,5.204591796875,-0.0057614827528595924,0.029134448617696762,-0.059703279286623
1751013778952535600,5.21453564453125,-0.008993495255708694,0.03435983881354332,-0.0740012601017952
1751013778962478600,5.224478515625,-0.018612034618854523,0.028747225180268288,-0.07373733818531036
1751013778972422700,5.234422607421875,-0.02774907276034355,0.021704763174057007,-0.0716659277677536
1751013778982365700,5.24436572265625,-0.03348126262426376,0.013455088250339031,-0.057674214243888855
1751013778992308700,5.254308837890625,-0.039191875606775284,0.006328735966235399,-0.05285122990608215
1751013779002252500,5.26425244140625,-0.03862302750349045,-0.0020969731267541647,-0.04832545295357704
1751013779012195600,5.274195556640625,-0.03219681978225708,-0.0015243934467434883,-0.0413876548409462
1751013779022139600,5.2841396484375,-0.027275562286376953,-0.0002300971100339666,-0.03671060875058174
1751013779032082400,5.29408251953125,-0.02394687756896019,0.0036938043776899576,-0.03973063454031944
1751013779042025500,5.304025390625,-0.01931004785001278,0.014978683553636074,-0.03756042569875717
1751013779051969800,5.3139697265625,-0.016116918995976448,0.02973366156220436,-0.035476233810186386
1751013779061912600,5.32391259765625,-0.015356052666902542,0.04236317053437233,-0.02761085517704487
1751013779071856600,5.333856689453125,-0.014967231079936028,0.061100639402866364,-0.021941784769296646
1751013779081799700,5.343799560546875,-0.011972772888839245,0.06185777485370636,-0.01895185373723507
1751013779091743700,5.35374365234375,-0.009999903850257397,0.05482223629951477,-0.013337376527488232
1751013779101686800,5.363686767578125,-0.017739050090312958,0.03857562318444252,-0.018674084916710854
1751013779111629800,5.3736298828125,-0.0303224865347147,0.020077038556337357,-0.021672537550330162
1751013779121573600,5.38357373046875,-0.03748612105846405,0.011295530945062637,-0.025248898193240166
1751013779131516700,5.3935166015625,-0.04354587942361832,0.008074171841144562,-0.03165113553404808
1751013779141460700,5.403460693359375,-0.034219756722450256,0.015438877046108246,-0.03225700557231903
1751013779151403800,5.41340380859375,-0.02087865024805069,0.023872043937444687,-0.031500134617090225
1751013779161347600,5.42334765625,-0.007918909192085266,0.03490046039223671,-0.024023044854402542
1751013779171290600,5.43329052734375,0.0010634001810103655,0.03758838772773743,-0.012708071619272232
1751013779181233700,5.443233642578125,0.007486145943403244,0.03552337363362312,-0.0038250982761383057
1751013779191177700,5.453177734375,0.013278255239129066,0.026880882680416107,0.01173149049282074
1751013779201120500,5.46312060546875,0.010241718962788582,0.01835770159959793,0.01387027557939291
1751013779211064600,5.473064697265625,0.016269251704216003,0.013648967258632183,0.014713166281580925
1751013779221007600,5.483007568359375,0.01901763305068016,0.011353322304785252,0.0010010822443291545
1751013779230951400,5.492951416015625,0.021498633548617363,0.013376525603234768,-0.015597068704664707
1751013779240894500,5.50289453125,0.019036274403333664,0.01273097563534975,-0.03199761360883713
1751013779250837500,5.51283740234375,0.012375975959002972,0.006918360013514757,-0.03640727698802948
1751013779260781800,5.52278173828125,0.011066765524446964,0.010728544555604458,-0.03381948173046112
1751013779270724600,5.532724609375,0.009506153874099255,0.010966897010803223,-0.027513116598129272
1751013779280668700,5.542668701171875,0.004544684197753668,0.0015254586469382048,-0.02671763114631176
1751013779290611700,5.55261181640625,0.002171275205910206,-0.004120708908885717,-0.03231586143374443
1751013779300555800,5.5625556640625,0.003582217963412404,0.0011094729416072369,-0.031067904084920883
1751013779310498800,5.572498779296875,0.007107444107532501,0.00112438655924052,-0.025502163916826248
1751013779320441600,5.582441650390625,0.005856025032699108,-0.004560663364827633,-0.01906610280275345
1751013779330385700,5.5923857421875,0.004525243304669857,-0.012583702802658081,-0.016506804153323174
1751013779340328700,5.60232861328125,0.002121474128216505,-0.013598366640508175,-0.021168934181332588
1751013779350272800,5.612272705078125,0.0049556102603673935,-0.008467254228889942,-0.02737569808959961
1751013779360215600,5.622215576171875,0.009434248320758343,0.0013403689954429865,-0.02756158635020256
1751013779370158600,5.63215869140625,0.012234295718371868,0.009454754181206226,-0.02845800668001175
1751013779380102700,5.6421025390625,0.010962636210024357,0.027896080166101456,-0.026674753054976463
1751013779390045700,5.652045654296875,0.009470467455685139,0.031207719817757607,-0.01635846681892872
1751013779399989500,5.661989501953125,0.008820123039186,0.025072596967220306,-0.014456703327596188
1751013779409932500,5.6719326171875,0.007383613847196102,0.018138790503144264,-0.019329756498336792
1751013779419876600,5.681876708984375,0.006986802909523249,0.0038424087688326836,-0.018100174143910408
1751013779429819600,5.691819580078125,0.005537777207791805,-0.003692206460982561,-0.016413060948252678
1751013779439762700,5.7017626953125,0.0062365904450416565,-0.0024146882351487875,-0.015079350210726261
1751013779449706500,5.71170654296875,0.015896674245595932,0.007715976797044277,-0.015055914409458637
1751013779459649500,5.7216494140625,0.019646139815449715,0.01617896929383278,-0.014252439141273499
1751013779469593900,5.73159375,0.016533702611923218,0.02592960186302662,-0.015078285709023476
1751013779479537000,5.741536865234375,0.0148636344820261,0.030403180047869682,-0.00866139866411686
1751013779489480700,5.751480712890625,0.010896056890487671,0.023303991183638573,-0.0046243127435445786
1751013779499423700,5.761423828125,0.010838000103831291,0.013365606777369976,0.0012681973166763783
1751013779509366800,5.77136669921875,0.010173275135457516,0.0014176006661728024,0.010611631907522678
1751013779519310600,5.781310546875,0.006368150934576988,-0.00818149745464325,0.025847576558589935
1751013779529253600,5.791253662109375,0.00012490226072259247,-0.008976982906460762,0.035284221172332764
1751013779539197700,5.80119775390625,-0.0022027005907148123,0.000919323181733489,0.0315222404897213
1751013779549140700,5.811140625,0.004226702731102705,0.01648976095020771,0.024206003174185753
1751013779559084500,5.82108447265625,0.017286578193306923,0.03128388524055481,0.010675014927983284
1751013779569027600,5.831027587890625,0.023797741159796715,0.04230324923992157,-0.0031822111923247576
1751013779578970600,5.840970703125,0.026819895952939987,0.050148122012615204,-0.025130653753876686
1751013779588914700,5.850914794921875,0.02449176087975502,0.049541719257831573,-0.028250813484191895
1751013779598857700,5.860857666015625,0.017977401614189148,0.03224768489599228,-0.02478151209652424
1751013779608801500,5.870801513671875,0.013291303999722004,0.01624554954469204,-0.016559801995754242
1751013779618744600,5.88074462890625,0.008586830459535122,0.005337507463991642,0.0015701997326686978
1751013779628688600,5.890688720703125,0.0013339773286134005,-0.007163636852055788,0.015371233224868774
1751013779638631700,5.900631591796875,-0.0033989925868809223,-0.007962585426867008,0.01594860665500164
1751013779648574500,5.910574462890625,-0.0011491540353745222,-0.00580862071365118,0.016271913424134254
1751013779658518500,5.9205185546875,0.0007480819476768374,0.0019528960110619664,0.002597380895167589
1751013779668461600,5.930461669921875,0.00962945818901062,0.014992265030741692,-0.012832441367208958
1751013779678402300,5.94040234375,0.01636592298746109,0.02262967824935913,-0.025788187980651855
1751013779688345300,5.950345458984375,0.02082032710313797,0.027944283559918404,-0.02749261073768139
1751013779698289400,5.960289306640625,0.01738511584699154,0.03099280409514904,-0.01967916265130043
1751013779708232400,5.970232421875,0.006969758775085211,0.026707511395215988,-0.00905767735093832
1751013779718175500,5.980175537109375,-0.006566023454070091,0.013058544136583805,-0.00017443705291952938
1751013779728119300,5.990119384765625,-0.014221279881894588,0.008237157016992569,0.005554821342229843
1751013779738062300,6.000062255859375,-0.020075440406799316,0.004762797150760889,0.0029885992407798767
1751013779748006400,6.01000634765625,-0.01733211800456047,0.0117927435785532,0.002805107505992055
1751013779757949400,6.019949462890625,-0.010951717384159565,0.014727546833455563,0.003064499469473958
1751013779767893200,6.029893310546875,-0.0016708672046661377,0.014222878031432629,0.004393949639052153
1751013779777836300,6.039836181640625,0.004698615055531263,0.011291802860796452,0.005487443413585424
1751013779787779300,6.049779296875,0.007795072626322508,-0.003543868428096175,-0.005018194206058979
1751013779797723400,6.059723388671875,0.007311708759516478,-0.014850851148366928,-0.009705358184874058
1751013779807666200,6.069666259765625,-0.0003640541108325124,-0.024748489260673523,-0.010277404449880123
1751013779817610500,6.079610595703125,-0.00848483107984066,-0.02653067745268345,-0.022162027657032013
1751013779827553500,6.089553466796875,-0.012879046611487865,-0.014701448380947113,-0.03200986608862877
1751013779837497600,6.09949755859375,-0.007240335922688246,0.006013950332999229,-0.039569512009620667
1751013779847440400,6.1094404296875,0.00048602689639665186,0.02256656251847744,-0.03929946944117546
1751013779857384400,6.119384521484375,-0.0014442323008552194,0.01606658473610878,-0.0383433923125267
1751013779867327500,6.129327392578125,0.012381302192807198,0.03410683572292328,-0.024892300367355347
1751013779877270500,6.1392705078125,0.02684120088815689,0.03476543724536896,0.002380333375185728
1751013779887214300,6.14921435546875,0.03402081876993179,0.022411566227674484,0.020133230835199356
1751013779897157400,6.159157470703125,0.032522257417440414,0.006797985173761845,0.03237445279955864
1751013779907101400,6.169101318359375,0.02100248634815216,-0.0007414240390062332,0.03428100794553757
1751013779917044500,6.17904443359375,0.019468773156404495,-0.004455734975636005,0.034211233258247375
1751013779926988300,6.18898828125,0.008510930463671684,-0.002900714986026287,0.012736035510897636
1751013779936931300,6.198931396484375,0.001695900922641158,-0.005206213798373938,-0.02292102761566639
1751013779946874400,6.208874267578125,-0.0026290726382285357,-0.0015582155901938677,-0.05583876371383667
1751013779956818400,6.218818359375,-0.002433330286294222,0.009559682570397854,-0.08040589094161987
1751013779966761500,6.228761474609375,-0.007200921420007944,0.01660880446434021,-0.08412739634513855
1751013779976705300,6.238705322265625,-0.013772803358733654,0.013436713255941868,-0.07688199728727341
1751013779986648300,6.2486484375,-0.01570013351738453,0.0047116647474467754,-0.0549846887588501
1751013779996592600,6.258592529296875,-0.02124829776585102,-0.0076158419251441956,-0.032768331468105316
1751013780006535200,6.26853515625,-0.025361016392707825,-0.012221246026456356,-0.010916030965745449
1751013780016478200,6.278478271484375,-0.023319438099861145,-0.011171162128448486,-0.004035487771034241
1751013780026422500,6.288422607421875,-0.012684902176260948,-0.006096241995692253,-0.010884338989853859
1751013780036365600,6.298365478515625,0.0007632619817741215,0.0033782199025154114,-0.02255670726299286
1751013780046309400,6.308309326171875,0.008106928318738937,0.011769840493798256,-0.03840171918272972
1751013780056252400,6.31825244140625,0.014123275876045227,0.019175026565790176,-0.050335343927145004
1751013780066196500,6.328196533203125,0.01937210001051426,0.021383585408329964,-0.05727341026067734
1751013780076139500,6.338139404296875,0.019341474398970604,0.018985675647854805,-0.0541098415851593
1751013780086082600,6.34808251953125,0.010988735593855381,0.011182880029082298,-0.048778992146253586
1751013780096026400,6.3580263671875,0.008016647771000862,0.003266367129981518,-0.04110882058739662
1751013780105969400,6.367969482421875,0.00020506340661086142,-0.00020000340009573847,-0.03529913350939751
1751013780115913500,6.37791357421875,-0.0015603461069986224,-0.0028943235520273447,-0.030122216790914536
1751013780125856500,6.3878564453125,0.0008724515791982412,0.0004974784678779542,-0.03111157938838005
1751013780135800300,6.39780029296875,0.001130511867813766,0.0016405072528868914,-0.031063910573720932
1751013780145743400,6.407743408203125,-0.000749679864384234,0.003067162586376071,-0.02900794893503189
1751013780155686400,6.417686279296875,0.006695186719298363,0.011714180000126362,-0.018502045422792435
1751013780165630500,6.42763037109375,0.008146343752741814,0.020549749955534935,-0.0113386744633317
1751013780175573200,6.4375732421875,0.006907440721988678,0.03423174098134041,0.0007938882918097079
1751013780185517300,6.447517333984375,0.019160112366080284,0.04875768721103668,0.007506918627768755
1751013780195460400,6.45746044921875,0.023877901956439018,0.05290742218494415,0.0127584058791399
1751013780205404400,6.467404296875,0.03232917934656143,0.04486920312047005,0.006592921447008848
1751013780215347200,6.47734716796875,0.026258768513798714,0.02664945460855961,-0.010361027903854847
1751013780225291500,6.48729150390625,0.018869295716285706,0.0006711165769957006,-0.026191391050815582
1751013780235234600,6.497234619140625,0.01605859585106373,-0.012735502794384956,-0.027773307636380196
1751013780245177600,6.507177490234375,0.002042910782620311,-0.02292715385556221,-0.03436116874217987
1751013780255121400,6.517121337890625,-0.007632886059582233,-0.021459219977259636,-0.037103425711393356
1751013780265064400,6.527064453125,-0.006866428069770336,-0.002514556748792529,-0.03677212819457054
1751013780275008500,6.537008544921875,0.0021917815320193768,0.014456969685852528,-0.03197551146149635
1751013780284951600,6.54695166015625,0.006293848622590303,0.021140972152352333,-0.02983752451837063
1751013780294895400,6.556895263671875,0.007783354725688696,0.016570987179875374,-0.0245538130402565
1751013780304838400,6.56683837890625,0.013083045370876789,0.004926315508782864,-0.020109528675675392
1751013780314781400,6.576781494140625,0.014154967851936817,-0.0011547466274350882,-0.015327290631830692
1751013780324725500,6.5867255859375,0.011991947889328003,-0.007722101639956236,-0.002130528911948204
1751013780334668300,6.596668212890625,0.0021736719645559788,0.00007696535612922162,0.006674946751445532
1751013780344612400,6.6066123046875,-0.0036511938087642193,0.014747254550457,0.011974104680120945
1751013780354555400,6.616555419921875,-0.00692022405564785,0.03238190710544586,0.006846454460173845
1751013780364499500,6.62649951171875,-0.003421895671635866,0.04573100432753563,0.0036661075428128242
1751013780374442200,6.636442138671875,-0.0010668623726814985,0.05095692351460457,-0.0014682007022202015
1751013780384385300,6.64638525390625,-0.002502572489902377,0.04587028548121452,-0.006749249063432217
1751013780394329300,6.656329345703125,-0.004539890680462122,0.03484053909778595,-0.009668339975178242
1751013780404272400,6.6662724609375,-0.0007006776868365705,0.023137809708714485,-0.00580648984760046
1751013780414216400,6.676216552734375,-0.0022011026740074158,0.018869295716285706,0.00341523764654994
1751013780424159200,6.6861591796875,-0.0014298511669039726,0.013469736091792583,0.0038549257442355156
1751013780434103600,6.696103515625,0.007670170161873102,0.013950702734291553,-0.0041095237247645855
1751013780444046600,6.706046630859375,0.013243633322417736,0.015322230756282806,-0.01738591492176056
1751013780453990400,6.715990478515625,0.015248461626470089,0.012923788279294968,-0.040276315063238144
1751013780463933400,6.725933349609375,0.009425193071365356,0.011091000400483608,-0.06257949024438858
1751013780473876500,6.73587646484375,0.005118329077959061,0.009753827005624771,-0.07533709704875946
1751013780483820500,6.745820556640625,0.0029758161399513483,0.016345949843525887,-0.06879691034555435
1751013780493763300,6.755763427734375,0.0028186896815896034,0.023509053513407707,-0.05130792781710625
1751013780503707400,6.765707275390625,0.0022775353863835335,0.03211825340986252,-0.03573855757713318
1751013780513650400,6.775650390625,0.010639861226081848,0.03893248364329338,-0.03304050862789154
1751013780523594500,6.785594482421875,0.023794012144207954,0.04759414866566658,-0.02269386127591133
1751013780533537300,6.795537353515625,0.03628450259566307,0.05357427895069122,-0.01685621216893196
1751013780543480300,6.805480224609375,0.04050987586379051,0.052190765738487244,-0.009811884723603725
1751013780553424400,6.81542431640625,0.031093470752239227,0.05073987692594528,-0.007015032693743706
1751013780563367400,6.825367431640625,0.023552197962999344,0.04605085030198097,-0.005086637567728758
1751013780573311200,6.835311279296875,0.0073540532030165195,0.03597264736890793,-0.0035167040769010782
1751013780583254300,6.845254150390625,-0.009844641201198101,0.022105036303400993,-0.0034229608718305826
1751013780593198300,6.8551982421875,-0.02148638293147087,0.010426009073853493,0.0010865697404369712
1751013780603141400,6.865141357421875,-0.02490375190973282,0.007950068451464176,0.00884941779077053
1751013780613085400,6.87508544921875,-0.02267894707620144,0.01139832939952612,0.01324070431292057
1751013780623028500,6.885028564453125,-0.015718774870038033,0.016888702288269997,0.009892844595015049
1751013780632971300,6.89497119140625,-0.010132528841495514,0.02209305204451084,0.0016207997687160969
1751013780642915600,6.90491552734375,-0.010863566771149635,0.026867300271987915,-0.02106746844947338
1751013780652858400,6.9148583984375,-0.009260876104235649,0.029694778844714165,-0.035892222076654434
1751013780662802400,6.924802490234375,-0.004225904121994972,0.037821415811777115,-0.04862266406416893
1751013780672746500,6.93474658203125,-0.0018050905782729387,0.03395610302686691,-0.04200417548418045
1751013780682690600,6.944690673828125,-0.003772634081542492,0.026496056467294693,-0.03579874336719513
1751013780692633600,6.954633544921875,-0.002600310370326042,0.017957428470253944,-0.02225656993687153
1751013780702576600,6.96457666015625,-0.0013246563030406833,0.007494135294109583,-0.006053631659597158
1751013780712520700,6.974520751953125,-0.0028122980147600174,-0.0003028014034498483,-0.00016777914424892515
1751013780722463500,6.98446337890625,-0.007093595806509256,-0.003968908917158842,-0.00016538229829166085
1751013780732407600,6.994407470703125,-0.008494684472680092,-0.0046607982367277145,-0.005977198481559753
1751013780742350600,7.0043505859375,-0.005873069167137146,-0.00028628981090150774,-0.014768293127417564
1751013780752294700,7.014294677734375,-0.00697907991707325,0.0055122110061347485,-0.021560952067375183
1751013780762237400,7.024237548828125,-0.0067226174287498,0.016390424221754074,-0.031931035220623016
1751013780772181500,7.034181396484375,-0.005323126446455717,0.02201928198337555,-0.04027285426855087
1751013780782124500,7.04412451171875,-0.0023214775137603283,0.02672588638961315,-0.04134903848171234
1751013780792067600,7.054067626953125,-0.006813963875174522,0.02364008128643036,-0.03984541818499565
1751013780802011400,7.064011474609375,-0.0138966403901577,0.017288975417613983,-0.042266763746738434
1751013780811954400,7.073954345703125,-0.018865033984184265,0.013442572206258774,-0.03693697974085808
1751013780821898500,7.0838984375,-0.024441959336400032,0.01121909823268652,-0.040158871561288834
1751013780831841500,7.093841552734375,-0.022481074556708336,0.011354919523000717,-0.03449060022830963
1751013780841785300,7.103785400390625,-0.016473514959216118,0.01606898196041584,-0.02562866359949112
1751013780851728400,7.113728271484375,-0.011435347609221935,0.02281077392399311,-0.0190780870616436
1751013780861671400,7.12367138671875,-0.0034903388004750013,0.03206552565097809,-0.008700280450284481
1751013780871615500,7.133615478515625,-0.0009664611425250769,0.0360456183552742,0.00598518829792738
1751013780881558500,7.14355859375,-0.0041183121502399445,0.03254329413175583,0.012173841707408428
1751013780891502600,7.153502685546875,-0.009524795226752758,0.02172420360147953,0.0029406624380499125
1751013780901445600,7.163445556640625,-0.016639696434140205,0.013935523107647896,-0.01528840884566307
1751013780911389700,7.1733896484375,-0.01513048354536295,0.006166815757751465,-0.03391695395112038
1751013780921332500,7.18333251953125,-0.013999971561133862,0.008021174930036068,-0.05191006883978844
1751013780931276500,7.193276611328125,-0.017462879419326782,0.011728028766810894,-0.06860861927270889
1751013780941219600,7.203219482421875,-0.02209598198533058,0.02238013967871666,-0.07456637918949127
1751013780951162600,7.21316259765625,-0.017676997929811478,0.032284434884786606,-0.07334025949239731
1751013780961106400,7.2231064453125,-0.014278538525104523,0.03551565110683441,-0.07167418301105499
1751013780971049500,7.233049560546875,-0.014897722750902176,0.03503521531820297,-0.06795161962509155
1751013780980993500,7.24299365234375,-0.01341753825545311,0.03936311975121498,-0.0516434870660305
1751013780990936600,7.2529365234375,-0.009260343387722969,0.040816936641931534,-0.03520698845386505
1751013781000880400,7.26288037109375,-0.005856291390955448,0.04009122774004936,-0.02587687037885189
1751013781010823400,7.272823486328125,0.004514856729656458,0.03430577740073204,-0.023064838722348213
1751013781020767500,7.282767578125,0.0020540961995720863,0.026618294417858124,-0.030186397954821587
1751013781030710500,7.29271044921875,0.0009307747823186219,0.022299978882074356,-0.05812721699476242
1751013781040653600,7.302653564453125,0.0037433390971273184,0.02954217977821827,-0.07408487796783447
1751013781050597400,7.312597412109375,0.006535930093377829,0.04944424703717232,-0.07373067736625671
1751013781060540400,7.32254052734375,0.008597216568887234,0.0665057897567749,-0.05664117634296417
1751013781070484700,7.332484619140625,0.009427057579159737,0.06412572413682938,-0.027757061645388603
1751013781080427500,7.342427490234375,0.007277354132384062,0.04710812494158745,0.002552906284108758
1751013781090371600,7.35237158203125,0.004165450111031532,0.031981635838747025,0.027828700840473175
1751013781100314600,7.362314697265625,-0.0016277240356430411,0.015856195241212845,0.03145486116409302
1751013781110257700,7.372257568359375,-0.007225954905152321,-0.0006072007236070931,0.013545902445912361
1751013781120201500,7.382201416015625,-0.01002413872629404,-0.004721518140286207,-0.007641408126801252
1751013781130144500,7.39214453125,-0.010792993009090424,-0.00028575718170031905,-0.03130599111318588
1751013781140088600,7.402088623046875,-0.015218101441860199,0.003552390495315194,-0.04380367323756218
1751013781150031600,7.412031494140625,-0.015083611942827702,0.010854777880012989,-0.043117109686136246
1751013781159975400,7.421975341796875,-0.012140552513301373,0.015182947739958763,-0.032827455550432205
1751013781169918500,7.43191845703125,-0.008919192478060722,0.014190919697284698,-0.01649322360754013
1751013781179862500,7.441862548828125,-0.012591691687703133,0.007098922040313482,-0.005277852527797222
1751013781189805600,7.4518056640625,-0.01631745509803295,0.00574843306094408,-0.005952964071184397
1751013781199748600,7.46174853515625,-0.004698881413787603,0.008036620914936066,-0.01565645821392536
1751013781209692400,7.4716923828125,0.0030533140525221825,0.016950221732258797,-0.023853667080402374
1751013781219635500,7.481635498046875,0.008618787862360477,0.02822284959256649,-0.03316008299589157
1751013781229579500,7.49157958984375,0.00833889003843069,0.03828400745987892,-0.03489646315574646
1751013781239522600,7.5015224609375,0.0038956720381975174,0.04280046001076698,-0.03361202031373978
1751013781249466400,7.51146630859375,-0.0032469260040670633,0.0438859649002552,-0.027516845613718033
1751013781259409400,7.521409423828125,-0.01619228534400463,0.03417954221367836,-0.020184364169836044
1751013781269353700,7.531353759765625,-0.024119718000292778,0.02310212329030037,-0.014738465659320354
1751013781279296500,7.541296630859375,-0.026795927435159683,0.011815913021564484,-0.019810723140835762
1751013781289239600,7.551239501953125,-0.020745757967233658,0.0016130766598507762,-0.032406408339738846
1751013781299183600,7.56118359375,-0.0143533730879426,0.004889297299087048,-0.04849456623196602
1751013781309126700,7.571126708984375,-0.00893570389598608,0.012708071619272232,-0.055622514337301254
1751013781319070500,7.581070556640625,-0.00418489146977663,0.010235060937702656,-0.06764562427997589
1751013781329013500,7.591013427734375,-0.012613529339432716,0.005053347907960415,-0.0829998105764389
1751013781338957600,7.60095751953125,0.0031944618094712496,0.004656004719436169,-0.06284048408269882
1751013781348900600,7.610900634765625,0.009109076112508774,-0.00034674355993047357,-0.046357378363609314
1751013781358844400,7.620844482421875,-0.00021651499264407903,-0.008279235102236271,-0.028184765949845314
1751013781368787500,7.630787353515625,-0.004808603785932064,-0.010804444551467896,-0.010992197319865227
1751013781378730500,7.64073046875,-0.005637113004922867,-0.014093448407948017,-0.005067729391157627
1751013781388674600,7.650674560546875,-0.005628324579447508,-0.0073383403941988945,-0.0035776905715465546
1751013781398617600,7.66061767578125,0.0033875408116728067,0.001326786819845438,-0.014884141273796558
1751013781408561400,7.6705615234375,0.01088886708021164,0.0019680759869515896,-0.0288793183863163
1751013781418504400,7.68050439453125,0.020307136699557304,0.007689611054956913,-0.04856780171394348
1751013781428448500,7.690448486328125,0.02846493013203144,0.018621088936924934,-0.0562606081366539
1751013781438391600,7.7003916015625,0.03322506323456764,0.02046745829284191,-0.06046680733561516
1751013781448335600,7.710335693359375,0.02592640556395054,0.020330306142568588,-0.054553788155317307
1751013781458278400,7.7202783203125,0.009022257290780544,0.01805809698998928,-0.04904583841562271
1751013781468221400,7.730221435546875,-0.00455640209838748,0.01715821400284767,-0.04452512413263321
1751013781478165500,7.74016552734375,-0.018018415197730064,0.004735100548714399,-0.04583752900362015
1751013781488108500,7.750108642578125,-0.03038666769862175,-0.0034354778472334146,-0.04138286039233208
1751013781498052600,7.760052490234375,-0.03604002669453621,-0.005191832315176725,-0.039751406759023666
1751013781507995600,7.76999560546875,-0.036015257239341736,-0.008788165636360645,-0.03635720908641815
1751013781517939500,7.779939453125,-0.0363023467361927,0.00040666470886208117,-0.03278830647468567
1751013781527882500,7.789882568359375,-0.027700603008270264,0.022303175181150436,-0.028614601120352745
1751013781537826600,7.79982666015625,-0.008445949293673038,0.05355110764503479,-0.014630874618887901
1751013781547769600,7.80976953125,0.006413690745830536,0.07033248245716095,-0.007436610758304596
1751013781557712600,7.819712646484375,0.011327755637466908,0.07447423040866852,-0.0011978897964581847
1751013781567656400,7.829656494140625,0.012135758996009827,0.06906508654356003,0.0024053670931607485
1751013781577599500,7.839599609375,0.011361843906342983,0.051955342292785645,-0.00213532242923975
1751013781587543600,7.84954345703125,0.003328951308503747,0.02955283224582672,-0.006641923915594816
1751013781597486600,7.859486572265625,-0.007802795618772507,0.008480303920805454,-0.01696087419986725
1751013781607430400,7.869430419921875,-0.013683588244020939,-0.0057401773519814014,-0.027667313814163208
1751013781617373400,7.87937353515625,-0.023214241489768028,-0.011686483398079872,-0.04006858915090561
1751013781627317500,7.8893173828125,-0.020258400589227676,-0.007740743923932314,-0.043358657509088516
1751013781637260500,7.899260498046875,-0.012219647876918316,0.0013712616637349129,-0.03735669329762459
1751013781647203300,7.909203369140625,-0.006135124247521162,0.004604072775691748,-0.02304033748805523
1751013781657147600,7.919147705078125,0.0008367652189917862,0.009181248024106026,-0.013334980234503746
1751013781667090400,7.92909033203125,0.007509315386414528,0.010934140533208847,-0.001692705205641687
1751013781677033500,7.939033447265625,0.011810586787760258,0.004306331276893616,0.0020301276817917824
1751013781686976500,7.9489765625,0.009317335672676563,-0.0011496866354718804,0.0007728493656031787
1751013781696920300,7.95892041015625,0.0026700852904468775,-0.01161537691950798,-0.0020634171087294817
1751013781706863400,7.96886328125,-0.005351622123271227,-0.018060758709907532,-0.01618722639977932
1751013781716807400,7.978807373046875,-0.011148524470627308,-0.01709243468940258,-0.01991831511259079
1751013781726750500,7.98875048828125,-0.015481754206120968,-0.008837699890136719,-0.02147466503083706
1751013781736693500,7.998693603515625,-0.010666492395102978,0.004680771846324205,-0.01513021718710661
1751013781746637300,8.00863720703125,-0.006689327768981457,0.01564607210457325,-0.005666141398251057
1751013781756580400,8.018580322265626,-0.005160673521459103,0.02514769695699215,0.0006719155353493989
1751013781766524400,8.0285244140625,0.007839281111955643,0.024380706250667572,-0.00006924218905624002
1751013781776467200,8.03846728515625,0.010765562765300274,0.014696920290589333,0.002463157754391432
1751013781786411300,8.048411376953124,0.007169495802372694,-0.0062424493953585625,0.0057585532777011395
1751013781796354300,8.058354248046875,-0.006712497677654028,-0.025540513917803764,0.002320678671821952
1751013781806298400,8.06829833984375,-0.009823868982493877,-0.03670874610543251,0.0019534286111593246
1751013781816241200,8.0782412109375,-0.011211375705897808,-0.026502979919314384,-0.0005097290268167853
1751013781826184200,8.08818408203125,-0.012736301869153976,-0.009104548953473568,-0.003668237943202257
1751013781836128300,8.098128173828124,-0.01113467663526535,0.01221485435962677,-0.02249651961028576
1751013781846071300,8.1080712890625,-0.002177400514483452,0.032168056815862656,-0.03724909946322441
1751013781856015000,8.11801513671875,0.009260609745979309,0.04301750659942627,-0.04216955602169037
1751013781865958100,8.127958251953125,0.017586717382073402,0.041780736297369,-0.033599238842725754
1751013781875902500,8.13790234375,0.026128539815545082,0.03199335187673569,-0.007833954878151417
1751013781885845500,8.147845458984374,0.023665914312005043,0.020232833921909332,0.02167147397994995
1751013781895789300,8.157789306640625,0.016054334118962288,0.00686163455247879,0.03164474666118622
1751013781905732400,8.167732421875,0.01044465135782957,-0.003433879930526018,0.02622787468135357
1751013781915675400,8.17767529296875,0.005658951122313738,-0.0007595335482619703,0.015919843688607216
1751013781925619500,8.187619384765625,-0.0008809737046249211,-0.002975017298012972,0.00026764770154841244
1751013781935562500,8.1975625,-0.00920388475060463,-0.0019060244085267186,-0.018971027806401253
1751013781945506300,8.20750634765625,-0.009229983203113079,0.003441869281232357,-0.036620061844587326
1751013781955449300,8.217449462890626,-0.0012008192716166377,0.005512743256986141,-0.050583016127347946
1751013781965393400,8.227393310546875,-0.0024682176299393177,0.013954964466392994,-0.0574457161128521
1751013781975336200,8.237336181640625,0.0028461201582103968,0.013774135150015354,-0.05597298592329025
1751013781985280300,8.2472802734375,0.00407596817240119,0.006953247357159853,-0.046125948429107666
1751013781995223300,8.257223388671875,0.0002657834847923368,-0.004102333448827267,-0.0374126210808754
1751013782005166300,8.267166259765625,-0.007379086688160896,-0.015018364414572716,-0.025076856836676598
1751013782015110100,8.277110107421874,-0.015747005119919777,-0.022878151386976242,-0.017496434971690178
1751013782025053200,8.28705322265625,-0.017715347930788994,-0.026819096878170967,-0.0038509308360517025
1751013782034997200,8.296997314453124,-0.011334147304296494,-0.023721840232610703,0.011172492988407612
1751013782044940300,8.306940185546875,-0.00375958438962698,-0.01672545075416565,0.02316071279346943
1751013782054884400,8.31688427734375,0.0035167040769010782,-0.00290417717769742,0.024637969210743904
1751013782064827100,8.3268271484375,0.01984880492091179,0.006669087801128626,0.01721121184527874
1751013782074771500,8.336771484375,0.028186896815896034,0.015794942155480385,-0.000027430558475316502
1751013782084714500,8.346714599609374,0.02587074600160122,0.013713947497308254,-0.019107380881905556
1751013782094658300,8.356658203125,0.0204597357660532,0.003875698195770383,-0.028354143723845482
1751013782104601300,8.366601318359375,0.008783637546002865,-0.00024767397553659976,-0.028020448982715607
1751013782114544400,8.37654443359375,-0.00019627496658358723,-0.009032909758388996,-0.015680693089962006
1751013782124488400,8.386488525390625,-0.004280765075236559,-0.0243732500821352,0.004473311826586723
1751013782134431500,8.396431396484376,-0.008617723360657692,-0.0334668792784214,0.026765568181872368
1751013782144375300,8.406375244140625,-0.010717625729739666,-0.04601755738258362,0.03482269495725632
1751013782154318300,8.416318359375,-0.011080081574618816,-0.05879886820912361,0.027272900566458702
1751013782164262400,8.426262451171874,-0.012165320105850697,-0.06082500144839287,0.014366156421601772
1751013782174205200,8.436205078125,-0.012710735201835632,-0.059175439178943634,-0.005244562868028879
1751013782184149200,8.446149169921876,-0.015932893380522728,-0.052255745977163315,-0.02448590099811554
1751013782194092300,8.45609228515625,-0.026328809559345245,-0.04472832381725311,-0.03959827497601509
1751013782204035300,8.466035400390625,-0.020914603024721146,-0.03946192190051079,-0.0526520274579525
1751013782213979100,8.475979248046874,-0.007701861672103405,-0.034449853003025055,-0.05185973644256592
1751013782223922200,8.485922119140625,-0.00040480049210600555,-0.03605733811855316,-0.041366349905729294
1751013782233866200,8.4958662109375,0.003368099918588996,-0.028303276747465134,-0.030413033440709114
1751013782243809300,8.505809326171875,0.012414325028657913,-0.02070154994726181,-0.01323804073035717
1751013782253753300,8.51575341796875,0.015745673328638077,-0.012574381195008755,0.006982275750488043
1751013782263696400,8.5256962890625,0.015066834166646004,-0.008342085406184196,0.017308948561549187
1751013782273640400,8.535640380859375,0.02203366346657276,-0.0019624833948910236,0.0291147418320179
1751013782283583500,8.54558349609375,0.024351945146918297,0.00378967821598053,0.035768650472164154
1751013782293526500,8.555526611328125,0.023496538400650024,0.0015334481140598655,0.028626585379242897
1751013782303470300,8.56547021484375,0.011998872272670269,0.002547047333791852,0.028206337243318558
1751013782313413400,8.575413330078124,0.0004340952436905354,0.012888101860880852,0.020733240991830826
1751013782323357400,8.585357421875,-0.0040826257318258286,0.02696690335869789,0.012988503091037273
1751013782333300500,8.595300537109376,-0.008417719043791294,0.040229976177215576,0.003516171593219042
1751013782343244300,8.605244384765625,-0.007222492713481188,0.04969698190689087,-0.0007576693315058947
1751013782353187300,8.615187255859375,-0.01483274158090353,0.0486154742538929,-0.0006657902849838138
1751013782363131400,8.62513134765625,-0.017732923850417137,0.044012464582920074,-0.004542287439107895
1751013782373074200,8.63507421875,-0.015689214691519737,0.032287631183862686,-0.01375069934874773
1751013782383018200,8.645018310546876,-0.01546524278819561,0.012283564545214176,-0.02052524872124195
1751013782392961300,8.654961181640624,-0.024687768891453743,-0.006875482853502035,-0.03461523354053497
1751013782402904300,8.664904296875,-0.03822088986635208,-0.020909009501338005,-0.03959188237786293
1751013782412848000,8.67484814453125,-0.040525853633880615,-0.008024636656045914,-0.029623938724398613
1751013782422791200,8.684791259765625,-0.03503495082259178,0.0012117383303120732,-0.017172062769532204
1751013782432735200,8.6947353515625,-0.029805831611156464,0.019478093832731247,-0.0014721954939886928
1751013782442678300,8.70467822265625,-0.02371518313884735,0.037101563066244125,0.010087521746754646
1751013782452622300,8.714622314453125,-0.01594407856464386,0.06950690597295761,0.02136893756687641
1751013782462565400,8.7245654296875,0.007004912476986647,0.08276385813951492,0.01320794690400362
1751013782472509400,8.734509521484375,0.024033697322010994,0.06785734742879868,-0.004093811381608248
1751013782482452500,8.744452392578125,0.03453906998038292,0.08081282675266266,-0.029325664043426514
1751013782492395500,8.7543955078125,0.0422222875058651,0.06615292280912399,-0.06762005388736725
1751013782502339300,8.76433935546875,0.04369421675801277,0.036005936563014984,-0.08851388841867447
1751013782512282400,8.774282470703126,0.0388890765607357,0.010745055973529816,-0.09295204281806946
1751013782522226400,8.784226318359375,0.018502844497561455,-0.01690760999917984,-0.07426943629980087
1751013782532169200,8.794169189453125,0.0027832696214318275,-0.03434865176677704,-0.044933121651411057
1751013782542113300,8.80411328125,0.0041129859164357185,-0.029856964945793152,-0.001583249308168888
1751013782552056300,8.814056396484375,0.02219664864242077,-0.017669009044766426,0.03713937848806381
1751013782562000400,8.82400048828125,0.04412245377898216,-0.011180482804775238,0.06202635169029236
1751013782571943200,8.833943115234375,0.06752338260412216,-0.009703227318823338,0.07128376513719559
1751013782581887200,8.84388720703125,0.09495607018470764,-0.011086739599704742,0.07099801301956177
1751013782591830300,8.853830322265624,0.11023303121328354,-0.019905798137187958,0.046777091920375824
1751013782601773300,8.863773193359375,0.10756028443574905,-0.04650704935193062,0.016654876992106438
1751013782611717000,8.873717041015626,0.07675230503082275,-0.09241461753845215,-0.03241759538650513
1751013782621660200,8.88366015625,0.029685724526643753,-0.14968962967395782,-0.0896390751004219
1751013782631604500,8.8936044921875,-0.03580699861049652,-0.2145461142063141,-0.1525288224220276
1751013782641547300,8.90354736328125,-0.10452907532453537,-0.25418195128440857,-0.19290128350257874
1751013782651491300,8.9134912109375,-0.1392604261636734,-0.2581835985183716,-0.17304688692092896
1751013782661434400,8.923434326171876,-0.1808217167854309,-0.24532267451286316,-0.13045628368854523
1751013782671378400,8.93337841796875,-0.19337904453277588,-0.21762846410274506,-0.06046494096517563
1751013782681321700,8.94332177734375,-0.17628848552703857,-0.15393497049808502,0.010241984389722347
1751013782691265500,8.953265625,-0.13240517675876617,-0.0928865298628807,0.07106911391019821
1751013782701208600,8.96320849609375,-0.07953210920095444,-0.027819380164146423,0.10383877903223038
1751013782711151600,8.973151611328126,-0.023011842742562294,0.027174096554517746,0.11271855980157852
1751013782721095700,8.983095703125,0.017911089584231377,0.05284643545746803,0.11066233366727829
1751013782731038500,8.99303857421875,0.03521284833550453,0.07845326513051987,0.10369949787855148
1751013782740982500,9.002982421875,0.04333815351128578,0.10578155517578125,0.09797795861959457
1751013782750925600,9.012925537109375,0.0413447767496109,0.12775209546089172,0.08160164952278137
1751013782760869400,9.022869384765626,0.030290793627500534,0.13178572058677673,0.05114307999610901
1751013782770812400,9.0328125,0.009487777948379517,0.12148115783929825,0.015388543717563152
1751013782780756500,9.042756591796875,-0.009456352330744267,0.091827392578125,-0.018922025337815285
1751013782790699500,9.052699462890626,-0.023934893310070038,0.05710349977016449,-0.038845665752887726
1751013782800642600,9.062642578125,-0.034867703914642334,0.023569507524371147,-0.039678435772657394
1751013782810586400,9.07258642578125,-0.04053464159369469,-0.010276872664690018,-0.025320803746581078
1751013782820529400,9.082529296875,-0.05110286548733711,-0.031256455928087234,-0.004117513541132212
1751013782830473700,9.0924736328125,-0.052200619131326675,-0.046010103076696396,0.015066834166646004
1751013782840416800,9.102416748046876,-0.03383945673704147,-0.04428970068693161,0.035839490592479706
1751013782850360600,9.112360595703125,-0.011121360585093498,-0.03398086875677109,0.0621161013841629
1751013782860303600,9.1223037109375,0.0199273694306612,-0.010388459078967571,0.07233092188835144
1751013782870247700,9.13224755859375,0.04575710371136665,0.016408268362283707,0.057628143578767776
1751013782880190700,9.142190673828125,0.0734127014875412,0.03771835193037987,0.04133465513586998
1751013782890134500,9.152134521484374,0.08706725388765335,0.04765141010284424,0.01582423597574234
1751013782900077600,9.16207763671875,0.07948789745569229,0.029094235971570015,-0.003394198836758733
1751013782910020600,9.1720205078125,0.05287253484129906,0.0003094593121204525,-0.010310428217053413
1751013782919964700,9.181964599609374,0.026689933612942696,-0.03996792063117027,-0.0027571707032620907
1751013782929907500,9.191907470703125,0.002317482838407159,-0.06998281180858612,0.006717024836689234
1751013782939851500,9.2018515625,-0.012708071619272232,-0.08694794774055481,0.026880349963903427
1751013782949794600,9.211794677734375,-0.012627644464373589,-0.08006580919027328,0.057195913046598434
1751013782959738400,9.22173828125,-0.00714606000110507,-0.06169638782739639,0.07390245050191879
1751013782969681400,9.231681396484374,0.005289570428431034,-0.04382338002324104,0.08279821276664734
1751013782979625500,9.24162548828125,0.01121936459094286,-0.020017383620142937,0.06615744531154633
1751013782989568500,9.251568603515626,0.019756127148866653,0.003954527899622917,0.041138648986816406
1751013782999512600,9.2615126953125,0.0336274690926075,0.0343523807823658,0.014545120298862457
1751013783009455600,9.27145556640625,0.040168989449739456,0.05010417848825455,-0.006735400762408972
1751013783019398700,9.281398681640624,0.03947151079773903,0.052442170679569244,-0.02053004316985607
1751013783029342700,9.2913427734375,0.027275029569864273,0.04808497056365013,-0.02990836463868618
1751013783039285800,9.30128564453125,0.018809640780091286,0.049554768949747086,-0.030422087758779526
1751013783049229600,9.3112294921875,0.007260309532284737,0.03880598396062851,-0.025412948802113533
1751013783059172600,9.321172607421875,-0.010055563412606716,0.02689553052186966,-0.018094582483172417
1751013783069116700,9.33111669921875,-0.027803935110569,0.015063105151057243,-0.013013802468776703
1751013783079059700,9.341059814453125,-0.026616163551807404,0.0091759217903018,-0.004008590243756771
1751013783089003500,9.35100341796875,-0.017709754407405853,0.01019937451928854,0.01495471503585577
1751013783098946600,9.360946533203125,-0.006680273450911045,0.02094469591975212,0.025080053135752678
1751013783108890600,9.370890625,0.004030694253742695,0.03892076760530472,0.025893915444612503
1751013783118833700,9.380833740234374,0.028785841539502144,0.055562861263751984,0.019685819745063782
1751013783128776400,9.3907763671875,0.04436320438981056,0.07105686515569687,0.011290204711258411
1751013783138720500,9.400720458984376,0.04647402465343475,0.06540217250585556,-0.00021385183208622038
1751013783148663600,9.41066357421875,0.03876257687807083,0.057135459035634995,-0.012342952191829681
1751013783158607400,9.420607421875,0.033718813210725784,0.033253028988838196,-0.013205284252762794
1751013783168550400,9.43055029296875,0.024534370750188828,0.015060975216329098,-0.010639861226081848
1751013783178494500,9.440494384765625,0.011828163638710976,-0.006000900641083717,-0.005632053129374981
1751013783188437500,9.4504375,0.002153165638446808,-0.010388192720711231,-0.008503473363816738
1751013783198381600,9.460381591796875,0.00571833923459053,-0.007498130202293396,-0.018667694181203842
1751013783208324600,9.47032470703125,0.0073468624614179134,-0.0009973538108170033,-0.030770694836974144
1751013783218268700,9.4802685546875,0.0145901283249259,0.0031971249263733625,-0.04265611618757248
1751013783228211700,9.490211669921875,0.021799838170409203,0.01404764223843813,-0.04509184509515762
1751013783238155500,9.500155517578126,0.03615294396877289,0.020556939765810966,-0.03587863966822624
1751013783248098600,9.5100986328125,0.0480777807533741,0.015499064698815346,-0.02894935943186283
1751013783258041600,9.52004150390625,0.05031829699873924,0.006621151231229305,-0.014851117506623268
1751013783267985700,9.529985595703126,0.04392218217253685,-0.0013829795643687248,-0.01468546874821186
1751013783277928700,9.5399287109375,0.03303012251853943,-0.00392869533970952,-0.020852284505963326
1751013783287872500,9.54987255859375,0.024692563340067863,-0.0011025486746802926,-0.02641855739057064
1751013783297815600,9.559815673828124,0.016405338421463966,0.002112685702741146,-0.03665921092033386
1751013783307759600,9.569759521484375,0.015570171177387238,0.004926049150526524,-0.042560774832963943
1751013783317702700,9.57970263671875,0.021564681082963943,0.011331217363476753,-0.04486547410488129
1751013783327646500,9.589646484375,0.03130625560879707,0.015211443416774273,-0.038592930883169174
1751013783337589500,9.599589599609375,0.03645068407058716,0.010695520788431168,-0.028838573023676872
1751013783347533600,9.609533447265624,0.03488421440124512,-0.0019853864796459675,-0.018792595714330673
1751013783357476400,9.619476318359375,0.03370070457458496,-0.013282782398164272,-0.009631055407226086
1751013783367419400,9.62941943359375,0.03455877676606178,-0.010127468965947628,0.0010183927370235324
1751013783377363700,9.63936376953125,0.0355561301112175,-0.007192398887127638,0.0008199872681871057
1751013783387306500,9.649306396484375,0.03217870742082596,0.0035119105596095324,-0.00697961263358593
1751013783397250600,9.65925048828125,0.03239202871918678,0.01594940572977066,-0.004493285436183214
1751013783407193600,9.669193603515625,0.03350948914885521,0.027963457629084587,-0.0014743260107934475
1751013783417137700,9.6791376953125,0.038371890783309937,0.034689802676439285,0.0021766014397144318
1751013783427080700,9.689080810546875,0.0399458184838295,0.033370472490787506,0.0016679377295076847
1751013783437024500,9.6990244140625,0.03696334362030029,0.02718954347074032,0.0007656587986275554
1751013783446967600,9.708967529296874,0.026921628043055534,0.01395789347589016,0.00014700648898724467
1751013783456911600,9.71891162109375,0.0177592895925045,0.0068326061591506,0.016459133476018906
1751013783466854700,9.728854736328126,0.0007962851668708026,-0.013913685455918312,0.03333878144621849
1751013783476798500,9.738798583984375,-0.01648390106856823,-0.03623150661587715,0.04689613729715347
1751013783486741500,9.748741455078125,-0.03677532449364662,-0.0529702752828598,0.05811922997236252
1751013783496684500,9.7586845703125,-0.0504264235496521,-0.05885319784283638,0.061587996780872345
1751013783506628600,9.768628662109375,-0.059360262006521225,-0.054477889090776443,0.05435271933674812
1751013783516571600,9.778571533203126,-0.05182431638240814,-0.03493987396359444,0.049250103533267975
1751013783526515500,9.788515380859375,-0.04006672650575638,0.0036828855518251657,0.06609459966421127
1751013783536458500,9.79845849609375,-0.03520459309220314,0.04721731320023537,0.07598850876092911
1751013783546402600,9.808402587890624,-0.020912738516926765,0.06828664243221283,0.07516399025917053
1751013783556345300,9.818345458984375,0.0015957661671563983,0.08150071650743484,0.055453140288591385
1751013783566289700,9.82828955078125,0.022964971140027046,0.08545338362455368,0.016519587486982346
1751013783576232700,9.838232666015625,0.037148699164390564,0.07448168843984604,-0.02804734744131565
1751013783586176500,9.848176513671875,0.035883430391550064,0.0492173470556736,-0.05383686721324921
1751013783596119600,9.85811962890625,0.02244219183921814,0.023319438099861145,-0.06659580767154694
1751013783606062600,9.8680625,0.004462925251573324,0.004400607198476791,-0.052379053086042404
1751013783616006700,9.878006591796876,-0.012912869453430176,-0.006986270658671856,-0.019294602796435356
1751013783625949700,9.88794970703125,-0.03515505790710449,-0.00515801040455699,0.014028733596205711
1751013783635893500,9.8978935546875,-0.0509614497423172,0.0036879454273730516,0.03894500061869621
1751013783645836500,9.90783642578125,-0.05176439508795738,0.01678190939128399,0.0467991977930069
1751013783655780600,9.917780517578125,-0.03465651348233223,0.022595057263970375,0.04150776192545891
1751013783665723600,9.9277236328125,-0.009646235965192318,0.038303181529045105,0.023384951055049896
1751013783675667000,9.9376669921875,0.018560368567705154,0.051053863018751144,0.007733287289738655
1751013783685610000,9.94760986328125,0.04352084547281265,0.07648865133523941,0.0015219965716823936
1751013783695554000,9.957553955078126,0.05050818249583244,0.08950378000736237,-0.0063210129737854
1751013783705497000,9.9674970703125,0.0448196679353714,0.09239012002944946,-0.012500345706939697
1751013783715441000,9.97744091796875,0.03284583240747452,0.09040340036153793,-0.015665778890252113
1751013783725384000,9.987384033203124,0.02732030488550663,0.09166733920574188,0.0011853729374706745
1751013783735327000,9.997326904296875,0.025539448484778404,0.07431977242231369,0.028024444356560707
1751013783745271000,10.00727099609375,0.03218989446759224,0.057014551013708115,0.054600927978754044
1751013783755214000,10.017214111328125,0.0415748730301857,0.04879097640514374,0.06435448676347733
1751013783765158000,10.027157958984375,0.05692853033542633,0.049080461263656616,0.06301305443048477
1751013783775101000,10.037100830078124,0.06484957039356232,0.04301963746547699,0.044802360236644745
1751013783785045200,10.047045166015625,0.0662626400589943,0.04393123835325241,0.024353010579943657
1751013783794988000,10.056988037109376,0.040584176778793335,0.03975993022322655,0.005859486758708954
1751013783804932000,10.06693212890625,0.02347150444984436,0.011196727864444256,-0.011663846671581268
1751013783814875100,10.076875244140625,-0.02484649419784546,-0.004517520312219858,-0.026266224682331085
1751013783824819200,10.086819091796874,-0.028751753270626068,-0.013836986385285854,-0.021147362887859344
1751013783834762000,10.096761962890625,-0.03548795357346535,-0.02961035631597042,-0.006589459255337715
1751013783844706000,10.1067060546875,-0.032825324684381485,-0.023734623566269875,0.006506102625280619
1751013783854649000,10.116649169921875,-0.026161829009652138,-0.011551461182534695,0.015922507271170616
1751013783864592100,10.126592041015625,-0.01654249057173729,-0.005907956510782242,0.009814014658331871
1751013783874536000,10.136535888671874,-0.023991618305444717,-0.018574217334389687,-0.016826383769512177
1751013783884479000,10.14647900390625,-0.02907426282763481,-0.02015986293554306,-0.05438121780753136
1751013783894423000,10.156423095703126,-0.023816915228962898,-0.023684024810791016,-0.07452057301998138
1751013783904366000,10.166365966796874,-0.019093800336122513,-0.027030551806092262,-0.07221400737762451
1751013783914310000,10.176309814453125,-0.014116884209215641,-0.03508980944752693,-0.05823135003447533
1751013783924253000,10.1862529296875,-0.013659087009727955,-0.04157327488064766,-0.04024489223957062
1751013783934197000,10.196197021484375,-0.013819143176078796,-0.04158419370651245,-0.027843615040183067
1751013783944140000,10.20614013671875,-0.015282549895346165,-0.027183949947357178,-0.01973482221364975
1751013783954083800,10.216083740234374,-0.0057407100684940815,-0.00920335203409195,-0.026269687339663506
1751013783964027000,10.22602685546875,-0.00035606464371085167,-0.008065382950007915,-0.04751398786902428
1751013783973971200,10.23597119140625,-0.009532785043120384,-0.007831557653844357,-0.07191147655248642
1751013783983914200,10.245914306640625,-0.013954964466392994,-0.014258031733334064,-0.0873921662569046
1751013783993858000,10.255858154296876,-0.01444258913397789,-0.03075018897652626,-0.09327562153339386
1751013784003801000,10.265801025390624,-0.005810218397527933,-0.04904397577047348,-0.07899255305528641
1751013784013744000,10.275744140625,0.011273959651589394,-0.06390894204378128,-0.06180610880255699
1751013784023688200,10.285688232421874,0.018665296956896782,-0.06791087239980698,-0.035420842468738556
1751013784033631000,10.295630859375,0.006502107717096806,-0.05860579013824463,-0.02154950052499771
1751013784043575000,10.305574951171875,-0.016536099836230278,-0.042448658496141434,-0.019640013575553894
1751013784053518000,10.31551806640625,-0.03786136209964752,-0.01757100410759449,-0.016041550785303116
1751013784063462100,10.325462158203125,-0.04933372884988785,0.0026197514962404966,-0.010134126991033554
1751013784073405000,10.335405029296876,-0.04542207717895508,0.0021113541442900896,-0.0031968585681170225
1751013784083349000,10.345348876953125,-0.03483681008219719,-0.0014982944121584296,-0.004848018288612366
1751013784093292000,10.3552919921875,-0.015283082611858845,-0.005060805007815361,-0.00817910023033619
1751013784103235800,10.36523583984375,0.01570306345820427,-0.0036333505995571613,-0.01565033197402954
1751013784113179000,10.375178955078125,0.043181292712688446,-0.007005977910012007,-0.019522834569215775
1751013784123123000,10.385123046875,0.0554313026368618,-0.010134926065802574,-0.021163342520594597
1751013784133066000,10.39506591796875,0.0466519258916378,-0.00803022924810648,-0.010055829770863056
1751013784143010000,10.405010009765626,0.0392797626554966,-0.01098340842872858,0.015576296485960484
1751013784152952800,10.414952880859374,0.025413481518626213,-0.0086028091609478,0.027578631415963173
1751013784162896000,10.424895751953125,0.0051801144145429134,-0.00726536987349391,0.020124975591897964
1751013784172840200,10.434840087890626,-0.015103585086762905,0.002891660202294588,-0.0022972426377236843
1751013784182783200,10.444783203125,-0.022963372990489006,0.031572841107845306,-0.019645607098937035
1751013784192727000,10.45472705078125,-0.01810789667069912,0.0622953325510025,-0.03532816469669342
1751013784202670000,10.464670166015624,-0.015604259446263313,0.07568091154098511,-0.044075313955545425
1751013784212614100,10.4746142578125,-0.014731542207300663,0.07807642221450806,-0.04839416220784187
1751013784222557200,10.48455712890625,-0.020073842257261276,0.07798881083726883,-0.04535869136452675
1751013784232501000,10.4945009765625,-0.016039686277508736,0.06992768496274948,-0.035404328256845474
1751013784242444000,10.504444091796875,-0.016460997983813286,0.05612824857234955,-0.019648801535367966
1751013784252388000,10.51438818359375,-0.011928298510611057,0.042992208153009415,0.0006287723081186414
1751013784262331100,10.5243310546875,-0.005206213798373938,0.03443307429552078,0.01781761273741722
1751013784272275000,10.53427490234375,0.0007949535502120852,0.034328412264585495,0.030187729746103287
1751013784282218000,10.544218017578125,0.009191634133458138,0.03437581658363342,0.0365244559943676
1751013784292161000,10.5541611328125,0.009589510038495064,0.033777669072151184,0.03425144776701927
1751013784302104800,10.564104736328124,0.007546066772192717,0.04053783789277077,0.023149261251091957
1751013784312047900,10.5740478515625,0.010930677875876427,0.05511598289012909,0.006878145970404148
1751013784321992000,10.583991943359376,0.017193101346492767,0.06222289428114891,-0.005657086614519358
1751013784331935000,10.59393505859375,0.009371663443744183,0.06291452050209045,-0.016279105097055435
1751013784341879000,10.603879150390625,-0.0028003137558698654,0.06094484403729439,-0.01763278990983963
1751013784351822000,10.613822021484374,-0.013309413567185402,0.0674743801355362,-0.014030864462256432
1751013784361766100,10.62376611328125,-0.018552379682660103,0.06387937813997269,-0.0007246461464092135
1751013784371709200,10.633709228515626,-0.025600168853998184,0.05579455569386482,0.00336170825175941
1751013784381653000,10.643653076171875,-0.033659424632787704,0.047747813165187836,0.005892510060220957
1751013784391596000,10.653595947265625,-0.03689064085483551,0.04397358372807503,0.0043710460886359215
1751013784401540000,10.6635400390625,-0.025489646941423416,0.03756868094205856,-0.002374740783125162
1751013784411483100,10.673483154296875,-0.01685195043683052,0.03274889290332794,-0.01500930916517973
1751013784421427000,10.683427001953126,-0.00959909800440073,0.028448153287172318,-0.035048797726631165
1751013784431370000,10.693369873046874,-0.008554605767130852,0.03584854304790497,-0.04965144395828247
1751013784441313000,10.70331298828125,-0.012970393523573875,0.05030897632241249,-0.056531719863414764
1751013784451257000,10.713257080078124,-0.018259165808558464,0.06602296233177185,-0.04998646676540375
1751013784461200000,10.723199951171875,-0.018811505287885666,0.07907138019800186,-0.05097103863954544
1751013784471144000,10.73314404296875,-0.01525858137756586,0.09034054726362228,-0.053584396839141846
1751013784481087000,10.7430869140625,-0.008252870291471481,0.0867905542254448,-0.05973710119724274
1751013784491031000,10.753031005859375,-0.012134959921240807,0.07056045532226562,-0.05560680478811264
1751013784500973800,10.762973876953126,-0.027357321232557297,0.04704740270972252,-0.0478985495865345
1751013784510918100,10.772918212890625,-0.032230108976364136,0.014461763203144073,-0.04142360761761665
1751013784520861000,10.78286083984375,-0.04133891686797142,-0.00887844618409872,-0.023790284991264343
1751013784530805000,10.792804931640624,-0.047206927090883255,-0.0019323896849527955,0.0033507891930639744
1751013784540748000,10.802748046875,-0.052393700927495956,0.00894076470285654,0.0173808541148901
1751013784550692000,10.812692138671874,-0.04589745029807091,-0.02460414543747902,-0.004855475388467312
1751013784560635100,10.82263525390625,-0.029887856915593147,-0.038607046008110046,-0.04219432547688484
1751013784570579000,10.832578857421876,-0.017519604414701462,-0.018673552200198174,-0.0790862962603569
1751013784580522000,10.84252197265625,-0.018311895430088043,0.01212856825441122,-0.11153584718704224
1751013784590465000,10.852465087890625,-0.023008912801742554,0.02690618298947811,-0.11012543737888336
