time,seconds_elapsed,z,y,x
1751013965815221800,0.1172216796875,-0.9963531494140625,-0.0943145751953125,0.0449371337890625
1751013965825164800,0.127164794921875,-1.00897216796875,-0.0913848876953125,0.043701171875
1751013965835108900,0.13710888671875,-1.0087738037109375,-0.10089111328125,0.0274200439453125
1751013965845053000,0.147052978515625,-0.9996490478515625,-0.1084747314453125,0.015533447265625
1751013965854995200,0.1569951171875,-0.991668701171875,-0.1068267822265625,0.0063323974609375
1751013965864939300,0.166939208984375,-0.9955291748046875,-0.0987091064453125,0.002716064453125
1751013965874883300,0.17688330078125,-1.0021209716796875,-0.0985565185546875,-0.0052642822265625
1751013965884827400,0.186827392578125,-0.9971160888671875,-0.1046905517578125,-0.015899658203125
1751013965894770400,0.1967705078125,-0.991180419921875,-0.1083831787109375,-0.024017333984375
1751013965904714200,0.20671435546875,-0.98150634765625,-0.110565185546875,-0.0234527587890625
1751013965914658300,0.216658203125,-0.96990966796875,-0.113189697265625,-0.02349853515625
1751013965924601300,0.226601318359375,-0.9673004150390625,-0.116607666015625,-0.0211334228515625
1751013965934545200,0.236545166015625,-0.9604034423828125,-0.123016357421875,-0.015655517578125
1751013965944489200,0.2464892578125,-0.9511566162109375,-0.1315765380859375,-0.0064239501953125
1751013965954433300,0.256433349609375,-0.9529571533203125,-0.1405792236328125,0.0034637451171875
1751013965964376300,0.266376220703125,-0.96307373046875,-0.1457977294921875,0.0038299560546875
1751013965974320400,0.2763203125,-0.9733734130859375,-0.1442108154296875,0.001922607421875
1751013965984264400,0.286264404296875,-0.981414794921875,-0.1418914794921875,0.0019683837890625
1751013965994207500,0.29620751953125,-0.98516845703125,-0.13470458984375,-0.0006256103515625
1751013966004151300,0.3061513671875,-0.992523193359375,-0.12005615234375,-0.000518798828125
1751013966014095400,0.316095458984375,-1.004974365234375,-0.10968017578125,-0.006378173828125
1751013966024039200,0.3260390625,-1.0169830322265625,-0.1038360595703125,-0.0106353759765625
1751013966033982200,0.335982177734375,-1.0292205810546875,-0.0978851318359375,-0.0124664306640625
1751013966043926300,0.34592626953125,-1.0396575927734375,-0.092315673828125,-0.017822265625
1751013966053870000,0.3558701171875,-1.0453643798828125,-0.0933380126953125,-0.021392822265625
1751013966063813000,0.365813232421875,-1.0524139404296875,-0.094696044921875,-0.0201416015625
1751013966073757400,0.37575732421875,-1.0552215576171875,-0.097564697265625,-0.0236358642578125
1751013966083701200,0.385701171875,-1.0422515869140625,-0.09967041015625,-0.0279388427734375
1751013966093645300,0.395645263671875,-1.028839111328125,-0.0986328125,-0.0251312255859375
1751013966103588400,0.40558837890625,-1.0245208740234375,-0.0966339111328125,-0.01519775390625
1751013966113532400,0.415532470703125,-1.0176849365234375,-0.0949554443359375,-0.006805419921875
1751013966123476200,0.425476318359375,-1.01629638671875,-0.0925140380859375,-0.0050048828125
1751013966133419300,0.435419189453125,-1.0131683349609375,-0.08984375,0.0011444091796875
1751013966143363300,0.44536328125,-1.0127105712890625,-0.0884857177734375,0.0098419189453125
1751013966153307100,0.45530712890625,-1.0081939697265625,-0.0889434814453125,0.011505126953125
1751013966163250200,0.465250244140625,-1.004638671875,-0.0890960693359375,0.011627197265625
1751013966173194500,0.475194580078125,-1.0019073486328125,-0.0858917236328125,0.01025390625
1751013966183138300,0.48513818359375,-1.000762939453125,-0.0841827392578125,0.0081787109375
1751013966193082400,0.495082275390625,-0.9982757568359375,-0.09161376953125,-0.0001678466796875
1751013966203025400,0.505025390625,-0.9949493408203125,-0.098724365234375,-0.0032958984375
1751013966212969200,0.51496923828125,-0.9980316162109375,-0.096923828125,0.001861572265625
1751013966222913300,0.524913330078125,-1.0048675537109375,-0.099151611328125,0.00836181640625
1751013966232856300,0.534856201171875,-1.0067596435546875,-0.1041412353515625,0.00958251953125
1751013966242800000,0.544800048828125,-1.0040283203125,-0.104644775390625,0.013702392578125
1751013966252744200,0.554744140625,-0.9946441650390625,-0.1029205322265625,0.013946533203125
1751013966262688500,0.5646884765625,-0.990020751953125,-0.1025848388671875,0.012115478515625
1751013966272631300,0.57463134765625,-0.994903564453125,-0.1028289794921875,0.015838623046875
1751013966282575400,0.584575439453125,-1.003692626953125,-0.1029815673828125,0.018280029296875
1751013966292519400,0.59451953125,-1.0122222900390625,-0.10308837890625,0.0171966552734375
1751013966302462500,0.60446240234375,-1.0107879638671875,-0.1058197021484375,0.0136260986328125
1751013966312406300,0.61440625,-1.01251220703125,-0.1060638427734375,0.00921630859375
1751013966322350300,0.624350341796875,-1.0186309814453125,-0.10552978515625,0.0096893310546875
1751013966332294100,0.634294189453125,-1.0216217041015625,-0.108734130859375,0.0086669921875
1751013966342237200,0.6442373046875,-1.021759033203125,-0.111602783203125,0.004974365234375
1751013966352181200,0.65418115234375,-1.0205230712890625,-0.11370849609375,0.0035400390625
1751013966362125300,0.664125244140625,-1.027587890625,-0.108978271484375,0.006866455078125
1751013966372068400,0.674068359375,-1.0345916748046875,-0.0966033935546875,0.013214111328125
1751013966382012400,0.684012451171875,-1.02734375,-0.08465576171875,0.01617431640625
1751013966391956200,0.693956298828125,-1.027008056640625,-0.07080078125,0.0201416015625
1751013966401900300,0.703900390625,-1.030853271484375,-0.0540924072265625,0.028717041015625
1751013966411843300,0.71384326171875,-1.0235748291015625,-0.04534912109375,0.0369110107421875
1751013966421787100,0.723787109375,-1.0167388916015625,-0.0487518310546875,0.0369110107421875
1751013966431731200,0.733731201171875,-1.01885986328125,-0.0546875,0.0340423583984375
1751013966441674200,0.74367431640625,-1.0227508544921875,-0.06378173828125,0.0284423828125
1751013966451618600,0.75361865234375,-1.0303497314453125,-0.0744171142578125,0.01971435546875
1751013966461562400,0.763562255859375,-1.0363006591796875,-0.081787109375,0.016143798828125
1751013966471505400,0.77350537109375,-1.03662109375,-0.0856170654296875,0.0139007568359375
1751013966481449500,0.783449462890625,-1.031005859375,-0.0818328857421875,0.0145416259765625
1751013966491393300,0.793393310546875,-1.0271453857421875,-0.0783233642578125,0.0135650634765625
1751013966501337300,0.80333740234375,-1.01837158203125,-0.076873779296875,0.0134735107421875
1751013966511280400,0.8132802734375,-1.01702880859375,-0.0754241943359375,0.0146026611328125
1751013966521224200,0.82322412109375,-1.0244140625,-0.072601318359375,0.0143280029296875
1751013966531168300,0.833168212890625,-1.023712158203125,-0.07080078125,0.0131988525390625
1751013966541111300,0.843111328125,-1.0223388671875,-0.0703125,0.009033203125
1751013966551055400,0.853055419921875,-1.026580810546875,-0.0699310302734375,0.0034027099609375
1751013966560999400,0.86299951171875,-1.0290374755859375,-0.0744171142578125,0.0046234130859375
1751013966570943200,0.872943115234375,-1.02410888671875,-0.080535888671875,0.0044403076171875
1751013966580886300,0.88288623046875,-1.02191162109375,-0.0828704833984375,0.00732421875
1751013966590830300,0.892830322265625,-1.0211334228515625,-0.0842132568359375,0.0115814208984375
1751013966600774400,0.9027744140625,-1.024169921875,-0.0887603759765625,0.0099029541015625
1751013966610717200,0.91271728515625,-1.0255889892578125,-0.0916748046875,0.0081329345703125
1751013966620661200,0.9226611328125,-1.0160980224609375,-0.0955352783203125,0.006805419921875
1751013966630605300,0.932605224609375,-1.0058441162109375,-0.0989227294921875,0.0046539306640625
1751013966640549400,0.94254931640625,-1.0000457763671875,-0.0993194580078125,0.006683349609375
1751013966650492400,0.952492431640625,-0.9976043701171875,-0.10137939453125,0.0112152099609375
1751013966660436500,0.9624365234375,-0.9994659423828125,-0.1044158935546875,0.0120391845703125
1751013966670380300,0.97238037109375,-1.0030670166015625,-0.10589599609375,0.011962890625
1751013966680323300,0.9823232421875,-1.004425048828125,-0.104095458984375,0.0110931396484375
1751013966690267400,0.992267333984375,-1.0079345703125,-0.1013336181640625,0.006683349609375
1751013966700211200,1.002211181640625,-1.0101776123046875,-0.0993804931640625,0.000823974609375
1751013966710155300,1.0121552734375,-1.01324462890625,-0.0960845947265625,-0.0019989013671875
1751013966720098300,1.022098388671875,-1.0124359130859375,-0.0978240966796875,-0.0011444091796875
1751013966730042000,1.0320419921875,-1.0054473876953125,-0.0992431640625,-0.0021820068359375
1751013966739986400,1.041986328125,-1.0036773681640625,-0.099761962890625,-0.0006866455078125
1751013966749929500,1.051929443359375,-1.0077056884765625,-0.101776123046875,0.0023040771484375
1751013966759873300,1.061873291015625,-1.002471923828125,-0.1027069091796875,0.0048980712890625
1751013966769817300,1.0718173828125,-0.992218017578125,-0.10552978515625,0.0041961669921875
1751013966779761400,1.081761474609375,-0.99114990234375,-0.1049652099609375,0.0041351318359375
1751013966789704400,1.091704345703125,-0.998016357421875,-0.104644775390625,0.003662109375
1751013966799648300,1.101648193359375,-1.00457763671875,-0.10406494140625,0.00848388671875
1751013966809592300,1.11159228515625,-1.0025482177734375,-0.1060791015625,0.0087890625
1751013966819535400,1.121535400390625,-1.005279541015625,-0.107666015625,0.0040130615234375
1751013966829479200,1.131479248046875,-1.0140838623046875,-0.1045379638671875,0.0027618408203125
1751013966839423500,1.141423583984375,-1.018218994140625,-0.1024017333984375,0.001861572265625
1751013966849367300,1.1513671875,-1.0171661376953125,-0.1002349853515625,0.0000457763671875
1751013966859314200,1.161314208984375,-1.0215911865234375,-0.0974273681640625,-0.0001983642578125
1751013966869258200,1.17125830078125,-1.0231170654296875,-0.094024658203125,-0.0010223388671875
1751013966879202000,1.1812021484375,-1.020965576171875,-0.0920562744140625,-0.0025177001953125
1751013966889145000,1.19114501953125,-1.012725830078125,-0.0924530029296875,-0.003143310546875
1751013966899089200,1.201089111328125,-1.006500244140625,-0.09814453125,-0.0023345947265625
1751013966909033000,1.211032958984375,-1.00335693359375,-0.1038970947265625,-0.0015869140625
1751013966918977000,1.22097705078125,-1.0028533935546875,-0.1044158935546875,0.000762939453125
1751013966928920000,1.230920166015625,-1.001007080078125,-0.1072998046875,0.00091552734375
1751013966938863900,1.24086376953125,-0.996063232421875,-0.1135101318359375,-0.0003204345703125
1751013966948808200,1.25080810546875,-0.9958648681640625,-0.1162261962890625,0.0022430419921875
1751013966958751200,1.260751220703125,-0.9978179931640625,-0.1134185791015625,0.00787353515625
1751013966968695000,1.270695068359375,-0.9940643310546875,-0.112884521484375,0.0094757080078125
1751013966978639000,1.28063916015625,-0.989776611328125,-0.1150360107421875,0.0056304931640625
1751013966988583200,1.290583251953125,-0.9917755126953125,-0.1136474609375,0.0063629150390625
1751013966998526200,1.300526123046875,-1.0009307861328125,-0.1085205078125,0.009979248046875
1751013967008470000,1.310469970703125,-1.0005645751953125,-0.10601806640625,0.0110931396484375
1751013967018414000,1.3204140625,-0.999969482421875,-0.1056365966796875,0.0096435546875
1751013967028357000,1.330357177734375,-1.0071258544921875,-0.102813720703125,0.01190185546875
1751013967038301000,1.340301025390625,-1.0109710693359375,-0.0980987548828125,0.01300048828125
1751013967048245200,1.350245361328125,-1.0105743408203125,-0.0985565185546875,0.009033203125
1751013967058189000,1.36018896484375,-1.0130767822265625,-0.101165771484375,0.001373291015625
1751013967068132000,1.370132080078125,-1.0204010009765625,-0.100006103515625,-0.001922607421875
1751013967078076200,1.380076171875,-1.0239410400390625,-0.098388671875,-0.000885009765625
1751013967088020000,1.39002001953125,-1.0223846435546875,-0.10052490234375,-0.0025177001953125
1751013967097963000,1.399962890625,-1.0211181640625,-0.1040802001953125,-0.002716064453125
1751013967107907000,1.409906982421875,-1.0266876220703125,-0.0996246337890625,-0.001251220703125
1751013967117851100,1.41985107421875,-1.0259246826171875,-0.0956878662109375,-0.0006256103515625
1751013967127795200,1.429795166015625,-1.0177154541015625,-0.0996856689453125,-0.00360107421875
1751013967137738000,1.439738037109375,-1.0167694091796875,-0.1005859375,-0.00238037109375
1751013967147682300,1.449682373046875,-1.01727294921875,-0.09979248046875,0.0037689208984375
1751013967157626000,1.459626220703125,-1.0131072998046875,-0.101165771484375,0.004669189453125
1751013967167569200,1.469569091796875,-1.0131683349609375,-0.1028289794921875,0.003509521484375
1751013967177513200,1.47951318359375,-1.01385498046875,-0.1019439697265625,0.007720947265625
1751013967187457000,1.48945703125,-1.0122222900390625,-0.100555419921875,0.0120697021484375
1751013967197401000,1.499401123046875,-1.0136871337890625,-0.098175048828125,0.011566162109375
1751013967207344000,1.50934423828125,-1.01202392578125,-0.0933685302734375,0.0108795166015625
1751013967217288000,1.519287841796875,-1.003021240234375,-0.0936279296875,0.0087890625
1751013967227232300,1.529232177734375,-0.992279052734375,-0.09649658203125,0.0050048828125
1751013967237175000,1.539175048828125,-0.9871673583984375,-0.099639892578125,0.0091552734375
1751013967247119000,1.549119140625,-0.9888153076171875,-0.1036834716796875,0.0119781494140625
1751013967257063200,1.559063232421875,-0.9890899658203125,-0.1083221435546875,0.01519775390625
1751013967267006200,1.569006103515625,-0.991241455078125,-0.11065673828125,0.0235748291015625
1751013967276950000,1.578949951171875,-0.9918060302734375,-0.11041259765625,0.0281524658203125
1751013967286894000,1.58889404296875,-0.995208740234375,-0.1079254150390625,0.0341339111328125
1751013967296838100,1.598838134765625,-0.9990997314453125,-0.1071624755859375,0.0313568115234375
1751013967306781000,1.608781005859375,-1.00274658203125,-0.1079864501953125,0.025665283203125
1751013967316725000,1.61872509765625,-1.008880615234375,-0.113525390625,0.017242431640625
1751013967326669300,1.62866943359375,-1.0157623291015625,-0.1174468994140625,0.014068603515625
1751013967336613000,1.638613037109375,-1.01953125,-0.1174163818359375,0.01495361328125
1751013967346556200,1.64855615234375,-1.0174713134765625,-0.114471435546875,0.013824462890625
1751013967356500200,1.658500244140625,-1.017822265625,-0.1114501953125,0.015594482421875
1751013967366444000,1.668444091796875,-1.02301025390625,-0.1078643798828125,0.01507568359375
1751013967376387000,1.678386962890625,-1.0256805419921875,-0.1032562255859375,0.0143890380859375
1751013967386331100,1.6883310546875,-1.024566650390625,-0.10003662109375,0.009429931640625
1751013967396275000,1.69827490234375,-1.0233306884765625,-0.0975799560546875,0.00274658203125
1751013967406219000,1.708218994140625,-1.0225677490234375,-0.0958099365234375,-0.0015106201171875
1751013967416162000,1.718162109375,-1.0237274169921875,-0.098724365234375,-0.004638671875
1751013967426106000,1.728106201171875,-1.0254364013671875,-0.1067657470703125,-0.009429931640625
1751013967436050200,1.73805029296875,-1.02667236328125,-0.114776611328125,-0.0136260986328125
1751013967445993200,1.7479931640625,-1.021728515625,-0.1208953857421875,-0.015899658203125
1751013967455937000,1.75793701171875,-1.0208740234375,-0.123687744140625,-0.0115509033203125
1751013967465881000,1.767881103515625,-1.0221099853515625,-0.120391845703125,-0.0032806396484375
1751013967475825200,1.7778251953125,-1.0106353759765625,-0.1167449951171875,-0.0016021728515625
1751013967485768200,1.787768310546875,-1.0045013427734375,-0.112030029296875,-0.0006561279296875
1751013967495712000,1.7977119140625,-1.003570556640625,-0.110382080078125,-0.002777099609375
1751013967505656000,1.807656005859375,-1.0034637451171875,-0.1088714599609375,-0.003692626953125
1751013967515599000,1.81759912109375,-1.0030517578125,-0.1043243408203125,-0.00469970703125
1751013967525543200,1.827543212890625,-1.00457763671875,-0.1021728515625,-0.0063018798828125
1751013967535487200,1.8374873046875,-1.003173828125,-0.10235595703125,-0.0094451904296875
1751013967545431000,1.84743115234375,-1.0040130615234375,-0.1046142578125,-0.0113067626953125
1751013967555374000,1.8573740234375,-1.00677490234375,-0.1070556640625,-0.0104827880859375
1751013967565318100,1.867318115234375,-1.0039215087890625,-0.1121368408203125,-0.0037689208984375
1751013967575262000,1.877261962890625,-0.9987030029296875,-0.1163330078125,0.000823974609375
1751013967585205000,1.887205078125,-0.99688720703125,-0.116302490234375,0.004486083984375
1751013967595149000,1.897149169921875,-0.9993133544921875,-0.1164093017578125,0.0102386474609375
1751013967605093000,1.907093017578125,-1.00750732421875,-0.1212921142578125,0.0074462890625
1751013967615037200,1.917037109375,-1.0211029052734375,-0.12188720703125,0.00506591796875
1751013967624980200,1.926980224609375,-1.033050537109375,-0.11932373046875,0.0036163330078125
1751013967634924300,1.93692431640625,-1.0306549072265625,-0.1169281005859375,-0.008453369140625
1751013967644868000,1.9468681640625,-1.021148681640625,-0.112884521484375,-0.0189208984375
1751013967654811100,1.95681103515625,-1.01678466796875,-0.107513427734375,-0.024444580078125
1751013967664755200,1.966755126953125,-1.0134735107421875,-0.1038970947265625,-0.0272064208984375
1751013967674699000,1.976698974609375,-1.0124969482421875,-0.10443115234375,-0.0265960693359375
1751013967684643000,1.98664306640625,-1.0095062255859375,-0.1094970703125,-0.0277099609375
1751013967694586000,1.996586181640625,-1.0091705322265625,-0.1146087646484375,-0.0263519287109375
1751013967704530000,2.006530029296875,-1.0104217529296875,-0.1182861328125,-0.0233001708984375
1751013967714474200,2.01647412109375,-1.0108642578125,-0.11962890625,-0.0214691162109375
1751013967724418000,2.02641796875,-1.0070953369140625,-0.1224212646484375,-0.0197601318359375
1751013967734361000,2.036361083984375,-0.998992919921875,-0.1259613037109375,-0.0168304443359375
1751013967744305200,2.04630517578125,-0.9912872314453125,-0.1271820068359375,-0.012359619140625
1751013967754249200,2.056249267578125,-0.9888153076171875,-0.1264190673828125,-0.0112457275390625
1751013967764192000,2.06619189453125,-0.9884033203125,-0.126495361328125,-0.011627197265625
1751013967774136000,2.076135986328125,-0.9885711669921875,-0.1280975341796875,-0.0122222900390625
1751013967784080100,2.086080078125,-0.9883575439453125,-0.1290130615234375,-0.01324462890625
1751013967794024000,2.09602392578125,-0.98736572265625,-0.12921142578125,-0.0141143798828125
1751013967803967000,2.105967041015625,-0.98846435546875,-0.1276397705078125,-0.0125579833984375
1751013967813911300,2.115911376953125,-0.9894866943359375,-0.12420654296875,-0.01324462890625
1751013967823855000,2.125855224609375,-0.990875244140625,-0.12274169921875,-0.0157012939453125
1751013967833798100,2.135798095703125,-0.9885406494140625,-0.12176513671875,-0.01629638671875
1751013967843742200,2.1457421875,-0.9951019287109375,-0.1213836669921875,-0.0157928466796875
1751013967853686000,2.15568603515625,-1.0006256103515625,-0.121917724609375,-0.014678955078125
1751013967863626200,2.165626220703125,-1.0007476806640625,-0.1243896484375,-0.014862060546875
1751013967873569300,2.1755693359375,-1.0021820068359375,-0.124969482421875,-0.0135498046875
1751013967883513300,2.185513427734375,-1.01043701171875,-0.1231231689453125,-0.01116943359375
1751013967893457400,2.19545751953125,-1.01318359375,-0.1216888427734375,-0.0135345458984375
1751013967903401500,2.2054013671875,-1.0100555419921875,-0.118621826171875,-0.0132598876953125
1751013967913344300,2.21534423828125,-1.01177978515625,-0.1134033203125,-0.0141754150390625
1751013967923288300,2.225288330078125,-1.0154876708984375,-0.1076507568359375,-0.0130462646484375
1751013967933232400,2.235232421875,-1.0172576904296875,-0.1044158935546875,-0.015106201171875
1751013967943175400,2.245175537109375,-1.0185394287109375,-0.10205078125,-0.016845703125
1751013967953119200,2.255119140625,-1.021514892578125,-0.102386474609375,-0.0191650390625
1751013967963063300,2.265063232421875,-1.01983642578125,-0.1099090576171875,-0.0218963623046875
1751013967973007400,2.27500732421875,-1.0178070068359375,-0.117340087890625,-0.019195556640625
1751013967982950400,2.284950439453125,-1.016754150390625,-0.1232147216796875,-0.0142364501953125
1751013967992894500,2.29489453125,-1.0159149169921875,-0.128082275390625,-0.0134735107421875
1751013968002838300,2.30483837890625,-1.0183563232421875,-0.1334686279296875,-0.017547607421875
1751013968012781300,2.31478125,-1.016326904296875,-0.1377716064453125,-0.02227783203125
1751013968022725400,2.324725341796875,-1.0091094970703125,-0.1365203857421875,-0.0231170654296875
1751013968032669200,2.334669189453125,-1.007537841796875,-0.1334381103515625,-0.0229339599609375
1751013968042613200,2.34461328125,-1.0025634765625,-0.1308746337890625,-0.0201568603515625
1751013968052556300,2.354556396484375,-0.99810791015625,-0.125335693359375,-0.020172119140625
1751013968062500400,2.364500244140625,-0.9955291748046875,-0.12237548828125,-0.021820068359375
1751013968072444400,2.3744443359375,-0.997802734375,-0.122283935546875,-0.018798828125
1751013968082388500,2.384388427734375,-1.000030517578125,-0.120330810546875,-0.01434326171875
1751013968092331500,2.39433154296875,-1.0025634765625,-0.1203460693359375,-0.014434814453125
1751013968102275300,2.404275390625,-1.008087158203125,-0.119720458984375,-0.01434326171875
1751013968112219400,2.414219482421875,-1.01470947265625,-0.12152099609375,-0.01531982421875
1751013968122162400,2.424162353515625,-1.0161285400390625,-0.123046875,-0.013092041015625
1751013968132106200,2.434106201171875,-1.0144500732421875,-0.1209716796875,-0.0138397216796875
1751013968142050300,2.44405029296875,-1.0140533447265625,-0.1164398193359375,-0.01300048828125
1751013968151994400,2.453994384765625,-1.0139312744140625,-0.1130523681640625,-0.011138916015625
1751013968161937400,2.4639375,-1.0128021240234375,-0.1123046875,-0.014923095703125
1751013968171881500,2.473881591796875,-1.008941650390625,-0.109588623046875,-0.019073486328125
1751013968181825300,2.4838251953125,-1.0093536376953125,-0.10498046875,-0.0218505859375
1751013968191769300,2.493769287109375,-1.0088653564453125,-0.102691650390625,-0.0216522216796875
1751013968201712400,2.50371240234375,-1.009246826171875,-0.10284423828125,-0.019256591796875
1751013968211656400,2.513656494140625,-1.0078582763671875,-0.1064910888671875,-0.0222930908203125
1751013968221600300,2.523600341796875,-1.008941650390625,-0.1100616455078125,-0.022979736328125
1751013968231543300,2.533543212890625,-1.0107269287109375,-0.1115264892578125,-0.0214996337890625
1751013968241487400,2.5434873046875,-1.01202392578125,-0.1163177490234375,-0.02294921875
1751013968251431400,2.553431396484375,-1.009796142578125,-0.12139892578125,-0.025543212890625
1751013968261375500,2.56337548828125,-1.006256103515625,-0.1255645751953125,-0.0247344970703125
1751013968271318500,2.573318603515625,-0.9998321533203125,-0.1265106201171875,-0.0224151611328125
1751013968281262300,2.583262451171875,-0.9968414306640625,-0.122589111328125,-0.019439697265625
1751013968291206400,2.593206298828125,-0.9997406005859375,-0.11883544921875,-0.0140380859375
1751013968301150200,2.603150146484375,-0.9962158203125,-0.1168365478515625,-0.0103302001953125
1751013968311093200,2.61309326171875,-0.9940185546875,-0.11724853515625,-0.0109405517578125
1751013968321037300,2.623037353515625,-0.9992218017578125,-0.1142730712890625,-0.0084381103515625
1751013968330981400,2.6329814453125,-1.004241943359375,-0.1114501953125,-0.007568359375
1751013968340925400,2.642925537109375,-1.0071868896484375,-0.11114501953125,-0.00848388671875
1751013968350868500,2.652868408203125,-1.012451171875,-0.111114501953125,-0.0105743408203125
1751013968360812500,2.6628125,-1.0167236328125,-0.1114044189453125,-0.008697509765625
1751013968370756400,2.67275634765625,-1.01751708984375,-0.111328125,-0.008880615234375
1751013968380699400,2.682699462890625,-1.020965576171875,-0.1129302978515625,-0.0074462890625
1751013968390643500,2.6926435546875,-1.02349853515625,-0.1145782470703125,-0.00909423828125
1751013968400587300,2.702587158203125,-1.02386474609375,-0.1188201904296875,-0.01483154296875
1751013968410531300,2.71253125,-1.0154266357421875,-0.120849609375,-0.0156097412109375
1751013968420474400,2.722474365234375,-1.009765625,-0.12298583984375,-0.0152587890625
1751013968430418200,2.732418212890625,-1.0093536376953125,-0.12274169921875,-0.0137176513671875
1751013968440362500,2.742362548828125,-1.0076141357421875,-0.12091064453125,-0.01025390625
1751013968450306300,2.752306396484375,-1.0021514892578125,-0.1217193603515625,-0.0090484619140625
1751013968460249300,2.762249267578125,-0.9998626708984375,-0.1207275390625,-0.0055999755859375
1751013968470193400,2.772193359375,-1.000030517578125,-0.118194580078125,-0.00103759765625
1751013968480137500,2.782137451171875,-0.998382568359375,-0.117462158203125,0.0009613037109375
1751013968490080300,2.792080322265625,-0.99847412109375,-0.1170806884765625,-0.0023956298828125
1751013968500024300,2.8020244140625,-1.0048065185546875,-0.1163482666015625,-0.005157470703125
1751013968509968400,2.811968505859375,-1.0095977783203125,-0.115203857421875,-0.00872802734375
1751013968519912200,2.821912109375,-1.010345458984375,-0.1151275634765625,-0.0145263671875
1751013968529855200,2.831855224609375,-1.0092620849609375,-0.1150360107421875,-0.015777587890625
1751013968539799600,2.841799560546875,-1.0087432861328125,-0.114532470703125,-0.0157318115234375
1751013968549743400,2.851743408203125,-1.0073089599609375,-0.116058349609375,-0.0140838623046875
1751013968559687400,2.8616875,-1.006317138671875,-0.11669921875,-0.0098114013671875
1751013968569630500,2.87163037109375,-1.0063629150390625,-0.1143341064453125,-0.0047760009765625
1751013968579574300,2.88157421875,-1.0064697265625,-0.1121673583984375,-0.0055999755859375
1751013968589518300,2.891518310546875,-1.007049560546875,-0.1066741943359375,-0.005035400390625
1751013968599462100,2.901462158203125,-1.0068359375,-0.1032257080078125,-0.00860595703125
1751013968609405200,2.9114052734375,-1.005401611328125,-0.106842041015625,-0.0153656005859375
1751013968619349200,2.921349365234375,-1.0038604736328125,-0.1124725341796875,-0.0208740234375
1751013968629293600,2.93129345703125,-1.00531005859375,-0.116943359375,-0.0251617431640625
1751013968639236400,2.941236328125,-1.0109405517578125,-0.125244140625,-0.0288848876953125
1751013968649180400,2.951180419921875,-1.010772705078125,-0.13134765625,-0.029998779296875
1751013968659124500,2.96112451171875,-1.0086212158203125,-0.133697509765625,-0.027862548828125
1751013968669068300,2.971068359375,-1.0077056884765625,-0.132598876953125,-0.02490234375
1751013968679011300,2.98101123046875,-1.0037689208984375,-0.1318359375,-0.020904541015625
1751013968688955400,2.990955322265625,-1.002349853515625,-0.1316375732421875,-0.01947021484375
1751013968698899200,3.000899169921875,-1.0014495849609375,-0.1290130615234375,-0.0183868408203125
1751013968708843500,3.010843505859375,-1.003021240234375,-0.125885009765625,-0.0144195556640625
1751013968718786300,3.020786376953125,-1.006378173828125,-0.1216583251953125,-0.0124664306640625
1751013968728730400,3.03073046875,-1.0066680908203125,-0.1174774169921875,-0.015380859375
1751013968738674400,3.04067431640625,-1.0090484619140625,-0.11328125,-0.016326904296875
1751013968748618200,3.0506181640625,-1.013641357421875,-0.1087188720703125,-0.0159912109375
1751013968758561300,3.060561279296875,-1.02117919921875,-0.1067962646484375,-0.0174560546875
1751013968768505300,3.07050537109375,-1.029541015625,-0.1121368408203125,-0.0218048095703125
1751013968778449400,3.080449462890625,-1.0369873046875,-0.1177825927734375,-0.0234222412109375
1751013968788392200,3.09039208984375,-1.0428009033203125,-0.118377685546875,-0.021026611328125
1751013968798336300,3.100336181640625,-1.0389404296875,-0.117401123046875,-0.024078369140625
1751013968808280600,3.110280517578125,-1.0385284423828125,-0.1113739013671875,-0.022491455078125
1751013968818224400,3.120224365234375,-1.0304412841796875,-0.097808837890625,-0.0131378173828125
1751013968828167400,3.13016748046875,-1.0160980224609375,-0.0929412841796875,-0.0076446533203125
1751013968838111500,3.140111572265625,-1.016143798828125,-0.0862884521484375,-0.0003814697265625
1751013968848055300,3.15005517578125,-1.0116424560546875,-0.0801544189453125,-0.013153076171875
1751013968857999400,3.159999267578125,-1.0047760009765625,-0.0813751220703125,-0.018798828125
1751013968867942400,3.1699423828125,-1.0013885498046875,-0.081085205078125,-0.0228424072265625
1751013968877886200,3.17988623046875,-1.001495361328125,-0.0861968994140625,-0.0307464599609375
1751013968887830300,3.189830322265625,-1.000396728515625,-0.101043701171875,-0.0329742431640625
1751013968897774300,3.1997744140625,-1.0050201416015625,-0.115386962890625,-0.0353240966796875
1751013968907717400,3.20971728515625,-1.0061492919921875,-0.128753662109375,-0.0365142822265625
1751013968917661400,3.219661376953125,-0.9997406005859375,-0.1360626220703125,-0.0355682373046875
1751013968927605500,3.22960546875,-0.9957275390625,-0.1379241943359375,-0.0270233154296875
1751013968937549300,3.23954931640625,-0.9961395263671875,-0.1347503662109375,-0.0171661376953125
1751013968947492400,3.249492431640625,-0.9933929443359375,-0.1295166015625,-0.0140228271484375
1751013968957436400,3.2594365234375,-0.9865875244140625,-0.1223907470703125,-0.015869140625
1751013968967380200,3.269380126953125,-0.9845733642578125,-0.1153717041015625,-0.0164642333984375
1751013968977323300,3.2793232421875,-0.988128662109375,-0.11029052734375,-0.0160064697265625
1751013968987267300,3.289267333984375,-0.991790771484375,-0.105712890625,-0.0148468017578125
1751013968997211400,3.29921142578125,-0.9990997314453125,-0.105499267578125,-0.0170745849609375
1751013969007155500,3.309155517578125,-1.012420654296875,-0.105743408203125,-0.021697998046875
1751013969017098500,3.319098388671875,-1.0216827392578125,-0.109588623046875,-0.0249176025390625
1751013969027042300,3.329042236328125,-1.023712158203125,-0.1140289306640625,-0.028839111328125
1751013969036986400,3.338986328125,-1.0223846435546875,-0.114166259765625,-0.0274810791015625
1751013969046930400,3.348930419921875,-1.0223846435546875,-0.1134490966796875,-0.024444580078125
1751013969056873200,3.358873291015625,-1.017059326171875,-0.1137237548828125,-0.0219879150390625
1751013969066817300,3.3688173828125,-1.0091705322265625,-0.1148681640625,-0.0172271728515625
1751013969076761300,3.37876123046875,-1.001678466796875,-0.1146087646484375,-0.012298583984375
1751013969086705400,3.388705322265625,-1.0001983642578125,-0.111358642578125,-0.0083160400390625
1751013969096648400,3.3986484375,-1.0012359619140625,-0.10650634765625,-0.003814697265625
1751013969106592500,3.408592529296875,-1.0047760009765625,-0.105438232421875,-0.00579833984375
1751013969116536300,3.418536376953125,-1.0049591064453125,-0.1087799072265625,-0.010345458984375
1751013969126480400,3.42848046875,-1.0002899169921875,-0.11456298828125,-0.009918212890625
1751013969136423400,3.43842333984375,-0.9987030029296875,-0.1153717041015625,-0.0118865966796875
1751013969146367200,3.4483671875,-1.00054931640625,-0.1077728271484375,-0.015472412109375
1751013969156311300,3.458311279296875,-1.0019378662109375,-0.1076507568359375,-0.0141754150390625
1751013969166254300,3.46825439453125,-1.0044708251953125,-0.10772705078125,-0.012969970703125
1751013969176198100,3.4781982421875,-1.00616455078125,-0.0996856689453125,-0.0144500732421875
1751013969186142500,3.488142578125,-1.0066070556640625,-0.0926666259765625,-0.018310546875
1751013969196086500,3.49808642578125,-1.0096893310546875,-0.089630126953125,-0.0246429443359375
1751013969206029300,3.508029296875,-1.0151824951171875,-0.089691162109375,-0.0298004150390625
1751013969215973400,3.517973388671875,-1.0184326171875,-0.0912933349609375,-0.03021240234375
1751013969225917400,3.52791748046875,-1.0170135498046875,-0.094512939453125,-0.0273284912109375
1751013969235861200,3.537861328125,-1.0141448974609375,-0.101776123046875,-0.032684326171875
1751013969245804300,3.54780419921875,-1.005859375,-0.10821533203125,-0.0301666259765625
1751013969255748400,3.557748291015625,-0.9989166259765625,-0.1096343994140625,-0.02630615234375
1751013969265692400,3.5676923828125,-0.9954681396484375,-0.1098480224609375,-0.0206298828125
1751013969275636500,3.577636474609375,-0.99298095703125,-0.1124420166015625,-0.0181884765625
1751013969285579500,3.58757958984375,-0.9933319091796875,-0.1139068603515625,-0.0141754150390625
1751013969295523300,3.5975234375,-0.9985809326171875,-0.112823486328125,-0.012298583984375
1751013969305467400,3.60746728515625,-1.0070037841796875,-0.1106109619140625,-0.0127105712890625
1751013969315411500,3.617411376953125,-1.00750732421875,-0.108734130859375,-0.0192718505859375
1751013969325354200,3.627354248046875,-1.012939453125,-0.106781005859375,-0.0263519287109375
1751013969335298300,3.63729833984375,-1.0175933837890625,-0.1045989990234375,-0.0316009521484375
1751013969345242400,3.647242431640625,-1.0148162841796875,-0.1031951904296875,-0.0343017578125
1751013969355185200,3.65718505859375,-1.0137786865234375,-0.101409912109375,-0.0320281982421875
1751013969365129500,3.66712939453125,-1.0144195556640625,-0.101409912109375,-0.029815673828125
1751013969375073500,3.677073486328125,-1.0155029296875,-0.1059112548828125,-0.032440185546875
1751013969385017300,3.687017333984375,-1.011962890625,-0.1115570068359375,-0.0333099365234375
1751013969394960400,3.69696044921875,-1.0069580078125,-0.1148223876953125,-0.0361785888671875
1751013969404904400,3.706904541015625,-1.0025787353515625,-0.1150970458984375,-0.0338287353515625
1751013969414848300,3.71684814453125,-1.0015716552734375,-0.1152191162109375,-0.0330047607421875
1751013969424792300,3.726792236328125,-1.0021514892578125,-0.116058349609375,-0.031890869140625
1751013969434735400,3.7367353515625,-1.0053863525390625,-0.11480712890625,-0.029022216796875
1751013969444679200,3.74667919921875,-1.010284423828125,-0.1120147705078125,-0.0292510986328125
1751013969454623500,3.75662353515625,-1.010528564453125,-0.110015869140625,-0.0274810791015625
1751013969464567300,3.7665673828125,-1.0104827880859375,-0.1077117919921875,-0.0287628173828125
1751013969474510300,3.77651025390625,-1.0126953125,-0.10711669921875,-0.0307464599609375
1751013969484454400,3.786454345703125,-1.0132904052734375,-0.1046142578125,-0.0325927734375
1751013969494398500,3.7963984375,-1.016571044921875,-0.10211181640625,-0.0341949462890625
1751013969504342300,3.80634228515625,-1.017059326171875,-0.101165771484375,-0.033782958984375
1751013969514285300,3.816285400390625,-1.014434814453125,-0.1037750244140625,-0.0330657958984375
1751013969524229400,3.8262294921875,-1.011474609375,-0.105133056640625,-0.027801513671875
1751013969534173200,3.836173095703125,-1.0072174072265625,-0.109222412109375,-0.0233917236328125
1751013969544117500,3.846117431640625,-1.0010528564453125,-0.111724853515625,-0.0174713134765625
1751013969554060500,3.856060546875,-0.9999542236328125,-0.113037109375,-0.0143890380859375
1751013969564004400,3.86600439453125,-1.0015869140625,-0.1153717041015625,-0.0162506103515625
1751013969573948400,3.875948486328125,-1.0025787353515625,-0.11663818359375,-0.01226806640625
1751013969583891500,3.885891357421875,-1.0044097900390625,-0.11260986328125,-0.012176513671875
1751013969593835300,3.895835205078125,-1.0119781494140625,-0.1079559326171875,-0.0141143798828125
1751013969603779300,3.905779296875,-1.015045166015625,-0.1068878173828125,-0.0217437744140625
1751013969613723400,3.915723388671875,-1.0173492431640625,-0.105316162109375,-0.0279998779296875
1751013969623666200,3.925666259765625,-1.018402099609375,-0.098602294921875,-0.0260467529296875
1751013969633610200,3.9356103515625,-1.0186004638671875,-0.0974273681640625,-0.020782470703125
1751013969643554600,3.945554443359375,-1.015533447265625,-0.1014862060546875,-0.0203399658203125
1751013969653498400,3.955498291015625,-1.0091705322265625,-0.1069183349609375,-0.020416259765625
1751013969663441400,3.96544140625,-1.00262451171875,-0.1146392822265625,-0.012847900390625
1751013969673385500,3.975385498046875,-0.9936370849609375,-0.1145782470703125,-0.0118560791015625
1751013969683329300,3.985329345703125,-0.98211669921875,-0.1199951171875,-0.0055694580078125
1751013969693273300,3.9952734375,-0.9819183349609375,-0.1343994140625,-0.005218505859375
1751013969703216400,4.00521630859375,-0.9973297119140625,-0.131378173828125,-0.0076141357421875
1751013969713160200,4.01516015625,-1.00555419921875,-0.1188507080078125,-0.005126953125
1751013969723104300,4.025104248046875,-1.00006103515625,-0.1054534912109375,-0.0059814453125
1751013969733048300,4.03504833984375,-0.9951019287109375,-0.0913848876953125,-0.00726318359375
1751013969742991400,4.044991455078125,-1.0087738037109375,-0.07421875,-0.013397216796875
1751013969752935400,4.054935302734375,-1.0233001708984375,-0.05487060546875,-0.02801513671875
1751013969762879500,4.06487939453125,-1.0261383056640625,-0.0479736328125,-0.0529632568359375
1751013969772823300,4.0748232421875,-1.03125,-0.049224853515625,-0.06512451171875
1751013969782766300,4.084766357421875,-1.0421905517578125,-0.057647705078125,-0.063629150390625
1751013969792710400,4.09471044921875,-1.0460052490234375,-0.0714263916015625,-0.05523681640625
1751013969802654200,4.104654296875,-1.040435791015625,-0.0847625732421875,-0.0499114990234375
1751013969812598500,4.1145986328125,-1.0301361083984375,-0.09722900390625,-0.0454864501953125
1751013969822541600,4.12454150390625,-1.019775390625,-0.10870361328125,-0.04473876953125
1751013969832485400,4.1344853515625,-1.0228424072265625,-0.1195831298828125,-0.037933349609375
1751013969842429400,4.144429443359375,-1.024505615234375,-0.12579345703125,-0.029022216796875
1751013969852372500,4.15437255859375,-1.0106964111328125,-0.1248626708984375,-0.02667236328125
1751013969862316800,4.16431689453125,-1.0007781982421875,-0.1154327392578125,-0.0280303955078125
1751013969872260900,4.1742607421875,-0.9980621337890625,-0.107421875,-0.03045654296875
1751013969882204700,4.18420458984375,-0.999542236328125,-0.1018218994140625,-0.034088134765625
1751013969892147700,4.194147705078125,-1.0026397705078125,-0.09417724609375,-0.0355224609375
1751013969902091800,4.204091796875,-1.0054168701171875,-0.0886383056640625,-0.0365753173828125
1751013969912035600,4.21403564453125,-1.007415771484375,-0.0865325927734375,-0.040924072265625
1751013969921980000,4.22397998046875,-1.0102386474609375,-0.088165283203125,-0.0401458740234375
1751013969931923000,4.2339228515625,-1.0123748779296875,-0.09112548828125,-0.037017822265625
1751013969941866800,4.24386669921875,-1.0135040283203125,-0.09716796875,-0.0337677001953125
1751013969951810800,4.253810791015625,-1.0106964111328125,-0.1013946533203125,-0.0265045166015625
1751013969961755000,4.2637548828125,-1.0095062255859375,-0.105255126953125,-0.0271453857421875
1751013969971698000,4.273697998046875,-1.009613037109375,-0.1081390380859375,-0.025054931640625
1751013969981641700,4.283641845703125,-1.0102996826171875,-0.1065521240234375,-0.023040771484375
1751013969991585800,4.293585693359375,-1.008697509765625,-0.10638427734375,-0.0244140625
1751013970001529900,4.30352978515625,-1.009429931640625,-0.1037750244140625,-0.027130126953125
1751013970011472600,4.31347265625,-1.0054473876953125,-0.1021881103515625,-0.042388916015625
1751013970021417000,4.3234169921875,-1.0058135986328125,-0.101226806640625,-0.04193115234375
1751013970031360800,4.33336083984375,-0.9964599609375,-0.1039886474609375,-0.0366058349609375
1751013970041304800,4.343304931640625,-0.9835205078125,-0.113037109375,-0.0330047607421875
1751013970051247900,4.353247802734375,-0.99151611328125,-0.1186981201171875,-0.0260162353515625
1751013970061191700,4.363191650390625,-0.998809814453125,-0.1196746826171875,-0.025299072265625
1751013970071135700,4.3731357421875,-0.9922943115234375,-0.1147308349609375,-0.02789306640625
1751013970081079800,4.383079833984375,-0.990875244140625,-0.1073455810546875,-0.0324859619140625
1751013970091022800,4.39302294921875,-1.0038604736328125,-0.1010894775390625,-0.03466796875
1751013970100967000,4.402966796875,-1.0111236572265625,-0.09698486328125,-0.0334320068359375
1751013970110911000,4.412910888671875,-1.0128326416015625,-0.0968475341796875,-0.0333251953125
1751013970120854800,4.422854736328125,-1.015716552734375,-0.095703125,-0.0321502685546875
1751013970130797800,4.4327978515625,-1.0240020751953125,-0.0924835205078125,-0.032867431640625
1751013970140742000,4.442741943359375,-1.024749755859375,-0.0914764404296875,-0.0334014892578125
1751013970150685700,4.452685791015625,-1.020233154296875,-0.096282958984375,-0.03350830078125
1751013970160629800,4.462629638671875,-1.0132598876953125,-0.097747802734375,-0.03094482421875
1751013970170572800,4.47257275390625,-1.0088958740234375,-0.09521484375,-0.0244293212890625
1751013970180516600,4.4825166015625,-1.0058135986328125,-0.09619140625,-0.0171661376953125
1751013970190461000,4.4924609375,-1.0028228759765625,-0.100067138671875,-0.0171966552734375
1751013970200405000,4.502405029296875,-1.0023040771484375,-0.1019439697265625,-0.0145416259765625
1751013970210347800,4.51234765625,-1.00482177734375,-0.1045684814453125,-0.0126190185546875
1751013970220291800,4.522291748046875,-1.0113525390625,-0.1036834716796875,-0.0091552734375
1751013970230236000,4.53223583984375,-1.0181121826171875,-0.1026153564453125,-0.0093994140625
1751013970240179000,4.542178955078125,-1.020477294921875,-0.10089111328125,-0.0116729736328125
1751013970250122800,4.552122802734375,-1.0191192626953125,-0.091339111328125,-0.01080322265625
1751013970260066800,4.56206689453125,-1.029083251953125,-0.08319091796875,-0.0106201171875
1751013970270010600,4.5720107421875,-1.0203704833984375,-0.0836029052734375,-0.010955810546875
1751013970279953700,4.58195361328125,-1.0050506591796875,-0.0912628173828125,-0.013519287109375
1751013970289898000,4.59189794921875,-0.9973602294921875,-0.1004791259765625,-0.0161895751953125
1751013970299841800,4.601841796875,-0.9974517822265625,-0.10626220703125,-0.01812744140625
1751013970309785900,4.611785888671875,-0.9969940185546875,-0.109039306640625,-0.027984619140625
1751013970319729000,4.62172900390625,-0.995758056640625,-0.1113128662109375,-0.0290374755859375
1751013970329672700,4.631672607421875,-1.0012054443359375,-0.1169586181640625,-0.0323333740234375
1751013970339616800,4.64161669921875,-1.0081024169921875,-0.12176513671875,-0.0397491455078125
1751013970349560800,4.651560791015625,-1.0109405517578125,-0.1229705810546875,-0.0377960205078125
1751013970359504000,4.66150390625,-1.006988525390625,-0.1233367919921875,-0.035888671875
1751013970369447700,4.67144775390625,-1.006622314453125,-0.1227569580078125,-0.0307159423828125
1751013970379392000,4.68139208984375,-1.0084228515625,-0.12078857421875,-0.0299072265625
1751013970389335800,4.691335693359375,-1.0042572021484375,-0.118621826171875,-0.027618408203125
1751013970399278800,4.70127880859375,-1.0009613037109375,-0.11517333984375,-0.0241241455078125
1751013970409223000,4.711222900390625,-1.00103759765625,-0.1104278564453125,-0.0229644775390625
1751013970419166700,4.721166748046875,-1.0048065185546875,-0.1070404052734375,-0.02154541015625
1751013970429110800,4.73111083984375,-1.0068206787109375,-0.106048583984375,-0.02386474609375
1751013970439053800,4.7410537109375,-1.00445556640625,-0.10443115234375,-0.027252197265625
1751013970448997600,4.75099755859375,-1.0068359375,-0.10443115234375,-0.0289154052734375
1751013970458941700,4.760941650390625,-1.01123046875,-0.1043243408203125,-0.030303955078125
1751013970468886000,4.770885986328125,-1.0118255615234375,-0.1078338623046875,-0.03143310546875
1751013970478828800,4.780828857421875,-1.008544921875,-0.1127777099609375,-0.0329132080078125
1751013970488772900,4.79077294921875,-1.0055389404296875,-0.118133544921875,-0.0338592529296875
1751013970498717000,4.800717041015625,-0.99871826171875,-0.123687744140625,-0.037200927734375
1751013970508660700,4.81066064453125,-1.0023345947265625,-0.121734619140625,-0.037628173828125
1751013970518603800,4.820603759765625,-1.00732421875,-0.115997314453125,-0.0369720458984375
1751013970528547800,4.8305478515625,-1.0034637451171875,-0.113128662109375,-0.0387725830078125
1751013970538491600,4.84049169921875,-1.0044708251953125,-0.11187744140625,-0.04150390625
1751013970548436000,4.85043603515625,-1.011871337890625,-0.1099700927734375,-0.050262451171875
1751013970558378800,4.860378662109375,-1.0127105712890625,-0.108734130859375,-0.057037353515625
1751013970568322800,4.87032275390625,-1.0100555419921875,-0.108612060546875,-0.0622406005859375
1751013970578267000,4.880266845703125,-1.006439208984375,-0.109527587890625,-0.067535400390625
1751013970588211000,4.8902109375,-1.0031280517578125,-0.1130523681640625,-0.0631561279296875
1751013970598153700,4.90015380859375,-1.000396728515625,-0.1182708740234375,-0.054229736328125
1751013970608097800,4.910097900390625,-1.001800537109375,-0.1242218017578125,-0.0480804443359375
1751013970618041900,4.920041748046875,-1.005218505859375,-0.1277008056640625,-0.0409088134765625
1751013970627985700,4.929985595703125,-1.0091552734375,-0.13037109375,-0.0376434326171875
1751013970637928700,4.9399287109375,-1.0148162841796875,-0.13067626953125,-0.0391845703125
1751013970647873000,4.949873046875,-1.0153350830078125,-0.1300048828125,-0.0431365966796875
1751013970657816800,4.95981689453125,-1.0184783935546875,-0.1228790283203125,-0.0414886474609375
1751013970667761000,4.969760986328125,-1.0155792236328125,-0.1153564453125,-0.0424041748046875
1751013970677704000,4.979703857421875,-1.0084991455078125,-0.1110687255859375,-0.0443572998046875
1751013970687647700,4.989647705078125,-1.00433349609375,-0.110748291015625,-0.0443572998046875
1751013970697591800,4.999591796875,-1.0023040771484375,-0.11065673828125,-0.0388641357421875
1751013970707535600,5.00953564453125,-1.00146484375,-0.1081390380859375,-0.0341033935546875
1751013970717478700,5.019478759765625,-0.9987640380859375,-0.1035614013671875,-0.031036376953125
1751013970727422700,5.029422607421875,-0.995391845703125,-0.0995941162109375,-0.0307464599609375
1751013970737367000,5.039366943359375,-0.994293212890625,-0.0970306396484375,-0.03076171875
1751013970747310800,5.049310791015625,-0.9935760498046875,-0.095062255859375,-0.02545166015625
1751013970757254000,5.05925390625,-0.995208740234375,-0.0963592529296875,-0.0208740234375
1751013970767198000,5.069197998046875,-0.9970855712890625,-0.0980682373046875,-0.0170745849609375
1751013970777141800,5.079141845703125,-1.005340576171875,-0.1016845703125,-0.021728515625
1751013970787085800,5.0890859375,-1.012054443359375,-0.1031951904296875,-0.0310211181640625
1751013970797028900,5.09902880859375,-1.0158843994140625,-0.0995941162109375,-0.0359649658203125
1751013970806972700,5.10897265625,-1.016448974609375,-0.0959014892578125,-0.037445068359375
1751013970816916700,5.118916748046875,-1.019317626953125,-0.0901641845703125,-0.037139892578125
1751013970826860800,5.12886083984375,-1.0250701904296875,-0.0847320556640625,-0.0382232666015625
1751013970836803800,5.138803955078125,-1.0245208740234375,-0.0819244384765625,-0.0440521240234375
1751013970846748000,5.148747802734375,-1.0193328857421875,-0.0826873779296875,-0.0494232177734375
1751013970856691700,5.158691650390625,-1.017120361328125,-0.0849456787109375,-0.053497314453125
1751013970866635000,5.168635009765625,-1.016265869140625,-0.091888427734375,-0.0503997802734375
1751013970876578000,5.178578125,-1.0162811279296875,-0.1003570556640625,-0.0474700927734375
1751013970886522400,5.1885224609375,-1.012481689453125,-0.11083984375,-0.04888916015625
1751013970896466200,5.198466064453125,-1.008056640625,-0.114532470703125,-0.04705810546875
1751013970906409200,5.2084091796875,-1.005157470703125,-0.1151885986328125,-0.0455474853515625
1751013970916353300,5.218353271484375,-1.001495361328125,-0.1151580810546875,-0.0423736572265625
1751013970926297000,5.228297119140625,-0.9984283447265625,-0.1147003173828125,-0.042266845703125
1751013970936241200,5.2382412109375,-0.9947509765625,-0.1132354736328125,-0.04254150390625
1751013970946184200,5.24818408203125,-0.994232177734375,-0.1100616455078125,-0.04571533203125
1751013970956128000,5.2581279296875,-0.99945068359375,-0.11004638671875,-0.0429534912109375
1751013970966072000,5.268072021484375,-1.0067901611328125,-0.1095428466796875,-0.0420379638671875
1751013970976016400,5.278016357421875,-1.01025390625,-0.1091156005859375,-0.0438385009765625
1751013970985959200,5.287959228515625,-1.01300048828125,-0.1072540283203125,-0.0441741943359375
1751013970995903200,5.2979033203125,-1.0200042724609375,-0.1070709228515625,-0.0455780029296875
1751013971005847300,5.307847412109375,-1.02239990234375,-0.1076812744140625,-0.0447998046875
1751013971015791000,5.317791015625,-1.0191192626953125,-0.106170654296875,-0.043182373046875
1751013971025734100,5.327734130859375,-1.018310546875,-0.104400634765625,-0.0400848388671875
1751013971035678200,5.33767822265625,-1.0229949951171875,-0.10528564453125,-0.0404510498046875
1751013971045622000,5.3476220703125,-1.02392578125,-0.1093597412109375,-0.0439605712890625
1751013971055566000,5.357566162109375,-1.0155487060546875,-0.10833740234375,-0.0450286865234375
1751013971065509000,5.367509033203125,-1.0107269287109375,-0.1023712158203125,-0.0454559326171875
1751013971075453200,5.377453125,-1.008636474609375,-0.0988006591796875,-0.0419921875
1751013971085397200,5.387397216796875,-1.0046844482421875,-0.100311279296875,-0.0415191650390625
1751013971095341300,5.39734130859375,-0.9978790283203125,-0.1046295166015625,-0.04193115234375
1751013971105284000,5.4072841796875,-0.9987945556640625,-0.107421875,-0.0426177978515625
1751013971115228200,5.417228271484375,-1.0061187744140625,-0.108917236328125,-0.041839599609375
1751013971125172200,5.427172119140625,-1.0076904296875,-0.1103363037109375,-0.0376129150390625
1751013971135116000,5.437115966796875,-1.0054931640625,-0.112396240234375,-0.0399322509765625
1751013971145059000,5.44705908203125,-1.0053558349609375,-0.1124114990234375,-0.0404815673828125
1751013971155003100,5.457003173828125,-1.0057373046875,-0.109466552734375,-0.040069580078125
1751013971164947200,5.466947265625,-1.007904052734375,-0.1091766357421875,-0.0367279052734375
1751013971174891300,5.476891357421875,-1.008087158203125,-0.1076202392578125,-0.0338287353515625
1751013971184834300,5.486834228515625,-1.00738525390625,-0.1040802001953125,-0.0366668701171875
1751013971194778000,5.496778076171875,-1.0057220458984375,-0.1036376953125,-0.037750244140625
1751013971204722200,5.50672216796875,-1.004730224609375,-0.1053619384765625,-0.037628173828125
1751013971214666200,5.516666259765625,-1.0069427490234375,-0.105926513671875,-0.0353240966796875
1751013971224609000,5.526609130859375,-1.0106201171875,-0.10504150390625,-0.0355072021484375
1751013971234553000,5.536552978515625,-1.0065155029296875,-0.1066436767578125,-0.036773681640625
1751013971244497400,5.546497314453125,-1.0042877197265625,-0.1086883544921875,-0.035003662109375
1751013971254441200,5.556441162109375,-1.0054931640625,-0.1080780029296875,-0.0294036865234375
1751013971264384300,5.56638427734375,-1.00439453125,-0.105987548828125,-0.0234222412109375
1751013971274328300,5.576328369140625,-1.002838134765625,-0.1043243408203125,-0.0220184326171875
1751013971284272000,5.586272216796875,-1.0106048583984375,-0.1009979248046875,-0.01898193359375
1751013971294216200,5.59621630859375,-1.0175323486328125,-0.098419189453125,-0.019012451171875
1751013971304159200,5.6061591796875,-1.0164337158203125,-0.093780517578125,-0.020050048828125
1751013971314103000,5.61610302734375,-1.0150909423828125,-0.0904388427734375,-0.0225067138671875
1751013971324047000,5.626047119140625,-1.0115814208984375,-0.089141845703125,-0.0257415771484375
1751013971333991200,5.6359912109375,-1.002532958984375,-0.0880279541015625,-0.025543212890625
1751013971343934200,5.645934326171875,-0.99530029296875,-0.0879364013671875,-0.0272979736328125
1751013971353878300,5.655878173828125,-0.9881591796875,-0.0928497314453125,-0.0273284912109375
1751013971363822300,5.665822265625,-0.983154296875,-0.1013336181640625,-0.02764892578125
1751013971373766100,5.67576611328125,-0.9805450439453125,-0.1090240478515625,-0.026885986328125
1751013971383709200,5.685709228515625,-0.983367919921875,-0.1152191162109375,-0.024871826171875
1751013971393653200,5.6956533203125,-0.9884490966796875,-0.1143951416015625,-0.020477294921875
1751013971403597000,5.70559716796875,-0.9933319091796875,-0.1134033203125,-0.0157928466796875
1751013971413541000,5.715541015625,-1.004058837890625,-0.110321044921875,-0.013702392578125
1751013971423484200,5.725484130859375,-1.00897216796875,-0.1052703857421875,-0.0182952880859375
1751013971433428200,5.73542822265625,-1.0126800537109375,-0.1005401611328125,-0.0229644775390625
1751013971443372300,5.745372314453125,-1.01971435546875,-0.095245361328125,-0.0240020751953125
1751013971453316000,5.755316162109375,-1.0250091552734375,-0.091796875,-0.0251922607421875
1751013971463259100,5.765259033203125,-1.0264434814453125,-0.0897674560546875,-0.0272979736328125
1751013971473203200,5.775203125,-1.028045654296875,-0.0893096923828125,-0.0251922607421875
1751013971483147300,5.785147216796875,-1.02587890625,-0.0931854248046875,-0.0225372314453125
1751013971493091000,5.795091064453125,-1.0189971923828125,-0.0981292724609375,-0.0180511474609375
1751013971503034000,5.8050341796875,-1.018402099609375,-0.1012420654296875,-0.0158538818359375
1751013971512978200,5.814978271484375,-1.0250244140625,-0.1001129150390625,-0.0147247314453125
1751013971522922200,5.824922119140625,-1.021636962890625,-0.10418701171875,-0.019317626953125
1751013971532866300,5.8348662109375,-1.020233154296875,-0.1062774658203125,-0.023956298828125
1751013971542809300,5.844809326171875,-1.0277557373046875,-0.10211181640625,-0.0260009765625
1751013971552753200,5.854753173828125,-1.034423828125,-0.099517822265625,-0.0305633544921875
1751013971562697200,5.864697265625,-1.0313568115234375,-0.1011810302734375,-0.0375518798828125
1751013971572641000,5.87464111328125,-1.0281829833984375,-0.101165771484375,-0.038818359375
1751013971582585000,5.884585205078125,-1.02569580078125,-0.0985107421875,-0.03692626953125
1751013971592528100,5.894528076171875,-1.01861572265625,-0.1004486083984375,-0.0361175537109375
1751013971602472200,5.90447216796875,-1.012908935546875,-0.106414794921875,-0.0355682373046875
1751013971612416300,5.914416259765625,-1.0087432861328125,-0.110687255859375,-0.0316162109375
1751013971622360300,5.9243603515625,-1.0047454833984375,-0.112030029296875,-0.0285186767578125
1751013971632303400,5.934303466796875,-0.9974822998046875,-0.1136474609375,-0.026153564453125
1751013971642247200,5.9442470703125,-0.9930572509765625,-0.1139373779296875,-0.0238800048828125
1751013971652191200,5.954191162109375,-0.992523193359375,-0.1139373779296875,-0.0200958251953125
1751013971662135000,5.964135009765625,-0.9915008544921875,-0.1124420166015625,-0.020782470703125
1751013971672078000,5.974078125,-0.993743896484375,-0.10943603515625,-0.0224151611328125
1751013971682022100,5.984022216796875,-0.9939117431640625,-0.108062744140625,-0.02587890625
1751013971691966200,5.99396630859375,-0.9980010986328125,-0.1091156005859375,-0.0326385498046875
1751013971701910300,6.00391015625,-1.007720947265625,-0.1092987060546875,-0.0340576171875
1751013971711853300,6.013853271484375,-1.0135650634765625,-0.10986328125,-0.0361480712890625
1751013971721797000,6.023797119140625,-1.0168914794921875,-0.11309814453125,-0.039520263671875
1751013971731741200,6.0337412109375,-1.0182037353515625,-0.115875244140625,-0.0447235107421875
1751013971741685200,6.043685302734375,-1.0167083740234375,-0.116607666015625,-0.0430908203125
1751013971751628300,6.053628173828125,-1.01275634765625,-0.115966796875,-0.0400390625
1751013971761572000,6.063572021484375,-1.009002685546875,-0.1151580810546875,-0.0339813232421875
1751013971771516200,6.07351611328125,-1.005645751953125,-0.112335205078125,-0.0292205810546875
1751013971781460200,6.083460205078125,-1.002532958984375,-0.1121978759765625,-0.0236053466796875
1751013971791403300,6.0934033203125,-1.00018310546875,-0.114166259765625,-0.021820068359375
1751013971801347300,6.103347412109375,-1.0098724365234375,-0.1075592041015625,-0.0228729248046875
1751013971811291100,6.113291015625,-1.0087127685546875,-0.1052703857421875,-0.023406982421875
1751013971821235200,6.123235107421875,-1.003753662109375,-0.1076202392578125,-0.0235595703125
1751013971831178200,6.13317822265625,-1.0024261474609375,-0.1071319580078125,-0.026580810546875
1751013971841122000,6.1431220703125,-1.0086212158203125,-0.10577392578125,-0.03070068359375
1751013971851066000,6.153066162109375,-1.0120391845703125,-0.1057586669921875,-0.037506103515625
1751013971861011000,6.163010986328125,-1.012969970703125,-0.105316162109375,-0.03704833984375
1751013971870954000,6.1729541015625,-1.0114593505859375,-0.104034423828125,-0.0357666015625
1751013971880898000,6.18289794921875,-1.0106201171875,-0.1029052734375,-0.0337982177734375
1751013971890841900,6.192841796875,-1.0064697265625,-0.1007843017578125,-0.0281524658203125
1751013971900786200,6.2027861328125,-0.99871826171875,-0.102630615234375,-0.02362060546875
1751013971910729200,6.212729248046875,-0.99005126953125,-0.1068115234375,-0.0184326171875
1751013971920673000,6.222673095703125,-0.9854278564453125,-0.1131439208984375,-0.01239013671875
1751013971930617000,6.2326171875,-0.986572265625,-0.1187591552734375,-0.002655029296875
1751013971940561200,6.24256103515625,-0.99261474609375,-0.1229248046875,0.003448486328125
1751013971950504200,6.252504150390625,-0.998291015625,-0.1219940185546875,0.0059356689453125
1751013971960448000,6.262447998046875,-1.0021820068359375,-0.11865234375,0.0051422119140625
1751013971970392000,6.27239208984375,-1.0045166015625,-0.11572265625,0.0025482177734375
1751013971980335900,6.2823359375,-1.0083770751953125,-0.11090087890625,-0.0042572021484375
1751013971990279000,6.29227880859375,-1.014678955078125,-0.101043701171875,-0.0103302001953125
1751013972000223200,6.30222314453125,-1.0195465087890625,-0.0946197509765625,-0.016815185546875
1751013972010167000,6.3121669921875,-1.0224609375,-0.091461181640625,-0.022216796875
1751013972020111000,6.322111083984375,-1.0252685546875,-0.089447021484375,-0.023193359375
1751013972030054100,6.33205419921875,-1.020599365234375,-0.08807373046875,-0.020904541015625
1751013972039998000,6.341998046875,-1.01397705078125,-0.0896759033203125,-0.0184783935546875
1751013972049942000,6.35194189453125,-1.0091705322265625,-0.0931549072265625,-0.01385498046875
1751013972059886000,6.361885986328125,-1.00775146484375,-0.0985107421875,-0.0119781494140625
1751013972069828900,6.371828857421875,-1.0063934326171875,-0.1057891845703125,-0.01318359375
1751013972079773000,6.38177294921875,-1.0050048828125,-0.109619140625,-0.011993408203125
1751013972089717200,6.39171728515625,-1.0080718994140625,-0.1107177734375,-0.0132293701171875
1751013972099661000,6.4016611328125,-1.0128173828125,-0.1092681884765625,-0.018798828125
1751013972109604000,6.41160400390625,-1.016387939453125,-0.1058502197265625,-0.0293731689453125
1751013972119548200,6.421548095703125,-1.021148681640625,-0.1039886474609375,-0.0384063720703125
1751013972129492000,6.431491943359375,-1.024017333984375,-0.1060943603515625,-0.0478515625
1751013972139436000,6.44143603515625,-1.02093505859375,-0.106842041015625,-0.0527801513671875
1751013972149379000,6.451379150390625,-1.0148162841796875,-0.1074066162109375,-0.05096435546875
1751013972159323000,6.461322998046875,-1.01123046875,-0.1115264892578125,-0.04632568359375
1751013972169267200,6.47126708984375,-1.0027923583984375,-0.1167449951171875,-0.04083251953125
1751013972179211300,6.481211181640625,-0.996246337890625,-0.121337890625,-0.0335540771484375
1751013972189154000,6.491154052734375,-0.99127197265625,-0.1250457763671875,-0.0287628173828125
1751013972199098000,6.50109814453125,-0.9933013916015625,-0.1259002685546875,-0.0238800048828125
1751013972209042200,6.511042236328125,-0.992889404296875,-0.1253662109375,-0.01837158203125
1751013972218986000,6.520986083984375,-0.9870147705078125,-0.1221771240234375,-0.0217437744140625
1751013972228929000,6.530928955078125,-0.9929351806640625,-0.1225128173828125,-0.0206756591796875
1751013972238873000,6.540873046875,-1.00274658203125,-0.1256561279296875,-0.026519775390625
1751013972248817000,6.55081689453125,-1.0111083984375,-0.1208343505859375,-0.02886962890625
1751013972258761200,6.56076123046875,-1.0096435546875,-0.1136627197265625,-0.0331268310546875
1751013972268704300,6.570704345703125,-1.0099334716796875,-0.1043243408203125,-0.0292816162109375
1751013972278648000,6.58064794921875,-1.0093841552734375,-0.0991058349609375,-0.0244598388671875
1751013972288592100,6.590592041015625,-1.010589599609375,-0.095977783203125,-0.024566650390625
1751013972298536000,6.600535888671875,-1.0098114013671875,-0.09326171875,-0.0237579345703125
1751013972308479000,6.61047900390625,-1.0102081298828125,-0.0936126708984375,-0.0226287841796875
1751013972318423000,6.620423095703125,-1.011444091796875,-0.097564697265625,-0.021209716796875
1751013972328367000,6.6303671875,-1.0147857666015625,-0.103424072265625,-0.0204010009765625
1751013972338311000,6.640310791015625,-1.0185699462890625,-0.1090545654296875,-0.020477294921875
1751013972348254000,6.65025390625,-1.019561767578125,-0.1113739013671875,-0.0203857421875
1751013972358198300,6.6601982421875,-1.0169677734375,-0.1109161376953125,-0.0212249755859375
1751013972368142000,6.67014208984375,-1.0130157470703125,-0.1060333251953125,-0.019744873046875
1751013972378086100,6.680086181640625,-1.011077880859375,-0.100921630859375,-0.0203704833984375
1751013972388029200,6.690029296875,-1.01531982421875,-0.100372314453125,-0.0208587646484375
1751013972397973000,6.699972900390625,-1.017486572265625,-0.098907470703125,-0.0164794921875
1751013972407917000,6.7099169921875,-1.013641357421875,-0.1025238037109375,-0.0204010009765625
1751013972417860900,6.71986083984375,-1.0102386474609375,-0.102508544921875,-0.0196380615234375
1751013972427804000,6.729803955078125,-1.00738525390625,-0.1022491455078125,-0.014739990234375
1751013972437748000,6.739748046875,-1.0042724609375,-0.10626220703125,-0.00885009765625
1751013972447692000,6.749692138671875,-1.0003204345703125,-0.112060546875,-0.0020904541015625
1751013972457636000,6.759635986328125,-0.996551513671875,-0.11383056640625,0.004913330078125
1751013972467579100,6.7695791015625,-0.9986572265625,-0.1149444580078125,0.0099945068359375
1751013972477523200,6.779523193359375,-1.0037078857421875,-0.1160430908203125,0.0121307373046875
1751013972487467000,6.789467041015625,-1.009429931640625,-0.112823486328125,0.0091705322265625
1751013972497411000,6.7994111328125,-1.014312744140625,-0.105712890625,0.0036468505859375
1751013972507354000,6.80935400390625,-1.02294921875,-0.0986785888671875,-0.0078582763671875
1751013972517298000,6.8192978515625,-1.02392578125,-0.0933837890625,-0.016937255859375
1751013972527242200,6.8292421875,-1.0233917236328125,-0.0898284912109375,-0.0213470458984375
1751013972537186000,6.83918603515625,-1.0221099853515625,-0.0892333984375,-0.0232391357421875
1751013972547129000,6.849129150390625,-1.0150299072265625,-0.0902557373046875,-0.0233917236328125
1751013972557073200,6.8590732421875,-1.006591796875,-0.0932159423828125,-0.0233612060546875
1751013972567017000,6.869016845703125,-1.0039215087890625,-0.0992279052734375,-0.0229644775390625
1751013972576961000,6.8789609375,-1.00433349609375,-0.105804443359375,-0.02349853515625
1751013972586904000,6.888904052734375,-1.003570556640625,-0.1131591796875,-0.0219268798828125
1751013972596848000,6.89884814453125,-1.0010833740234375,-0.1192779541015625,-0.019927978515625
1751013972606792000,6.9087919921875,-0.9996185302734375,-0.125244140625,-0.0121917724609375
1751013972616736300,6.918736328125,-1.0089569091796875,-0.1285858154296875,-0.014862060546875
1751013972626679300,6.92867919921875,-1.0198974609375,-0.129364013671875,-0.024871826171875
1751013972636623000,6.938623046875,-1.0169830322265625,-0.1220245361328125,-0.0298004150390625
1751013972646567200,6.948567138671875,-1.0138397216796875,-0.1092681884765625,-0.032073974609375
1751013972656511000,6.958510986328125,-1.015045166015625,-0.096710205078125,-0.02752685546875
1751013972666454000,6.9684541015625,-1.01080322265625,-0.089447021484375,-0.02947998046875
1751013972676398000,6.978398193359375,-1.00555419921875,-0.0875244140625,-0.0310516357421875
1751013972686342000,6.988341796875,-1.0058135986328125,-0.0899200439453125,-0.034454345703125
1751013972696286000,6.998285888671875,-1.012603759765625,-0.0948333740234375,-0.0386810302734375
1751013972706229000,7.00822900390625,-1.018707275390625,-0.102783203125,-0.0399017333984375
1751013972716173000,7.018173095703125,-1.018157958984375,-0.1124420166015625,-0.0416717529296875
1751013972726117000,7.0281171875,-1.015625,-0.11895751953125,-0.043060302734375
1751013972736061200,7.038061279296875,-1.012054443359375,-0.1220855712890625,-0.0405731201171875
1751013972746005000,7.0480048828125,-1.0051116943359375,-0.1237030029296875,-0.0360870361328125
1751013972755948000,7.057947998046875,-0.999725341796875,-0.1240081787109375,-0.03240966796875
1751013972765892000,7.06789208984375,-1.0007171630859375,-0.1210784912109375,-0.032989501953125
1751013972775836000,7.0778359375,-1.0005950927734375,-0.1152191162109375,-0.0346527099609375
1751013972785780000,7.087780029296875,-0.9995880126953125,-0.1086578369140625,-0.034698486328125
1751013972795723000,7.097722900390625,-0.99786376953125,-0.1030426025390625,-0.03680419921875
1751013972805667000,7.1076669921875,-0.998199462890625,-0.0981597900390625,-0.037994384765625
1751013972815611100,7.117611083984375,-0.998443603515625,-0.09832763671875,-0.0375518798828125
1751013972825555200,7.12755517578125,-0.9959716796875,-0.099273681640625,-0.033538818359375
1751013972835498000,7.137498046875,-0.9964447021484375,-0.1008453369140625,-0.033447265625
1751013972845442000,7.147442138671875,-0.9971923828125,-0.103118896484375,-0.0315704345703125
1751013972855386000,7.15738623046875,-0.9958953857421875,-0.1082763671875,-0.0291595458984375
1751013972865332500,7.16733251953125,-0.9977264404296875,-0.1135101318359375,-0.0308380126953125
1751013972875276300,7.1772763671875,-1.000152587890625,-0.1114654541015625,-0.0320281982421875
1751013972885220400,7.187220458984375,-1.0092315673828125,-0.1086578369140625,-0.0267333984375
1751013972895164200,7.1971640625,-1.0152435302734375,-0.1140594482421875,-0.024810791015625
1751013972905108500,7.2071083984375,-1.0111541748046875,-0.11273193359375,-0.0228271484375
1751013972915051500,7.217051513671875,-1.007781982421875,-0.107086181640625,-0.0354766845703125
1751013972924995300,7.226995361328125,-1.007171630859375,-0.0983428955078125,-0.0416107177734375
1751013972934939400,7.236939453125,-1.01300048828125,-0.0963592529296875,-0.0377349853515625
1751013972944883500,7.246883544921875,-1.0163726806640625,-0.0978240966796875,-0.0381317138671875
1751013972954826200,7.256826171875,-1.012359619140625,-0.091094970703125,-0.0369110107421875
1751013972964770300,7.266770263671875,-1.007415771484375,-0.085784912109375,-0.0301513671875
1751013972974714400,7.27671435546875,-1.01544189453125,-0.0865325927734375,-0.0258331298828125
1751013972984658200,7.286658203125,-1.0230255126953125,-0.0910797119140625,-0.020294189453125
1751013972994601200,7.296601318359375,-1.0224151611328125,-0.0941925048828125,-0.0181427001953125
1751013973004545500,7.306545654296875,-1.020111083984375,-0.0910186767578125,-0.0167388916015625
1751013973014489300,7.3164892578125,-1.017791748046875,-0.0885162353515625,-0.017730712890625
1751013973024433400,7.326433349609375,-1.0119781494140625,-0.089263916015625,-0.016571044921875
1751013973034376400,7.33637646484375,-1.0117034912109375,-0.089874267578125,-0.0153045654296875
1751013973044320300,7.3463203125,-1.0159149169921875,-0.08941650390625,-0.0150299072265625
1751013973054264300,7.356264404296875,-1.0194244384765625,-0.0904541015625,-0.0142974853515625
1751013973064208400,7.36620849609375,-1.0237579345703125,-0.091094970703125,-0.013214111328125
1751013973074151200,7.376151123046875,-1.023651123046875,-0.0916748046875,-0.0132293701171875
1751013973084095200,7.38609521484375,-1.016021728515625,-0.0923614501953125,-0.01318359375
1751013973094039600,7.39603955078125,-1.013916015625,-0.08880615234375,-0.0125732421875
1751013973103983400,7.4059833984375,-1.0142059326171875,-0.08905029296875,-0.0134429931640625
1751013973113926400,7.415926513671875,-1.01165771484375,-0.0906829833984375,-0.017333984375
1751013973123870500,7.425870361328125,-1.0124053955078125,-0.0902862548828125,-0.0221405029296875
1751013973133814300,7.435814208984375,-1.01641845703125,-0.0878143310546875,-0.0290069580078125
1751013973143758300,7.44575830078125,-1.0149383544921875,-0.086212158203125,-0.0368804931640625
1751013973153701400,7.455701416015625,-1.0131072998046875,-0.0876617431640625,-0.0430908203125
1751013973163645200,7.465645263671875,-1.0125579833984375,-0.0915679931640625,-0.044342041015625
1751013973173589500,7.475589599609375,-1.015228271484375,-0.0974578857421875,-0.0426483154296875
1751013973183533300,7.485533203125,-1.015594482421875,-0.101898193359375,-0.045166015625
1751013973193476400,7.495476318359375,-1.008331298828125,-0.107269287109375,-0.0478057861328125
1751013973203420400,7.50542041015625,-1.004913330078125,-0.10980224609375,-0.0472412109375
1751013973213364500,7.515364501953125,-1.004730224609375,-0.109619140625,-0.04400634765625
1751013973223308300,7.525308349609375,-1.0001068115234375,-0.1136474609375,-0.0419464111328125
1751013973233251300,7.535251220703125,-0.9946746826171875,-0.1161956787109375,-0.0417022705078125
1751013973243195400,7.5451953125,-0.99176025390625,-0.120361328125,-0.043365478515625
1751013973253139200,7.55513916015625,-0.991180419921875,-0.1240081787109375,-0.0442352294921875
1751013973263083500,7.56508349609375,-0.9906768798828125,-0.12493896484375,-0.042510986328125
1751013973273026600,7.575026611328125,-0.9957122802734375,-0.123931884765625,-0.04315185546875
1751013973282970400,7.584970458984375,-1.00390625,-0.12188720703125,-0.0413970947265625
1751013973292914400,7.59491455078125,-1.009124755859375,-0.121246337890625,-0.0457916259765625
1751013973302858200,7.604858154296875,-1.0128021240234375,-0.1192474365234375,-0.053314208984375
1751013973312801300,7.61480126953125,-1.012939453125,-0.118316650390625,-0.05633544921875
1751013973322745300,7.624745361328125,-1.01092529296875,-0.119293212890625,-0.0596160888671875
1751013973332689400,7.634689453125,-1.0081939697265625,-0.1195220947265625,-0.0590362548828125
1751013973342633200,7.64463330078125,-1.0076904296875,-0.1186676025390625,-0.060516357421875
1751013973352576300,7.654576171875,-1.0051727294921875,-0.1228179931640625,-0.06005859375
1751013973362520600,7.6645205078125,-1.0037078857421875,-0.13360595703125,-0.0578155517578125
1751013973372464400,7.67446435546875,-1.0094146728515625,-0.1354217529296875,-0.0570068359375
1751013973382408400,7.684408447265625,-1.0068511962890625,-0.1254119873046875,-0.0536956787109375
1751013973392352300,7.694352294921875,-0.9988861083984375,-0.1090545654296875,-0.0468902587890625
1751013973402295300,7.70429541015625,-0.9894561767578125,-0.0951080322265625,-0.043182373046875
1751013973412239400,7.7142392578125,-0.9852294921875,-0.0838470458984375,-0.0393524169921875
1751013973422183200,7.72418310546875,-0.98712158203125,-0.074493408203125,-0.0354461669921875
1751013973432127200,7.734127197265625,-0.9931182861328125,-0.0679779052734375,-0.0345001220703125
1751013973442070300,7.7440703125,-1.00457763671875,-0.0656890869140625,-0.0297393798828125
1751013973452014300,7.754014404296875,-1.0169219970703125,-0.0689544677734375,-0.0269775390625
1751013973461958400,7.76395849609375,-1.0252532958984375,-0.0780181884765625,-0.0329437255859375
1751013973471902500,7.77390234375,-1.02618408203125,-0.084564208984375,-0.037200927734375
1751013973481845500,7.783845458984375,-1.024932861328125,-0.09014892578125,-0.0367279052734375
1751013973491789300,7.793789306640625,-1.02349853515625,-0.099029541015625,-0.031341552734375
1751013973501733400,7.8037333984375,-1.0243377685546875,-0.106292724609375,-0.028076171875
1751013973511677200,7.81367724609375,-1.01953125,-0.1093597412109375,-0.027496337890625
1751013973521620200,7.8236201171875,-1.015472412109375,-0.1071929931640625,-0.0236663818359375
1751013973531564500,7.833564453125,-1.013824462890625,-0.10113525390625,-0.02203369140625
1751013973541508400,7.84350830078125,-1.0128021240234375,-0.093292236328125,-0.0271759033203125
1751013973551452400,7.853452392578125,-1.011077880859375,-0.0841217041015625,-0.03204345703125
1751013973561395500,7.8633955078125,-1.0082855224609375,-0.0794830322265625,-0.0335845947265625
1751013973571339300,7.87333935546875,-1.006500244140625,-0.0817413330078125,-0.0392913818359375
1751013973581283300,7.883283447265625,-1.00616455078125,-0.0911102294921875,-0.04412841796875
1751013973591227400,7.893227294921875,-1.0057220458984375,-0.09808349609375,-0.041412353515625
1751013973601170200,7.903170166015625,-1.0023040771484375,-0.10400390625,-0.03070068359375
1751013973611114200,7.9131142578125,-0.9984130859375,-0.10931396484375,-0.022186279296875
1751013973621058600,7.92305859375,-0.996673583984375,-0.111541748046875,-0.01190185546875
1751013973631002400,7.93300244140625,-0.9951171875,-0.1100311279296875,-0.00439453125
1751013973640945400,7.9429453125,-0.9981536865234375,-0.1050262451171875,0.0011749267578125
1751013973650889500,7.952889404296875,-1.0020294189453125,-0.1010589599609375,0.00177001953125
1751013973660833300,7.962833251953125,-1.0078277587890625,-0.0976409912109375,-0.002899169921875
1751013973670777300,7.97277734375,-1.019775390625,-0.0926666259765625,-0.0092315673828125
1751013973680720400,7.982720458984375,-1.0340118408203125,-0.088134765625,-0.017425537109375
1751013973690664200,7.992664306640625,-1.0491943359375,-0.09075927734375,-0.027923583984375
1751013973700608300,8.002608154296874,-1.0674285888671875,-0.0955657958984375,-0.0403594970703125
1751013973710552600,8.012552490234375,-1.083251953125,-0.098785400390625,-0.050323486328125
1751013973720495400,8.022495361328126,-1.0851898193359375,-0.0995635986328125,-0.062744140625
1751013973730439400,8.032439453125,-1.08074951171875,-0.0948028564453125,-0.062591552734375
1751013973740383500,8.042383544921876,-1.0666656494140625,-0.091156005859375,-0.054229736328125
1751013973750327300,8.052327392578125,-1.04620361328125,-0.0899505615234375,-0.0490264892578125
1751013973760270300,8.062270263671875,-1.0280914306640625,-0.0882720947265625,-0.0416717529296875
1751013973770214400,8.07221435546875,-1.0143585205078125,-0.0870819091796875,-0.036651611328125
1751013973780158200,8.082158203125,-0.998565673828125,-0.0890045166015625,-0.0293426513671875
1751013973790102300,8.092102294921874,-0.97930908203125,-0.0925445556640625,-0.02142333984375
1751013973800046300,8.10204638671875,-0.9684600830078125,-0.0970306396484375,-0.0115509033203125
1751013973809989400,8.1119892578125,-0.972991943359375,-0.101318359375,-0.0121917724609375
1751013973819933400,8.121933349609375,-0.977508544921875,-0.1071014404296875,-0.02313232421875
1751013973829877500,8.13187744140625,-0.979278564453125,-0.1084136962890625,-0.0352783203125
1751013973839821300,8.1418212890625,-0.981414794921875,-0.1026153564453125,-0.0379486083984375
1751013973849764400,8.151764404296875,-0.9778900146484375,-0.0969696044921875,-0.030303955078125
1751013973859708400,8.16170849609375,-0.974822998046875,-0.0942535400390625,-0.0220794677734375
1751013973869648600,8.171648681640624,-0.970703125,-0.092742919921875,-0.0189056396484375
1751013973879592700,8.1815927734375,-0.9727935791015625,-0.085205078125,-0.0153961181640625
1751013973889535700,8.19153564453125,-0.975341796875,-0.082977294921875,-0.0165557861328125
1751013973899479600,8.2014794921875,-0.974578857421875,-0.0888671875,-0.0159454345703125
1751013973909423600,8.211423583984375,-0.9825286865234375,-0.0966949462890625,-0.015625
1751013973919367700,8.22136767578125,-0.9905548095703125,-0.0970611572265625,-0.0128631591796875
1751013973929310700,8.231310791015625,-0.9969329833984375,-0.09234619140625,-0.015472412109375
1751013973939254800,8.2412548828125,-0.994171142578125,-0.088134765625,-0.0234375
1751013973949198800,8.25119873046875,-0.9964599609375,-0.0785369873046875,-0.0258636474609375
1751013973959142700,8.261142578125,-1.0035247802734375,-0.066650390625,-0.030914306640625
1751013973969085700,8.271085693359375,-1.0106201171875,-0.063262939453125,-0.036224365234375
1751013973979029800,8.28102978515625,-1.0211181640625,-0.0631256103515625,-0.0436859130859375
1751013973988973600,8.2909736328125,-1.0280303955078125,-0.0635223388671875,-0.0537872314453125
1751013973998917600,8.300917724609375,-1.0312652587890625,-0.06298828125,-0.055938720703125
1751013974008860700,8.310860595703126,-1.0341644287109375,-0.068328857421875,-0.055877685546875
1751013974018804700,8.3208046875,-1.0301361083984375,-0.0781707763671875,-0.052398681640625
1751013974028748800,8.330748779296876,-1.0168304443359375,-0.0859375,-0.0517425537109375
1751013974038692600,8.340692626953125,-1.0143280029296875,-0.093505859375,-0.0474700927734375
1751013974048635600,8.3506357421875,-1.0154571533203125,-0.1002349853515625,-0.038726806640625
1751013974058579700,8.360579833984374,-1.00946044921875,-0.10015869140625,-0.0343475341796875
1751013974068523500,8.3705234375,-0.994781494140625,-0.0988922119140625,-0.0365753173828125
1751013974078467600,8.380467529296874,-0.9868621826171875,-0.0987091064453125,-0.0456695556640625
1751013974088410600,8.39041064453125,-0.9863128662109375,-0.0890045166015625,-0.0530242919921875
1751013974098354700,8.400354736328126,-0.9933929443359375,-0.090789794921875,-0.0557708740234375
1751013974108298800,8.410298828125,-0.9991912841796875,-0.086090087890625,-0.0513153076171875
1751013974118242800,8.420242919921876,-1.0005950927734375,-0.0782928466796875,-0.0453338623046875
1751013974128185900,8.430185791015624,-1.0008697509765625,-0.075347900390625,-0.04376220703125
1751013974138129700,8.440129638671875,-1.013641357421875,-0.07391357421875,-0.0405120849609375
1751013974148073700,8.45007373046875,-1.0214691162109375,-0.0694427490234375,-0.040191650390625
1751013974158017500,8.460017578125,-1.0151519775390625,-0.069091796875,-0.0405120849609375
1751013974167961600,8.469961669921876,-1.01513671875,-0.0737762451171875,-0.0380401611328125
1751013974177904600,8.479904541015625,-1.023162841796875,-0.07830810546875,-0.033721923828125
1751013974187848700,8.4898486328125,-1.023895263671875,-0.0814666748046875,-0.032867431640625
1751013974197792800,8.499792724609375,-1.021881103515625,-0.0826416015625,-0.032318115234375
1751013974207736800,8.50973681640625,-1.01922607421875,-0.0823974609375,-0.0296783447265625
1751013974217679600,8.5196796875,-1.0158233642578125,-0.0823822021484375,-0.02825927734375
1751013974227623700,8.529623779296875,-1.00860595703125,-0.0835113525390625,-0.031768798828125
1751013974237567700,8.539567626953126,-1.003631591796875,-0.08154296875,-0.0349884033203125
1751013974247511600,8.549511474609375,-1.006561279296875,-0.0778656005859375,-0.0375823974609375
1751013974257454600,8.55945458984375,-1.010101318359375,-0.0773468017578125,-0.0426177978515625
1751013974267398700,8.569398681640624,-1.0110015869140625,-0.079742431640625,-0.0475616455078125
1751013974277342700,8.5793427734375,-1.011138916015625,-0.078887939453125,-0.0515594482421875
1751013974287286800,8.589286865234374,-1.0173187255859375,-0.0794677734375,-0.057891845703125
1751013974297229800,8.599229736328125,-1.0233001708984375,-0.08062744140625,-0.0617828369140625
1751013974307173600,8.609173583984376,-1.023406982421875,-0.083892822265625,-0.0657501220703125
1751013974317117700,8.61911767578125,-1.0205841064453125,-0.0868988037109375,-0.067291259765625
1751013974327061800,8.629061767578126,-1.0164947509765625,-0.0865631103515625,-0.0647430419921875
1751013974337004500,8.639004638671874,-1.0138092041015625,-0.084686279296875,-0.05975341796875
1751013974346948600,8.648948486328125,-1.012054443359375,-0.0827178955078125,-0.0555877685546875
1751013974356892700,8.658892578125,-1.008209228515625,-0.0861053466796875,-0.059112548828125
1751013974366836700,8.668836669921875,-1.00823974609375,-0.0858612060546875,-0.058380126953125
1751013974376779800,8.67877978515625,-1.0107269287109375,-0.084136962890625,-0.0569610595703125
1751013974386723800,8.688723876953125,-1.0088043212890625,-0.0824127197265625,-0.057525634765625
1751013974396667600,8.698667724609376,-1.009002685546875,-0.084991455078125,-0.0598297119140625
1751013974406611700,8.70861181640625,-1.012115478515625,-0.0859527587890625,-0.0607147216796875
1751013974416554800,8.7185546875,-1.01068115234375,-0.0838165283203125,-0.0596466064453125
1751013974426498600,8.72849853515625,-1.00567626953125,-0.0802154541015625,-0.05902099609375
1751013974436442600,8.738442626953125,-1.006988525390625,-0.07550048828125,-0.0534210205078125
1751013974446386700,8.74838671875,-1.01019287109375,-0.074310302734375,-0.051025390625
1751013974456329500,8.75832958984375,-1.0096282958984375,-0.0753326416015625,-0.04833984375
1751013974466273800,8.768273681640625,-1.00970458984375,-0.0743255615234375,-0.046539306640625
1751013974476217900,8.7782177734375,-1.0102691650390625,-0.0746307373046875,-0.0444183349609375
1751013974486161700,8.78816162109375,-1.0055999755859375,-0.073883056640625,-0.041900634765625
1751013974496105700,8.798105712890624,-1.0006561279296875,-0.0702667236328125,-0.04156494140625
1751013974506048800,8.808048828125,-1.004730224609375,-0.06591796875,-0.0399627685546875
1751013974515992600,8.81799267578125,-1.0072479248046875,-0.0630950927734375,-0.0395050048828125
1751013974525936600,8.8279365234375,-1.0104827880859375,-0.0618133544921875,-0.04022216796875
1751013974535880700,8.837880615234376,-1.0175018310546875,-0.0641326904296875,-0.0451202392578125
1751013974545823500,8.847823486328124,-1.021697998046875,-0.06475830078125,-0.045257568359375
1751013974555767800,8.857767822265625,-1.0175933837890625,-0.064208984375,-0.043487548828125
1751013974565711600,8.867711669921874,-1.0096282958984375,-0.064056396484375,-0.0414581298828125
1751013974575655700,8.87765576171875,-1.008453369140625,-0.062713623046875,-0.03863525390625
1751013974585598700,8.8875986328125,-1.0056915283203125,-0.063812255859375,-0.036529541015625
1751013974595542800,8.897542724609375,-1.0038604736328125,-0.0666351318359375,-0.034912109375
1751013974605486600,8.907486572265626,-1.006988525390625,-0.0710296630859375,-0.0361480712890625
1751013974615430700,8.9174306640625,-1.0111236572265625,-0.0759124755859375,-0.03912353515625
1751013974625373700,8.927373779296875,-1.0146636962890625,-0.077728271484375,-0.04071044921875
1751013974635317800,8.93731787109375,-1.0200958251953125,-0.0772552490234375,-0.0457000732421875
1751013974645261800,8.94726171875,-1.02496337890625,-0.080078125,-0.05133056640625
1751013974655205600,8.95720556640625,-1.0239105224609375,-0.0791473388671875,-0.0543365478515625
1751013974665148700,8.967148681640625,-1.0167694091796875,-0.071533203125,-0.05291748046875
1751013974675092700,8.9770927734375,-1.009490966796875,-0.0674285888671875,-0.0496826171875
1751013974685036500,8.98703662109375,-1.0054168701171875,-0.0690460205078125,-0.045806884765625
1751013974694980600,8.996980712890625,-1.00439453125,-0.073883056640625,-0.0399017333984375
1751013974704923600,9.006923583984374,-1.0011138916015625,-0.0776519775390625,-0.0330657958984375
1751013974714867700,9.01686767578125,-0.9992218017578125,-0.082122802734375,-0.0305633544921875
1751013974724811800,9.026811767578126,-1.0006256103515625,-0.084503173828125,-0.030364990234375
1751013974734755800,9.036755859375,-1.0030975341796875,-0.085052490234375,-0.0280914306640625
1751013974744699000,9.046698974609376,-1.00537109375,-0.081451416015625,-0.0291290283203125
1751013974754642700,9.056642578125,-1.01007080078125,-0.0772247314453125,-0.033477783203125
1751013974764586800,9.066586669921875,-1.016265869140625,-0.0727996826171875,-0.0413818359375
1751013974774530600,9.076530517578124,-1.02191162109375,-0.06500244140625,-0.051239013671875
1751013974784473600,9.0864736328125,-1.027130126953125,-0.059295654296875,-0.0594482421875
1751013974794417700,9.096417724609376,-1.0294342041015625,-0.0579376220703125,-0.0619964599609375
1751013974804361500,9.106361572265625,-1.0298919677734375,-0.058135986328125,-0.06170654296875
1751013974814305800,9.116305908203126,-1.0285797119140625,-0.059478759765625,-0.0618743896484375
1751013974824249900,9.126249755859375,-1.021881103515625,-0.0657196044921875,-0.0577239990234375
1751013974834192600,9.136192626953125,-1.012847900390625,-0.0735015869140625,-0.051544189453125
1751013974844136700,9.14613671875,-1.0038299560546875,-0.0792083740234375,-0.04461669921875
1751013974854080800,9.156080810546875,-0.999298095703125,-0.0833587646484375,-0.0414581298828125
1751013974864024600,9.166024658203124,-1.0011444091796875,-0.086639404296875,-0.038787841796875
1751013974873967600,9.175967529296875,-1.0034027099609375,-0.0879364013671875,-0.03729248046875
1751013974883911700,9.18591162109375,-1.0038909912109375,-0.085693359375,-0.0382843017578125
1751013974893855500,9.19585546875,-1.0079498291015625,-0.07928466796875,-0.041748046875
1751013974903799800,9.2057998046875,-1.0131988525390625,-0.071990966796875,-0.0449981689453125
1751013974913742800,9.215742919921874,-1.0140838623046875,-0.0686492919921875,-0.0440826416015625
1751013974923686700,9.225686767578125,-1.0128326416015625,-0.066192626953125,-0.0426483154296875
1751013974933630700,9.235630615234374,-1.0153045654296875,-0.06231689453125,-0.0397796630859375
1751013974943574800,9.24557470703125,-1.0196533203125,-0.0636138916015625,-0.037841796875
1751013974953517600,9.255517578125,-1.0183563232421875,-0.0674591064453125,-0.036590576171875
1751013974963461600,9.265461669921875,-1.0165863037109375,-0.071533203125,-0.036529541015625
1751013974973405700,9.27540576171875,-1.016265869140625,-0.0743255615234375,-0.03375244140625
1751013974983349800,9.285349853515624,-1.012847900390625,-0.0751953125,-0.03204345703125
1751013974993292800,9.295292724609375,-1.0076141357421875,-0.075286865234375,-0.032745361328125
1751013975003236900,9.30523681640625,-1.003692626953125,-0.0753021240234375,-0.029693603515625
1751013975013180700,9.3151806640625,-1.00274658203125,-0.0728302001953125,-0.02764892578125
1751013975023124700,9.325124755859376,-1.0020751953125,-0.0725555419921875,-0.027801513671875
1751013975033067800,9.33506787109375,-1.001708984375,-0.0749969482421875,-0.0302581787109375
1751013975043011600,9.345011474609375,-1.006744384765625,-0.074981689453125,-0.03564453125
1751013975052955600,9.35495556640625,-1.0109710693359375,-0.07476806640625,-0.0335540771484375
1751013975062899700,9.364899658203125,-1.0103912353515625,-0.0770416259765625,-0.031951904296875
1751013975072842500,9.374842529296876,-1.009552001953125,-0.0767822265625,-0.0281829833984375
1751013975082786800,9.384786865234375,-1.01263427734375,-0.0747833251953125,-0.0309600830078125
1751013975092731000,9.39473095703125,-1.012176513671875,-0.0744171142578125,-0.0370025634765625
1751013975102674700,9.4046748046875,-1.01556396484375,-0.0712432861328125,-0.032379150390625
1751013975112617700,9.41461767578125,-1.0139007568359375,-0.06939697265625,-0.030242919921875
1751013975122561800,9.424561767578124,-1.0116119384765625,-0.0706634521484375,-0.0340118408203125
1751013975132505600,9.434505615234375,-1.0230865478515625,-0.06695556640625,-0.0254058837890625
1751013975142449700,9.44444970703125,-1.020965576171875,-0.0632476806640625,-0.0186920166015625
1751013975152393500,9.4543935546875,-1.0116119384765625,-0.064971923828125,-0.0192108154296875
1751013975162336500,9.46433642578125,-1.0048370361328125,-0.0708770751953125,-0.018463134765625
1751013975172280800,9.47428076171875,-1.0079498291015625,-0.0749969482421875,-0.0218353271484375
1751013975182224600,9.484224609375,-1.0130615234375,-0.07647705078125,-0.0197601318359375
1751013975192168700,9.494168701171875,-1.0157318115234375,-0.0784912109375,-0.015411376953125
1751013975202111700,9.50411181640625,-1.0143280029296875,-0.0809173583984375,-0.01995849609375
1751013975212055800,9.514055908203124,-1.013427734375,-0.08233642578125,-0.024261474609375
1751013975221999600,9.52399951171875,-1.0145111083984375,-0.077239990234375,-0.0239105224609375
1751013975231943700,9.533943603515626,-1.0126190185546875,-0.0716094970703125,-0.0249481201171875
1751013975241886700,9.54388671875,-1.0116729736328125,-0.0700531005859375,-0.0235748291015625
1751013975251830500,9.55383056640625,-1.011260986328125,-0.0686187744140625,-0.022064208984375
1751013975261774800,9.56377490234375,-1.0092010498046875,-0.069305419921875,-0.022796630859375
1751013975271718700,9.57371875,-1.00958251953125,-0.0735626220703125,-0.0233612060546875
1751013975281661700,9.58366162109375,-1.017303466796875,-0.0768890380859375,-0.02423095703125
1751013975291605800,9.593605712890625,-1.01861572265625,-0.079132080078125,-0.026123046875
1751013975301549600,9.603549560546876,-1.01507568359375,-0.080474853515625,-0.029510498046875
1751013975311493600,9.61349365234375,-1.01580810546875,-0.082733154296875,-0.03253173828125
1751013975321436700,9.623436767578125,-1.0150299072265625,-0.081939697265625,-0.03240966796875
1751013975331380500,9.63338037109375,-1.0127716064453125,-0.077972412109375,-0.0312652587890625
1751013975341324800,9.64332470703125,-1.008056640625,-0.0772705078125,-0.0332183837890625
1751013975351268900,9.653268798828124,-1.001678466796875,-0.07733154296875,-0.03436279296875
1751013975361212000,9.6632119140625,-1.00042724609375,-0.0762481689453125,-0.031219482421875
1751013975371155700,9.67315576171875,-1.0032958984375,-0.0761566162109375,-0.02703857421875
1751013975381099800,9.683099853515625,-1.0055084228515625,-0.0767059326171875,-0.026519775390625
1751013975391043600,9.693043701171876,-1.00433349609375,-0.0802154541015625,-0.0284576416015625
1751013975400986600,9.702986572265624,-1.0084228515625,-0.0840911865234375,-0.0263671875
1751013975410930700,9.7129306640625,-1.013671875,-0.083953857421875,-0.024078369140625
1751013975420874500,9.72287451171875,-1.0150604248046875,-0.082763671875,-0.02587890625
1751013975430818800,9.73281884765625,-1.015594482421875,-0.0782012939453125,-0.02581787109375
1751013975440761900,9.742761962890626,-1.0166168212890625,-0.0704803466796875,-0.0260772705078125
1751013975450705700,9.75270556640625,-1.0167083740234375,-0.06573486328125,-0.02777099609375
1751013975460649700,9.762649658203125,-1.0163421630859375,-0.0647430419921875,-0.0282745361328125
1751013975470593800,9.77259375,-1.0178680419921875,-0.0638580322265625,-0.0299530029296875
1751013975480537600,9.78253759765625,-1.0166168212890625,-0.06536865234375,-0.0323028564453125
1751013975490480600,9.792480712890624,-1.011749267578125,-0.0714263916015625,-0.0305633544921875
1751013975500424700,9.8024248046875,-1.0113983154296875,-0.076873779296875,-0.02752685546875
1751013975510368500,9.812368408203126,-1.010162353515625,-0.081024169921875,-0.026214599609375
1751013975520312800,9.822312744140625,-1.00970458984375,-0.0840606689453125,-0.0249481201171875
1751013975530256000,9.832255859375,-1.0068817138671875,-0.0858306884765625,-0.024658203125
1751013975540199700,9.84219970703125,-1.0052032470703125,-0.0838623046875,-0.025054931640625
1751013975550143700,9.852143798828125,-1.0040740966796875,-0.0788116455078125,-0.021881103515625
1751013975560087800,9.862087890625,-0.99853515625,-0.07366943359375,-0.0215606689453125
1751013975570030600,9.872030517578125,-0.9947052001953125,-0.0706787109375,-0.022491455078125
1751013975579974700,9.881974609375,-0.996551513671875,-0.0703125,-0.0233612060546875
1751013975589918700,9.891918701171875,-1.002197265625,-0.07073974609375,-0.0220794677734375
1751013975599862500,9.901862548828126,-1.0073699951171875,-0.0721282958984375,-0.02142333984375
1751013975609805600,9.9118056640625,-1.0101776123046875,-0.0763092041015625,-0.024017333984375
1751013975619750000,9.92175,-1.014892578125,-0.0791778564453125,-0.0278472900390625
1751013975629693700,9.931693603515624,-1.019927978515625,-0.0767822265625,-0.019989013671875
1751013975639637800,9.9416376953125,-1.0186309814453125,-0.0705108642578125,0.0140228271484375
1751013975649580800,9.951580810546876,-1.012969970703125,-0.0743255615234375,0.0028228759765625
1751013975659524600,9.961524658203125,-0.9976348876953125,-0.0815887451171875,-0.024139404296875
1751013975669468700,9.97146875,-1.009521484375,-0.06976318359375,-0.0162811279296875
1751013975679412500,9.98141259765625,-1.0189056396484375,-0.0662384033203125,-0.0131378173828125
1751013975689355500,9.99135546875,-1.016357421875,-0.0629119873046875,-0.0044403076171875
1751013975699299600,10.001299560546874,-1.0196533203125,-0.054718017578125,-0.001617431640625
1751013975709243600,10.01124365234375,-1.0320587158203125,-0.044708251953125,-0.0020904541015625
1751013975719187700,10.021187744140626,-1.0437774658203125,-0.048797607421875,-0.0137786865234375
1751013975729130800,10.031130859375,-1.0452880859375,-0.0577392578125,-0.0258026123046875
1751013975739074800,10.04107470703125,-1.04254150390625,-0.060394287109375,-0.0348052978515625
1751013975749018600,10.0510185546875,-1.0427093505859375,-0.0631866455078125,-0.0390777587890625
1751013975758962700,10.060962646484375,-1.0420989990234375,-0.0645751953125,-0.035308837890625
1751013975768905700,10.07090576171875,-1.0357208251953125,-0.064239501953125,-0.0265655517578125
1751013975778849500,10.080849609375,-1.0273590087890625,-0.06201171875,-0.0142669677734375
1751013975788793900,10.0907939453125,-1.016326904296875,-0.0636138916015625,-0.0073394775390625
1751013975798737700,10.100737548828125,-1.0132904052734375,-0.06610107421875,-0.0021209716796875
1751013975808680700,10.1106806640625,-1.0124664306640625,-0.0701751708984375,0.0012969970703125
1751013975818624800,10.120624755859374,-1.00970458984375,-0.0714569091796875,-0.003326416015625
1751013975828568600,10.130568603515625,-1.0066986083984375,-0.07061767578125,-0.0110015869140625
1751013975838512600,10.1405126953125,-1.005279541015625,-0.0698089599609375,-0.0101776123046875
1751013975848456700,10.150456787109375,-1.0042724609375,-0.0687713623046875,-0.0107269287109375
1751013975858399700,10.160399658203126,-1.0010833740234375,-0.0718231201171875,-0.0172882080078125
1751013975868343300,10.17034326171875,-0.9982452392578125,-0.0769500732421875,-0.022003173828125
1751013975878287600,10.18028759765625,-0.9986724853515625,-0.0798187255859375,-0.021759033203125
1751013975888231400,10.1902314453125,-1.0015869140625,-0.0805511474609375,-0.0191802978515625
1751013975898174500,10.200174560546875,-1.0055389404296875,-0.0833587646484375,-0.0184326171875
1751013975908118500,10.210118408203124,-1.007354736328125,-0.08843994140625,-0.0152587890625
1751013975918062300,10.220062255859375,-1.00823974609375,-0.09564208984375,-0.0145721435546875
1751013975928006400,10.23000634765625,-1.0018463134765625,-0.09735107421875,-0.01678466796875
1751013975937949400,10.239949462890625,-0.9936065673828125,-0.0914459228515625,-0.011474609375
1751013975947893500,10.2498935546875,-0.9917755126953125,-0.092620849609375,-0.006011962890625
1751013975957837300,10.25983740234375,-0.9921112060546875,-0.093963623046875,-0.004150390625
1751013975967781600,10.26978173828125,-0.9876708984375,-0.08734130859375,-0.001556396484375
1751013975977724700,10.279724609375,-0.989501953125,-0.0806884765625,-0.00433349609375
1751013975987668500,10.28966845703125,-0.998260498046875,-0.07769775390625,-0.005615234375
1751013975997612500,10.299612548828126,-1.0053253173828125,-0.07757568359375,-0.0113525390625
1751013976007556400,10.309556396484375,-1.0083160400390625,-0.079071044921875,-0.0157623291015625
1751013976017499400,10.31949951171875,-1.013153076171875,-0.0815277099609375,-0.0221405029296875
1751013976027443500,10.329443359375,-1.0186767578125,-0.083831787109375,-0.027435302734375
1751013976037387300,10.33938720703125,-1.015594482421875,-0.0861053466796875,-0.02484130859375
1751013976047331300,10.349331298828124,-1.0061187744140625,-0.09002685546875,-0.0281982421875
1751013976057274400,10.3592744140625,-1.002899169921875,-0.0886688232421875,-0.0328521728515625
1751013976067218400,10.369218505859376,-1.001953125,-0.0847625732421875,-0.0300140380859375
1751013976077162500,10.37916259765625,-1.0010986328125,-0.0838165283203125,-0.02716064453125
1751013976087106600,10.3891064453125,-1.0040283203125,-0.086639404296875,-0.0281982421875
1751013976097049600,10.399049560546874,-1.0117340087890625,-0.0877685546875,-0.0283966064453125
1751013976106993400,10.408993408203125,-1.018829345703125,-0.0872039794921875,-0.028778076171875
1751013976116937500,10.4189375,-1.025634765625,-0.0860443115234375,-0.0309906005859375
1751013976126881300,10.42888134765625,-1.0307159423828125,-0.0862274169921875,-0.0328369140625
1751013976136824300,10.43882421875,-1.025909423828125,-0.0877685546875,-0.034820556640625
1751013976146768400,10.448768310546875,-1.023223876953125,-0.09002685546875,-0.0328826904296875
1751013976156712400,10.45871240234375,-1.024627685546875,-0.0897064208984375,-0.0320892333984375
1751013976166656500,10.468656494140625,-1.0261993408203125,-0.0877227783203125,-0.0308685302734375
1751013976176599600,10.478599609375,-1.02001953125,-0.088134765625,-0.029541015625
1751013976186543400,10.48854345703125,-1.010467529296875,-0.0890350341796875,-0.02996826171875
1751013976196487400,10.4984873046875,-1.005950927734375,-0.093292236328125,-0.0210723876953125
1751013976206431500,10.508431396484376,-1.005096435546875,-0.096527099609375,-0.0156402587890625
1751013976216375300,10.518375244140625,-1.002288818359375,-0.0933074951171875,-0.0168304443359375
1751013976226318300,10.528318359375,-1.0000762939453125,-0.0897064208984375,-0.024017333984375
1751013976236262400,10.538262451171875,-1.0010528564453125,-0.0891265869140625,-0.023468017578125
1751013976246206500,10.54820654296875,-1.0008697509765625,-0.0866241455078125,-0.0210418701171875
1751013976256150500,10.558150634765624,-1.0012359619140625,-0.084014892578125,-0.0204315185546875
1751013976266093600,10.568093505859375,-1.0037689208984375,-0.0821380615234375,-0.0225830078125
1751013976276037400,10.578037353515626,-1.011016845703125,-0.0824737548828125,-0.023956298828125
1751013976285981400,10.5879814453125,-1.0164947509765625,-0.08197021484375,-0.022735595703125
1751013976295925500,10.597925537109376,-1.020416259765625,-0.084228515625,-0.02392578125
1751013976305868300,10.607868408203124,-1.0216064453125,-0.088653564453125,-0.0252838134765625
1751013976315812400,10.617812255859375,-1.01605224609375,-0.0894317626953125,-0.0220947265625
1751013976325756700,10.627756591796874,-1.0145263671875,-0.0852508544921875,-0.0181121826171875
1751013976335700500,10.637700439453125,-1.012725830078125,-0.0815887451171875,-0.0166168212890625
1751013976345643500,10.6476435546875,-1.009979248046875,-0.0824432373046875,-0.0157318115234375
1751013976355587600,10.657587646484375,-1.0092926025390625,-0.0836944580078125,-0.01702880859375
1751013976365531400,10.667531494140626,-1.008880615234375,-0.0815887451171875,-0.01702880859375
1751013976375475500,10.677475341796875,-1.007293701171875,-0.0789337158203125,-0.0160369873046875
1751013976385418500,10.68741845703125,-1.0079498291015625,-0.0776824951171875,-0.01507568359375
1751013976395362300,10.6973623046875,-1.009735107421875,-0.0775909423828125,-0.0155487060546875
1751013976405306400,10.707306396484375,-1.0086517333984375,-0.075958251953125,-0.0177001953125
1751013976415250400,10.71725048828125,-1.01007080078125,-0.074554443359375,-0.019073486328125
1751013976425193500,10.727193359375,-1.01123046875,-0.0784912109375,-0.01849365234375
1751013976435137500,10.737137451171876,-1.0165252685546875,-0.0861968994140625,-0.016876220703125
1751013976445081600,10.74708154296875,-1.0229339599609375,-0.086761474609375,-0.017913818359375
1751013976455025400,10.757025390625,-1.0203094482421875,-0.083740234375,-0.02239990234375
1751013976464968400,10.766968505859374,-1.01220703125,-0.08154296875,-0.0242462158203125
1751013976474912500,10.77691259765625,-1.0084381103515625,-0.0783538818359375,-0.0191802978515625
1751013976484856300,10.786856201171876,-1.011962890625,-0.0760498046875,-0.019866943359375
1751013976494800400,10.79680029296875,-1.0119171142578125,-0.0813140869140625,-0.0293731689453125
1751013976504743400,10.806743408203126,-1.012176513671875,-0.085540771484375,-0.0319061279296875
1751013976514687500,10.8166875,-1.0085296630859375,-0.08514404296875,-0.0242767333984375
1751013976524631600,10.826631591796875,-1.0043182373046875,-0.0849456787109375,-0.0159149169921875
1751013976534575400,10.836575439453124,-1.0009765625,-0.079193115234375,-0.016845703125
1751013976544519400,10.84651953125,-0.9876556396484375,-0.0739898681640625,-0.01544189453125
1751013976554462500,10.85646240234375,-0.9290008544921875,-0.073455810546875,0.004730224609375
1751013976564406300,10.86640625,-0.987640380859375,-0.075286865234375,0.0179595947265625
1751013976574350300,10.876350341796876,-1.0291900634765625,-0.0767364501953125,0.00335693359375
1751013976584294700,10.886294677734375,-1.0116119384765625,-0.082427978515625,-0.0179290771484375
1751013976594237400,10.896237548828125,-1.0206756591796875,-0.090728759765625,-0.0177459716796875
1751013976604181500,10.906181396484374,-1.025634765625,-0.0937042236328125,-0.015960693359375
1751013976614125600,10.91612548828125,-1.0233306884765625,-0.0907135009765625,-0.0169219970703125
1751013976624069400,10.9260693359375,-1.025848388671875,-0.0815277099609375,-0.021331787109375
1751013976634012400,10.936012451171875,-1.0234375,-0.073272705078125,-0.0219268798828125
1751013976643956500,10.94595654296875,-1.0096435546875,-0.066070556640625,-0.0113525390625
