time,seconds_elapsed,z,y,x
1751013965815221800,0.1172216796875,-0.07464893907308578,-0.1954651027917862,0.11840813606977463
1751013965825164800,0.127164794921875,-0.10699089616537094,-0.261881947517395,0.03151265159249306
1751013965835108900,0.13710888671875,-0.12681786715984344,-0.2802968919277191,-0.006216883193701506
1751013965845053000,0.147052978515625,-0.13681164383888245,-0.24519537389278412,0.0027928571216762066
1751013965854995200,0.1569951171875,-0.13503025472164154,-0.19091908633708954,0.02546088583767414
1751013965864939300,0.166939208984375,-0.13808676600456238,-0.13935762643814087,0.021406754851341248
1751013965874883300,0.17688330078125,-0.12692679464817047,-0.08106023073196411,0.000969923275988549
1751013965884827400,0.186827392578125,-0.09187453240156174,-0.011931760236620903,-0.02160196378827095
1751013965894770400,0.1967705078125,-0.04434802383184433,0.05769605189561844,-0.04590943455696106
1751013965904714200,0.20671435546875,0.006706638727337122,0.13644705712795258,-0.06412279605865479
1751013965914658300,0.216658203125,0.0630255714058876,0.20231422781944275,-0.08179446309804916
1751013965924601300,0.226601318359375,0.11224637925624847,0.23149287700653076,-0.09770552068948746
1751013965934545200,0.236545166015625,0.138787180185318,0.23897689580917358,-0.11364400386810303
1751013965944489200,0.2464892578125,0.13503850996494293,0.2311866134405136,-0.13280890882015228
1751013965954433300,0.256433349609375,0.0987422913312912,0.19157129526138306,-0.16352634131908417
1751013965964376300,0.266376220703125,0.0376533679664135,0.12922829389572144,-0.19910910725593567
1751013965974320400,0.2763203125,-0.028806880116462708,0.06395075470209122,-0.21935684978961945
1751013965984264400,0.286264404296875,-0.08692291378974915,0.008128500543534756,-0.2120605856180191
1751013965994207500,0.29620751953125,-0.12720268964767456,-0.022998526692390442,-0.17017173767089844
1751013966004151300,0.3061513671875,-0.1575949490070343,-0.03111104853451252,-0.11452950537204742
1751013966014095400,0.316095458984375,-0.16316229104995728,-0.037943918257951736,-0.06185910478234291
1751013966024039200,0.3260390625,-0.15582847595214844,-0.04448224604129791,-0.025173796340823174
1751013966033982200,0.335982177734375,-0.14608903229236603,-0.04872652515769005,-0.009796437807381153
1751013966043926300,0.34592626953125,-0.13680045306682587,-0.04897766187787056,-0.010146910324692726
1751013966053870000,0.3558701171875,-0.13456234335899353,-0.04505615681409836,-0.029401032254099846
1751013966063813000,0.365813232421875,-0.1379386931657791,-0.025563683360815048,-0.05608883500099182
1751013966073757400,0.37575732421875,-0.1349029541015625,0.007290669716894627,-0.07115913182497025
1751013966083701200,0.385701171875,-0.12731081247329712,0.04963439702987671,-0.06584612280130386
1751013966093645300,0.395645263671875,-0.11803209781646729,0.07607506215572357,-0.04958432912826538
1751013966103588400,0.40558837890625,-0.12261167168617249,0.08622543513774872,-0.03935326635837555
1751013966113532400,0.415532470703125,-0.125786691904068,0.07703406363725662,-0.03707200288772583
1751013966123476200,0.425476318359375,-0.13328056037425995,0.05620681494474411,-0.03163569048047066
1751013966133419300,0.435419189453125,-0.14290308952331543,0.020067185163497925,-0.031802404671907425
1751013966143363300,0.44536328125,-0.14932556450366974,-0.01703091524541378,-0.02546008676290512
1751013966153307100,0.45530712890625,-0.1495617926120758,-0.03996126353740692,-0.005571865476667881
1751013966163250200,0.465250244140625,-0.1442652940750122,-0.04544258117675781,0.022005965933203697
1751013966173194500,0.475194580078125,-0.13210131227970123,-0.032873526215553284,0.05212418735027313
1751013966183138300,0.48513818359375,-0.11188152432441711,-0.007711449172347784,0.06012165918946266
1751013966193082400,0.495082275390625,-0.07896645367145538,0.020974790677428246,0.05801163613796234
1751013966203025400,0.505025390625,-0.05314124748110771,0.037638988345861435,0.04062758758664131
1751013966212969200,0.51496923828125,-0.048345427960157394,0.032216526567935944,0.0032748891972005367
1751013966222913300,0.524913330078125,-0.05476045235991478,0.010931210592389107,-0.04338768869638443
1751013966232856300,0.534856201171875,-0.058697935193777084,-0.018035460263490677,-0.07898776233196259
1751013966242800000,0.544800048828125,-0.06410282105207443,-0.040763676166534424,-0.09188438206911087
1751013966252744200,0.554744140625,-0.05790404602885246,-0.0568009652197361,-0.07978671044111252
1751013966262688500,0.5646884765625,-0.04807165637612343,-0.061888933181762695,-0.055149272084236145
1751013966272631300,0.57463134765625,-0.03807840868830681,-0.06649486720561981,-0.0414142869412899
1751013966282575400,0.584575439453125,-0.029522737488150597,-0.06483785063028336,-0.044798631221055984
1751013966292519400,0.59451953125,-0.012513394467532635,-0.0518253818154335,-0.05806809663772583
1751013966302462500,0.60446240234375,0.015691611915826797,-0.022460835054516792,-0.08112175017595291
1751013966312406300,0.61440625,0.045276399701833725,0.0001882854849100113,-0.113644540309906
1751013966322350300,0.624350341796875,0.06087853014469147,0.0336863249540329,-0.16163736581802368
1751013966332294100,0.634294189453125,0.0720483586192131,0.07494960725307465,-0.2163221836090088
1751013966342237200,0.6442373046875,0.08006154745817184,0.11594364792108536,-0.2697822153568268
1751013966352181200,0.65418115234375,0.08300486952066422,0.15255625545978546,-0.3274625539779663
1751013966362125300,0.664125244140625,0.07359752058982849,0.16021975874900818,-0.37290966510772705
1751013966372068400,0.674068359375,0.0585985966026783,0.15350061655044556,-0.3797409236431122
1751013966382012400,0.684012451171875,0.04295651987195015,0.1328216940164566,-0.3415251076221466
1751013966391956200,0.693956298828125,0.02105122245848179,0.07782848179340363,-0.26453977823257446
1751013966401900300,0.703900390625,-0.004102333448827267,0.01489426102489233,-0.15039190649986267
1751013966411843300,0.71384326171875,-0.019216038286685944,-0.035953741520643234,-0.02262168936431408
1751013966421787100,0.723787109375,-0.03111610747873783,-0.06934365630149841,0.09397044032812119
1751013966431731200,0.733731201171875,-0.02949397638440132,-0.0777488574385643,0.16374258697032928
1751013966441674200,0.74367431640625,-0.01889246515929699,-0.06342238187789917,0.17130117118358612
1751013966451618600,0.75361865234375,-0.00049082055920735,-0.039921849966049194,0.12771694362163544
1751013966461562400,0.763562255859375,0.023578830063343048,-0.013234046287834644,0.05946172773838043
1751013966471505400,0.77350537109375,0.03802887350320816,0.003922303672879934,-0.008460329845547676
1751013966481449500,0.783449462890625,0.044324588030576706,0.010012686252593994,-0.0647803246974945
1751013966491393300,0.793393310546875,0.0450763963162899,0.010510165244340897,-0.08295080810785294
1751013966501337300,0.80333740234375,0.04379435256123543,0.009130647405982018,-0.06434330344200134
1751013966511280400,0.8132802734375,0.029379727318882942,-0.008770056068897247,-0.015044995583593845
1751013966521224200,0.82322412109375,0.010277139022946358,-0.014657772146165371,0.05560493841767311
1751013966531168300,0.833168212890625,-0.013851899653673172,0.010391121730208397,0.14055125415325165
1751013966541111300,0.843111328125,-0.027165574952960014,0.03934900462627411,0.20909303426742554
1751013966551055400,0.853055419921875,-0.026458505541086197,0.05451437458395958,0.24476447701454163
1751013966560999400,0.86299951171875,-0.0029142971616238356,0.06597528606653214,0.24545450508594513
1751013966570943200,0.872943115234375,0.03550153598189354,0.07138922810554504,0.2186601758003235
1751013966580886300,0.88288623046875,0.0700501874089241,0.07254557311534882,0.1769673228263855
1751013966590830300,0.892830322265625,0.09439761191606522,0.06982382386922836,0.11937619745731354
1751013966600774400,0.9027744140625,0.11170203238725662,0.055090416222810745,0.06355714052915573
1751013966610717200,0.91271728515625,0.11764860153198242,0.03663124889135361,0.023627297952771187
1751013966620661200,0.9226611328125,0.11605150252580643,0.02148664928972721,0.01073893066495657
1751013966630605300,0.932605224609375,0.10412587225437164,0.006155896931886673,0.01720881462097168
1751013966640549400,0.94254931640625,0.08204852789640427,-0.015207981690764427,0.033308155834674835
1751013966650492400,0.952492431640625,0.05487975850701332,-0.0401143953204155,0.040470462292432785
1751013966660436500,0.9624365234375,0.03329350799322128,-0.06659846752882004,0.046852193772792816
1751013966670380300,0.97238037109375,0.015467639081180096,-0.08281871676445007,0.04983013868331909
1751013966680323300,0.9823232421875,0.013736052438616753,-0.0838184654712677,0.05325469747185707
1751013966690267400,0.992267333984375,0.016628777608275414,-0.07101079076528549,0.059483032673597336
1751013966700211200,1.002211181640625,0.030237531289458275,-0.05434739589691162,0.07205475121736526
1751013966710155300,1.0121552734375,0.038178279995918274,-0.021800637245178223,0.07606413960456848
1751013966720098300,1.022098388671875,0.044685181230306625,0.006945523899048567,0.0826573297381401
1751013966730042000,1.0320419921875,0.05627525597810745,0.03335236385464668,0.08166849613189697
1751013966739986400,1.041986328125,0.060869742184877396,0.03428420424461365,0.07192026078701019
1751013966749929500,1.051929443359375,0.0656285434961319,0.02197187766432762,0.06342238187789917
1751013966759873300,1.061873291015625,0.06448151916265488,0.01775076799094677,0.06373023986816406
1751013966769817300,1.0718173828125,0.06421786546707153,0.016318252310156822,0.06910397112369537
1751013966779761400,1.081761474609375,0.06040821596980095,0.00126766471657902,0.07054393738508224
1751013966789704400,1.091704345703125,0.04294906556606293,-0.017181916162371635,0.07050851732492447
1751013966799648300,1.101648193359375,0.022396385669708252,-0.025600435212254524,0.0710131898522377
1751013966809592300,1.11159228515625,0.008184426464140415,-0.017426660284399986,0.05986200273036957
1751013966819535400,1.121535400390625,0.002299106912687421,-0.02008849009871483,0.04483671486377716
1751013966829479200,1.131479248046875,-0.0022085595410317183,-0.024235032498836517,0.0236483383923769
1751013966839423500,1.141423583984375,0.00126739835832268,-0.02038969285786152,0.011811918579041958
1751013966849367300,1.1513671875,0.005536179058253765,-0.012285694479942322,0.008773251436650753
1751013966859314200,1.161314208984375,0.006947654765099287,-0.008359129540622234,0.008321046829223633
1751013966869258200,1.17125830078125,0.005607551895081997,-0.0008420915110036731,0.01507242675870657
1751013966879202000,1.1812021484375,0.004400074947625399,0.0151003897190094,0.03175393491983414
1751013966889145000,1.19114501953125,0.0026908579748123884,0.03635907173156738,0.04078817740082741
1751013966899089200,1.201089111328125,0.01028379611670971,0.04887193441390991,0.04210084676742554
1751013966909033000,1.211032958984375,0.02051512897014618,0.04674194008111954,0.03506157919764519
1751013966918977000,1.22097705078125,0.020898090675473213,0.041609760373830795,0.015385347418487072
1751013966928920000,1.230920166015625,0.021881863474845886,0.0421232171356678,-0.0008167914929799736
1751013966938863900,1.24086376953125,0.019047461450099945,0.0457238107919693,-0.015909990295767784
1751013966948808200,1.25080810546875,0.01203722134232521,0.031924378126859665,-0.027046531438827515
1751013966958751200,1.260751220703125,-0.00586534570902586,0.023876037448644638,-0.03275102376937866
1751013966968695000,1.270695068359375,-0.019583821296691895,0.02113058604300022,-0.028614867478609085
1751013966978639000,1.28063916015625,-0.027033215388655663,0.01955745555460453,-0.019337212666869164
1751013966988583200,1.290583251953125,-0.038113296031951904,0.0008506136364303529,-0.005901564843952656
1751013966998526200,1.300526123046875,-0.05288532003760338,-0.010754376649856567,-0.0003408846096135676
1751013967008470000,1.310469970703125,-0.056774333119392395,-0.01709696091711521,0.007644603960216045
1751013967018414000,1.3204140625,-0.053334593772888184,-0.03359071537852287,0.01654222421348095
1751013967028357000,1.330357177734375,-0.050452522933483124,-0.04745939373970032,0.022130869328975677
1751013967038301000,1.340301025390625,-0.04340100288391113,-0.04712889716029167,0.019822441041469574
1751013967048245200,1.350245361328125,-0.03386582061648369,-0.03675481677055359,0.008705873973667622
1751013967058189000,1.36018896484375,-0.015534218400716782,-0.03344584256410599,-0.002921221312135458
1751013967068132000,1.370132080078125,-0.009381517767906189,-0.035473305732011795,-0.017302824184298515
1751013967078076200,1.380076171875,-0.01395895890891552,-0.03044339269399643,-0.02895468659698963
1751013967088020000,1.39002001953125,-0.014090253040194511,-0.01582343690097332,-0.027234550565481186
1751013967097963000,1.399962890625,-0.01781601458787918,-0.015147261321544647,-0.021445371210575104
1751013967107907000,1.409906982421875,-0.026381272822618484,-0.013027651235461235,-0.011502458713948727
1751013967117851100,1.41985107421875,-0.03447089344263077,-0.0021049624774605036,0.00914502888917923
1751013967127795200,1.429795166015625,-0.02972567081451416,0.018366755917668343,0.025440111756324768
1751013967137738000,1.439738037109375,-0.031501200050115585,0.031619712710380554,0.03549168258905411
1751013967147682300,1.449682373046875,-0.031244205310940742,0.035580363124608994,0.03576039522886276
1751013967157626000,1.459626220703125,-0.026455575600266457,0.038386270403862,0.02563612163066864
1751013967167569200,1.469569091796875,-0.027212446555495262,0.030591731891036034,0.008812932297587395
1751013967177513200,1.47951318359375,-0.030792267993092537,0.022288793697953224,-0.0020277309231460094
1751013967187457000,1.48945703125,-0.03092009946703911,0.015838883817195892,-0.009806823916733265
1751013967197401000,1.499401123046875,-0.03457821533083916,-0.005367601290345192,-0.01059485413134098
1751013967207344000,1.50934423828125,-0.027343207970261574,-0.014975487254559994,0.0037081853952258825
1751013967217288000,1.519287841796875,-0.01136983372271061,-0.012011389248073101,0.032173383980989456
1751013967227232300,1.529232177734375,0.002977946773171425,0.0006061354652047157,0.06488499045372009
1751013967237175000,1.539175048828125,0.0162961483001709,0.014885472133755684,0.08686166256666183
1751013967247119000,1.549119140625,0.02750459499657154,0.018850652500987053,0.09401970356702805
1751013967257063200,1.559063232421875,0.03593749552965164,0.015334747731685638,0.09079168736934662
1751013967267006200,1.569006103515625,0.036988113075494766,0.0002463423879817128,0.07748387008905411
1751013967276950000,1.578949951171875,0.026260366663336754,-0.010239055380225182,0.06299813836812973
1751013967286894000,1.58889404296875,0.01534673199057579,-0.018557971343398094,0.045405298471450806
1751013967296838100,1.598838134765625,0.007788414601236582,-0.013293434865772724,0.02245311066508293
1751013967306781000,1.608781005859375,0.014050571247935295,-0.0008729841792955995,-0.009839847683906555
1751013967316725000,1.61872509765625,0.031022896990180016,0.007120227441191673,-0.056348495185375214
1751013967326669300,1.62866943359375,0.04908738657832146,0.008333297446370125,-0.09700910747051239
1751013967336613000,1.638613037109375,0.06411772966384888,0.005018460564315319,-0.12467615306377411
1751013967346556200,1.64855615234375,0.06459470838308334,-0.0006072007236070931,-0.12708178162574768
1751013967356500200,1.658500244140625,0.05748965963721275,-0.011535216122865677,-0.11369354277849197
1751013967366444000,1.668444091796875,0.04578160122036934,-0.0352485328912735,-0.08588401228189468
1751013967376387000,1.678386962890625,0.034028541296720505,-0.05362221598625183,-0.04210804030299187
1751013967386331100,1.6883310546875,0.028418591246008873,-0.0647217407822609,0.014535533264279366
1751013967396275000,1.69827490234375,0.026983680203557014,-0.06456807255744934,0.0684317871928215
1751013967406219000,1.708218994140625,0.02900661714375019,-0.04651637002825737,0.10394211113452911
1751013967416162000,1.718162109375,0.03816922381520271,-0.019833626225590706,0.11332682520151138
1751013967426106000,1.728106201171875,0.053276270627975464,0.004892759490758181,0.09018182754516602
1751013967436050200,1.73805029296875,0.06997589021921158,0.03418859839439392,0.04565456882119179
1751013967445993200,1.7479931640625,0.07983943819999695,0.0589221715927124,-0.007564975414425135
1751013967455937000,1.75793701171875,0.07646813988685608,0.057370882481336594,-0.058820974081754684
1751013967465881000,1.767881103515625,0.06991729885339737,0.04492912441492081,-0.0876438319683075
1751013967475825200,1.7778251953125,0.055511463433504105,0.03367673605680466,-0.0862502008676529
1751013967485768200,1.787768310546875,0.04213733226060867,0.019283415749669075,-0.06800035387277603
1751013967495712000,1.7977119140625,0.032461270689964294,-0.0008287757518701255,-0.03472921997308731
1751013967505656000,1.807656005859375,0.018004566431045532,-0.01864559017121792,0.009587380103766918
1751013967515599000,1.81759912109375,0.007489341776818037,-0.03244182839989662,0.05511278659105301
1751013967525543200,1.827543212890625,0.003237072378396988,-0.033490315079689026,0.0913887694478035
1751013967535487200,1.8374873046875,0.008958607912063599,-0.023307453840970993,0.11316277086734772
1751013967545431000,1.84743115234375,0.025617744773626328,-0.023511717095971107,0.11180748790502548
1751013967555374000,1.8573740234375,0.04599066078662872,-0.02895415388047695,0.10069252550601959
1751013967565318100,1.867318115234375,0.06637369841337204,-0.033366743475198746,0.09035573154687881
1751013967575262000,1.877261962890625,0.08681318908929825,-0.0362355038523674,0.09397176653146744
1751013967585205000,1.887205078125,0.09055200219154358,-0.034389931708574295,0.09769140928983688
1751013967595149000,1.897149169921875,0.07424706965684891,-0.03394598141312599,0.08807872235774994
1751013967605093000,1.907093017578125,0.05104241147637367,-0.05453275144100189,0.05639936029911041
1751013967615037200,1.917037109375,0.015321431681513786,-0.08876076340675354,0.006028864067047834
1751013967624980200,1.926980224609375,-0.022524483501911163,-0.1240319311618805,-0.03976632282137871
1751013967634924300,1.93692431640625,-0.04344893991947174,-0.13449043035507202,-0.05055878311395645
1751013967644868000,1.9468681640625,-0.0475909560918808,-0.12483647465705872,-0.02665984071791172
1751013967654811100,1.95681103515625,-0.038534075021743774,-0.09132511913776398,0.0144710848107934
1751013967664755200,1.966755126953125,-0.025373799726366997,-0.05476551130414009,0.057016413658857346
1751013967674699000,1.976698974609375,-0.0070248860865831375,-0.021711153909564018,0.08957275748252869
1751013967684643000,1.98664306640625,0.009167931973934174,0.019038937985897064,0.09981527924537659
1751013967694586000,1.996586181640625,0.026986610144376755,0.0486234612762928,0.08252816647291183
1751013967704530000,2.006530029296875,0.041256360709667206,0.05975227802991867,0.04874809831380844
1751013967714474200,2.01647412109375,0.04508598521351814,0.062495335936546326,0.009582320228219032
1751013967724418000,2.02641796875,0.048355281352996826,0.06065429374575615,-0.019810723140835762
1751013967734361000,2.036361083984375,0.045092109590768814,0.06023005023598671,-0.03526211529970169
1751013967744305200,2.04630517578125,0.03638863563537598,0.057485129684209824,-0.035658929497003555
1751013967754249200,2.056249267578125,0.03008972480893135,0.04429236426949501,-0.031983233988285065
1751013967764192000,2.06619189453125,0.01836222968995571,0.028986643999814987,-0.030276412144303322
1751013967774136000,2.076135986328125,0.01221432164311409,0.01423592772334814,-0.03187910467386246
1751013967784080100,2.086080078125,0.006341785658150911,0.0007989483419805765,-0.037948980927467346
1751013967794024000,2.09602392578125,0.0032586439047008753,-0.00911466870456934,-0.03795244172215462
1751013967803967000,2.105967041015625,-0.0010466222884133458,-0.017954498529434204,-0.03116324543952942
1751013967813911300,2.115911376953125,0.0010335728293284774,-0.016877517104148865,-0.02418496459722519
1751013967823855000,2.125855224609375,0.004282363224774599,-0.007515707053244114,-0.014328871853649616
1751013967833798100,2.135798095703125,0.007090932689607143,0.003177950158715248,-0.01056316215544939
1751013967843742200,2.1457421875,0.005422462243586779,0.010307231917977333,-0.020135628059506416
1751013967853686000,2.15568603515625,0.00842810608446598,0.011275557801127434,-0.03982038423418999
1751013967863626200,2.165626220703125,0.01612544059753418,0.013990649953484535,-0.06226923316717148
1751013967873569300,2.1755693359375,0.014576013199985027,0.011601528152823448,-0.09207773208618164
1751013967883513300,2.185513427734375,0.010101103223860264,-0.00014674017438665032,-0.12117861956357956
1751013967893457400,2.19545751953125,0.014198376797139645,-0.005967345088720322,-0.12904107570648193
1751013967903401500,2.2054013671875,0.013540842570364475,-0.012950419448316097,-0.11899270117282867
1751013967913344300,2.21534423828125,0.007410511840134859,-0.020604077726602554,-0.08754636347293854
1751013967923288300,2.225288330078125,0.0014282532501965761,-0.019283682107925415,-0.04358609393239021
1751013967933232400,2.235232421875,0.0003712446487043053,-0.01606844924390316,0.010178068652749062
1751013967943175400,2.245175537109375,0.011751997284591198,-0.0038061898667365313,0.04958566278219223
1751013967953119200,2.255119140625,0.031614918261766434,0.005358013790100813,0.07086538523435593
1751013967963063300,2.265063232421875,0.05790937319397926,0.012327772565186024,0.07692141085863113
1751013967973007400,2.27500732421875,0.079452745616436,0.018130267038941383,0.0599413625895977
1751013967982950400,2.284950439453125,0.08615299314260483,0.01775023527443409,0.03943289443850517
1751013967992894500,2.29489453125,0.07413574308156967,0.018688999116420746,-0.0025478461757302284
1751013968002838300,2.30483837890625,0.061585333198308945,0.01401808112859726,-0.033672209829092026
1751013968012781300,2.31478125,0.048825062811374664,0.010320814326405525,-0.06003643944859505
1751013968022725400,2.324725341796875,0.027088874951004982,0.009554622694849968,-0.07342255115509033
1751013968032669200,2.334669189453125,0.00592606607824564,0.0024956483393907547,-0.07114341855049133
1751013968042613200,2.34461328125,-0.008615326136350632,-0.0009856359101831913,-0.05270795151591301
1751013968052556300,2.354556396484375,-0.019054384902119637,0.0018908443162217736,-0.014704643748700619
1751013968062500400,2.364500244140625,-0.02256443165242672,0.0065079666674137115,0.01966984197497368
1751013968072444400,2.3744443359375,-0.022096779197454453,0.0059628174640238285,0.048409078270196915
1751013968082388500,2.384388427734375,-0.019531089812517166,0.01007926557213068,0.06258109211921692
1751013968092331500,2.39433154296875,-0.015263641253113747,0.012022574432194233,0.05517164245247841
1751013968102275300,2.404275390625,-0.01375442836433649,0.011932292953133583,0.02883218042552471
1751013968112219400,2.414219482421875,-0.007545001804828644,0.01392753329128027,-0.011471832171082497
1751013968122162400,2.424162353515625,0.000963797967415303,0.016775785014033318,-0.048662878572940826
1751013968132106200,2.434106201171875,0.002939597237855196,0.00887924525886774,-0.0743890106678009
1751013968142050300,2.44405029296875,-0.003180613275617361,0.0006671218434348702,-0.08725687116384506
1751013968151994400,2.453994384765625,-0.0135067543014884,-0.0032237565610557795,-0.0745203047990799
1751013968161937400,2.4639375,-0.015081747435033321,-0.0046607982367277145,-0.050884753465652466
1751013968171881500,2.473881591796875,-0.01576964184641838,-0.003926032222807407,-0.01531956810504198
1751013968181825300,2.4838251953125,-0.018073808401823044,-0.00848483107984066,0.016816264018416405
1751013968191769300,2.493769287109375,-0.020803015679121017,-0.00896872766315937,0.04562287777662277
1751013968201712400,2.50371240234375,-0.016202937811613083,-0.004040281753987074,0.06353236734867096
1751013968211656400,2.513656494140625,-0.003382214577868581,-0.00020719393796753138,0.06495556235313416
1751013968221600300,2.523600341796875,0.006039250176399946,0.002627741079777479,0.04824769124388695
1751013968231543300,2.533543212890625,0.01624741218984127,0.008216917514801025,0.017889251932501793
1751013968241487400,2.5434873046875,0.018935874104499817,0.020130569115281105,-0.016871124505996704
1751013968251431400,2.553431396484375,0.023730097338557243,0.035954270511865616,-0.051541220396757126
1751013968261375500,2.56337548828125,0.020708473399281502,0.04952947050333023,-0.07212479412555695
1751013968271318500,2.573318603515625,0.014937404543161392,0.05025012046098709,-0.08070656657218933
1751013968281262300,2.583262451171875,-0.000391218374716118,0.036673590540885925,-0.0761946365237236
1751013968291206400,2.593206298828125,-0.02008662559092045,0.01938275247812271,-0.06408125162124634
1751013968301150200,2.603150146484375,-0.03280162066221237,0.010263822972774506,-0.04742131009697914
1751013968311093200,2.61309326171875,-0.03117789328098297,-0.0070342072285711765,-0.03235474228858948
1751013968321037300,2.623037353515625,-0.03367939963936806,-0.021258151158690453,-0.020544955506920815
1751013968330981400,2.6329814453125,-0.023837953805923462,-0.02629045955836773,-0.005948436446487904
1751013968340925400,2.642925537109375,-0.016822123900055885,-0.022417157888412476,0.008244880475103855
1751013968350868500,2.652868408203125,-0.010775682516396046,-0.012458267621695995,0.020172912627458572
1751013968360812500,2.6628125,-0.001642371411435306,-0.007299990858882666,0.026273149996995926
1751013968370756400,2.67275634765625,0.0025949841365218163,-0.004282629117369652,0.027242273092269897
1751013968380699400,2.682699462890625,0.0024708807468414307,-0.0026770094409585,0.01489506009966135
1751013968390643500,2.6926435546875,0.0006623281515203416,0.0003121224872302264,-0.004047205671668053
1751013968400587300,2.702587158203125,0.00509755639359355,0.009167132899165154,-0.015207981690764427
1751013968410531300,2.71253125,0.01375176478177309,0.03068147972226143,-0.021755628287792206
1751013968420474400,2.722474365234375,0.015539810992777348,0.043349072337150574,-0.02160356193780899
1751013968430418200,2.732418212890625,0.012794358655810356,0.050566770136356354,-0.020475979894399643
1751013968440362500,2.742362548828125,0.011489409022033215,0.05013933405280113,-0.016687633469700813
1751013968450306300,2.752306396484375,0.008671784773468971,0.04015274718403816,-0.006824616342782974
1751013968460249300,2.762249267578125,0.008888034150004387,0.020979050546884537,0.0018777948571369052
1751013968470193400,2.772193359375,0.0031377363484352827,0.0022985744290053844,0.01558428630232811
1751013968480137500,2.782137451171875,0.002683667466044426,-0.012747487053275108,0.028052140027284622
1751013968490080300,2.792080322265625,0.004370247479528189,-0.022120214998722076,0.03665335103869438
1751013968500024300,2.8020244140625,0.008777245879173279,-0.024877386167645454,0.03335662558674812
1751013968509968400,2.811968505859375,0.009616674855351448,-0.015665512531995773,0.027391677722334862
1751013968519912200,2.821912109375,0.019344935193657875,0.0012572783743962646,0.01635740138590336
1751013968529855200,2.831855224609375,0.02653041109442711,0.019727366045117378,0.0025220136158168316
1751013968539799600,2.841799560546875,0.037461355328559875,0.036001142114400864,-0.01799418032169342
1751013968549743400,2.851743408203125,0.047144610434770584,0.03952477127313614,-0.03590180724859238
1751013968559687400,2.8616875,0.0477033406496048,0.034453313797712326,-0.049730803817510605
1751013968569630500,2.87163037109375,0.05299637094140053,0.016352875158190727,-0.052385974675416946
1751013968579574300,2.88157421875,0.05576419457793236,-0.010788732208311558,-0.03807441517710686
1751013968589518300,2.891518310546875,0.055268581956624985,-0.04165690019726753,-0.011834555305540562
1751013968599462100,2.901462158203125,0.05536125972867012,-0.06294327974319458,0.018495120108127594
1751013968609405200,2.9114052734375,0.05698499083518982,-0.06284287571907043,0.06283915042877197
1751013968619349200,2.921349365234375,0.05402994528412819,-0.04363749176263809,0.08700014650821686
1751013968629293600,2.93129345703125,0.04767218232154846,-0.01209660992026329,0.08367705345153809
1751013968639236400,2.941236328125,0.049741990864276886,0.01101749762892723,0.04685991629958153
1751013968649180400,2.951180419921875,0.056167930364608765,0.032890837639570236,0.004752943757921457
1751013968659124500,2.96112451171875,0.05929022282361984,0.043414320796728134,-0.04144597798585892
1751013968669068300,2.971068359375,0.052257876843214035,0.04410940408706665,-0.0767485722899437
1751013968679011300,2.98101123046875,0.03664083406329155,0.040756482630968094,-0.08339502662420273
1751013968688955400,2.990955322265625,0.02233220264315605,0.026282470673322678,-0.07281215488910675
1751013968698899200,3.000899169921875,-0.005805691238492727,0.008557802066206932,-0.04525669291615486
1751013968708843500,3.010843505859375,-0.03459073230624199,-0.005906624719500542,-0.017655959352850914
1751013968718786300,3.020786376953125,-0.05066690593957901,-0.02292555570602417,0.008013451471924782
1751013968728730400,3.03073046875,-0.05421103909611702,-0.0284084714949131,0.028243355453014374
1751013968738674400,3.04067431640625,-0.04384521767497063,-0.030488133430480957,0.036068521440029144
1751013968748618200,3.0506181640625,-0.03931678086519241,-0.019303124397993088,0.019294336438179016
1751013968758561300,3.060561279296875,-0.029350964352488518,-0.004548679105937481,-0.03368525952100754
1751013968768505300,3.07050537109375,-0.021084245294332504,0.011519502848386765,-0.11710638552904129
1751013968778449400,3.080449462890625,-0.01110538188368082,0.028898758813738823,-0.21782927215099335
1751013968788392200,3.09039208984375,-0.0031161648221313953,0.05320410057902336,-0.3125472366809845
1751013968798336300,3.100336181640625,0.026615366339683533,0.0644032210111618,-0.3598940074443817
1751013968808280600,3.110280517578125,0.04000547155737877,0.05535620078444481,-0.34858009219169617
1751013968818224400,3.120224365234375,0.03948056325316429,0.0478825718164444,-0.28330016136169434
1751013968828167400,3.13016748046875,0.01798778958618641,0.034446924924850464,-0.1764133870601654
1751013968838111500,3.140111572265625,-0.00914236530661583,0.010521883144974709,-0.0516381599009037
1751013968848055300,3.15005517578125,-0.021152690052986145,-0.017772605642676353,0.07513736188411713
1751013968857999400,3.159999267578125,-0.02002803608775139,-0.025310415774583817,0.1864393800497055
1751013968867942400,3.1699423828125,-0.007547931279987097,-0.02263127639889717,0.2614845931529999
1751013968877886200,3.17988623046875,0.013554691337049007,-0.004456799943000078,0.2867015302181244
1751013968887830300,3.189830322265625,0.03951971232891083,0.029206620529294014,0.24826014041900635
1751013968897774300,3.1997744140625,0.06444929540157318,0.05480572581291199,0.16411730647087097
1751013968907717400,3.20971728515625,0.08201843500137329,0.0757317766547203,0.06669141352176666
1751013968917661400,3.219661376953125,0.07970254868268967,0.0900111123919487,-0.027407122775912285
1751013968927605500,3.22960546875,0.056165266782045364,0.07627452909946442,-0.10004644095897675
1751013968937549300,3.23954931640625,0.01991298794746399,0.05049832910299301,-0.13377031683921814
1751013968947492400,3.249492431640625,-0.015804795548319817,0.016934774816036224,-0.122817263007164
1751013968957436400,3.2594365234375,-0.042515501379966736,-0.007290936075150967,-0.07496771961450577
1751013968967380200,3.269380126953125,-0.06234406679868698,-0.03124047815799713,-0.004746285732835531
1751013968977323300,3.2793232421875,-0.07114794850349426,-0.04884450510144234,0.06221730262041092
1751013968987267300,3.289267333984375,-0.07662846148014069,-0.05921139195561409,0.11264798790216446
1751013968997211400,3.29921142578125,-0.07107684016227722,-0.06034856289625168,0.12456296384334564
1751013969007155500,3.309155517578125,-0.05823054909706116,-0.05458228662610054,0.09833056479692459
1751013969017098500,3.319098388671875,-0.039138879626989365,-0.03966192528605461,0.049804575741291046
1751013969027042300,3.329042236328125,-0.01901017688214779,-0.019336413592100143,0.0024977787397801876
1751013969036986400,3.338986328125,-0.003652791725471616,0.00376011710613966,-0.036432042717933655
1751013969046930400,3.348930419921875,-0.0028304075822234154,0.011149323545396328,-0.06203700602054596
1751013969056873200,3.358873291015625,-0.008598015643656254,0.021631259471178055,-0.06105616316199303
1751013969066817300,3.3688173828125,-0.016978450119495392,0.024694161489605904,-0.04586149752140045
1751013969076761300,3.37876123046875,-0.02490907721221447,0.012358665466308594,-0.020365992560982704
1751013969086705400,3.388705322265625,-0.029857764020562172,-0.0106491819024086,-0.0001917476038215682
1751013969096648400,3.3986484375,-0.03056430071592331,-0.026929885149002075,0.010697918012738228
1751013969106592500,3.408592529296875,-0.01997690461575985,-0.030818365514278412,0.0002519350382499397
1751013969116536300,3.418536376953125,-0.003537210635840893,-0.026489930227398872,-0.015222362242639065
1751013969126480400,3.42848046875,0.01757153682410717,-0.016219982877373695,-0.03338565304875374
1751013969136423400,3.43842333984375,0.025537317618727684,-0.0038397456519305706,-0.05945640429854393
1751013969146367200,3.4483671875,0.013907293789088726,-0.0046365633606910706,-0.08254920691251755
1751013969156311300,3.458311279296875,0.00800066813826561,-0.023272033780813217,-0.09185082465410233
1751013969166254300,3.46825439453125,-0.008809470571577549,-0.04868684709072113,-0.08284028619527817
1751013969176198100,3.4781982421875,-0.01926290988922119,-0.06921688467264175,-0.062481220811605453
1751013969186142500,3.488142578125,-0.024025175720453262,-0.07891292124986649,-0.025259284302592278
1751013969196086500,3.49808642578125,-0.013528591953217983,-0.07452376931905746,0.007138603366911411
1751013969206029300,3.508029296875,-0.003913781605660915,-0.05066104605793953,0.030225813388824463
1751013969215973400,3.517973388671875,0.007962319068610668,-0.01570332981646061,0.0390496626496315
1751013969225917400,3.52791748046875,0.020969996228814125,0.014898255467414856,0.022465627640485764
1751013969235861200,3.537861328125,0.04547134414315224,0.04472352936863899,-0.0021286646369844675
1751013969245804300,3.54780419921875,0.06660805642604828,0.06234406679868698,-0.03104366920888424
1751013969255748400,3.557748291015625,0.07155168056488037,0.056838780641555786,-0.05459826439619064
1751013969265692400,3.5676923828125,0.06740593910217285,0.038597460836172104,-0.0674794390797615
1751013969275636500,3.577636474609375,0.05062296241521835,0.01501064095646143,-0.060690246522426605
1751013969285579500,3.58757958984375,0.0247317124158144,-0.012540559284389019,-0.04956302419304848
1751013969295523300,3.5975234375,-0.0032594427466392517,-0.03615134581923485,-0.031986694782972336
1751013969305467400,3.60746728515625,-0.02616768889129162,-0.04662369564175606,-0.014089453965425491
1751013969315411500,3.617411376953125,-0.032049279659986496,-0.03466903045773506,0.015864184126257896
1751013969325354200,3.627354248046875,-0.03087109699845314,-0.02058437094092369,0.03488794341683388
1751013969335298300,3.63729833984375,-0.010071542114019394,-0.0006024070316925645,0.047149933874607086
1751013969345242400,3.647242431640625,0.005367601290345192,0.012801016680896282,0.056665677577257156
1751013969355185200,3.65718505859375,0.01002200786024332,0.023793745785951614,0.04923785477876663
1751013969365129500,3.66712939453125,0.010355701670050621,0.024820394814014435,0.031919848173856735
1751013969375073500,3.677073486328125,0.010058493353426456,0.020920727401971817,0.006625944748520851
1751013969385017300,3.687017333984375,0.007653126027435064,0.020893031731247902,-0.01452780980616808
1751013969394960400,3.69696044921875,0.0046450854279100895,0.023375896736979485,-0.027591148391366005
1751013969404904400,3.706904541015625,-0.0021550299134105444,0.027471838518977165,-0.02678261138498783
1751013969414848300,3.71684814453125,-0.008946890011429787,0.030857248231768608,-0.024334633722901344
1751013969424792300,3.726792236328125,-0.01834225468337536,0.02406991645693779,-0.023845944553613663
1751013969434735400,3.7367353515625,-0.0261226799339056,0.010487528517842293,-0.030460437759757042
1751013969444679200,3.74667919921875,-0.030765635892748833,-0.006909571588039398,-0.033179789781570435
1751013969454623500,3.75662353515625,-0.03813939541578293,-0.017706027254462242,-0.031077757477760315
1751013969464567300,3.7665673828125,-0.03984541818499565,-0.023566579446196556,-0.02118225023150444
1751013969474510300,3.77651025390625,-0.04180470481514931,-0.014902250841259956,-0.005655222572386265
1751013969484454400,3.786454345703125,-0.04318208992481232,-0.0033305492252111435,0.0032866070978343487
1751013969494398500,3.7963984375,-0.03726774454116821,0.01068273838609457,0.008590558543801308
1751013969504342300,3.80634228515625,-0.03170493245124817,0.026325879618525505,0.012778379023075104
1751013969514285300,3.816285400390625,-0.021918881684541702,0.04790733754634857,0.012374644167721272
1751013969524229400,3.8262294921875,-0.0078531289473176,0.05824466422200203,0.010664895176887512
1751013969534173200,3.836173095703125,0.007506385911256075,0.0578201562166214,0.010390322655439377
1751013969544117500,3.846117431640625,0.018447717651724815,0.05053374916315079,0.00424135010689497
1751013969554060500,3.856060546875,0.016034627333283424,0.03641872853040695,-0.0026879284996539354
1751013969564004400,3.86600439453125,0.009649431332945824,0.005981726106256247,-0.008154598996043205
1751013969573948400,3.875948486328125,-0.009066731669008732,-0.01299569383263588,-0.0037441381718963385
1751013969583891500,3.885891357421875,-0.03850850835442543,-0.02412397786974907,-0.011185542680323124
1751013969593835300,3.895835205078125,-0.05536418780684471,-0.035163845866918564,-0.01576271839439869
1751013969603779300,3.905779296875,-0.0514589287340641,-0.02563798613846302,-0.015602661296725273
1751013969613723400,3.915723388671875,-0.035167574882507324,-0.015927035361528397,-0.022958312183618546
1751013969623666200,3.925666259765625,-0.016831444576382637,0.0021339908707886934,-0.023982830345630646
1751013969633610200,3.9356103515625,0.00418276060372591,0.02365952357649803,-0.028773058205842972
1751013969643554600,3.945554443359375,0.03153076022863388,0.04084942862391472,-0.03136591240763664
1751013969653498400,3.955498291015625,0.06266257911920547,0.05848275125026703,-0.03682618960738182
1751013969663441400,3.96544140625,0.09093177318572998,0.06168839707970619,-0.04242175817489624
1751013969673385500,3.975385498046875,0.08624673634767532,0.060147494077682495,-0.06570205092430115
1751013969683329300,3.985329345703125,0.06016453728079796,0.05505925789475441,-0.139236718416214
1751013969693273300,3.9952734375,0.019408585503697395,0.009662481024861336,-0.25131186842918396
1751013969703216400,4.00521630859375,-0.019091136753559113,-0.06900143623352051,-0.35103845596313477
1751013969713160200,4.01516015625,-0.05439293384552002,-0.13396525382995605,-0.40273094177246094
1751013969723104300,4.025104248046875,-0.06718409806489944,-0.1726844310760498,-0.363840788602829
1751013969733048300,4.03504833984375,-0.07048828154802322,-0.18418101966381073,-0.2690775394439697
1751013969742991400,4.044991455078125,-0.06481601297855377,-0.18137244880199432,-0.1414458155632019
1751013969752935400,4.054935302734375,-0.042272090911865234,-0.15705086290836334,0.0037768951151520014
1751013969762879500,4.06487939453125,0.0028687571175396442,-0.10128161311149597,0.1414460837841034
1751013969772823300,4.0748232421875,0.05005970597267151,-0.0318966805934906,0.23265162110328674
1751013969782766300,4.084766357421875,0.08809390664100647,0.02521534077823162,0.266330748796463
1751013969792710400,4.09471044921875,0.11786644905805588,0.06192408874630928,0.25416702032089233
1751013969802654200,4.104654296875,0.13619326055049896,0.0896337479352951,0.2087841033935547
1751013969812598500,4.1145986328125,0.1435563713312149,0.11205489933490753,0.14303837716579437
1751013969822541600,4.12454150390625,0.12708285450935364,0.11811359226703644,0.05631333962082863
1751013969832485400,4.1344853515625,0.09325111657381058,0.08448372781276703,-0.04235411435365677
1751013969842429400,4.144429443359375,0.047037284821271896,0.04188939183950424,-0.10272291302680969
1751013969852372500,4.15437255859375,0.000952080066781491,0.014150439761579037,-0.12125106155872345
1751013969862316800,4.16431689453125,-0.038958050310611725,0.004707403481006622,-0.08722598105669022
1751013969872260900,4.1742607421875,-0.06450122594833374,0.004510329570621252,-0.034094322472810745
1751013969882204700,4.18420458984375,-0.07733579725027084,0.012713132426142693,0.024382837116718292
1751013969892147700,4.194147705078125,-0.07634244114160538,0.02377803437411785,0.07381589710712433
1751013969902091800,4.204091796875,-0.0667654499411583,0.038302913308143616,0.10163421928882599
1751013969912035600,4.21403564453125,-0.04652488976716995,0.04958592727780342,0.10877761244773865
1751013969921980000,4.22397998046875,-0.025660622864961624,0.06276245415210724,0.092201828956604
1751013969931923000,4.2339228515625,-0.00836578756570816,0.059363458305597305,0.06166629493236542
1751013969941866800,4.24386669921875,0.0007424892974086106,0.05851098150014877,0.025554362684488297
1751013969951810800,4.253810791015625,0.0051289820112288,0.05162724107503891,-0.008620386011898518
1751013969961755000,4.2637548828125,-0.0006255765329115093,0.0377255417406559,-0.03795803338289261
1751013969971698000,4.273697998046875,-0.014121944084763527,0.020789701491594315,-0.05414366349577904
1751013969981641700,4.283641845703125,-0.033671408891677856,0.019033079966902733,-0.05516551807522774
1751013969991585800,4.293585693359375,-0.051662396639585495,0.018699118867516518,-0.04707083851099014
1751013970001529900,4.30352978515625,-0.060504887253046036,0.034869302064180374,-0.034753717482089996
1751013970011472600,4.31347265625,-0.05438388139009476,0.040159668773412704,-0.01782054267823696
1751013970021417000,4.3234169921875,-0.05344165489077568,0.014363226480782032,0.004914331249892712
1751013970031360800,4.33336083984375,-0.06857426464557648,0.004592354875057936,0.02262009121477604
1751013970041304800,4.343304931640625,-0.08988674730062485,-0.007412909064441919,0.028869997709989548
1751013970051247900,4.353247802734375,-0.09683546423912048,-0.029618078842759132,0.024055268615484238
1751013970061191700,4.363191650390625,-0.09968744218349457,-0.04243960231542587,0.017896708101034164
1751013970071135700,4.3731357421875,-0.0961339920759201,-0.031620778143405914,0.0177539624273777
1751013970081079800,4.383079833984375,-0.08149565756320953,-0.0272502638399601,0.014217551797628403
1751013970091022800,4.39302294921875,-0.07026084512472153,-0.03229961544275284,0.011424694210290909
1751013970100967000,4.402966796875,-0.0631675198674202,-0.02588246390223503,0.0026794064324349165
1751013970110911000,4.412910888671875,-0.05221473425626755,-0.016651414334774017,0.003614708548411727
1751013970120854800,4.422854736328125,-0.04526202008128166,-0.011374094523489475,0.007723433431237936
1751013970130797800,4.4327978515625,-0.039852339774370193,-0.0011877698125317693,0.007979363203048706
1751013970140742000,4.442741943359375,-0.027753867208957672,0.01998888887465,0.012114719487726688
1751013970150685700,4.452685791015625,-0.013307017274200916,0.04448863863945007,0.016453009098768234
1751013970160629800,4.462629638671875,-0.0014772554859519005,0.06150943413376808,0.023914920166134834
1751013970170572800,4.47257275390625,0.007864846847951412,0.0689857229590416,0.025967152789235115
1751013970180516600,4.4825166015625,0.012951218523085117,0.07064594328403473,0.017786188051104546
1751013970190461000,4.4924609375,0.023432621732354164,0.06492120772600174,0.0019044264918193221
1751013970200405000,4.502405029296875,0.030582142993807793,0.05953549966216087,-0.014916897751390934
1751013970210347800,4.51234765625,0.032099079340696335,0.046789877116680145,-0.03561818227171898
1751013970220291800,4.522291748046875,0.032228242605924606,0.031745944172143936,-0.05516977980732918
1751013970230236000,4.53223583984375,0.033956900238990784,0.02773895300924778,-0.07241348177194595
1751013970240179000,4.542178955078125,0.05604329705238342,0.001285241567529738,-0.08117954432964325
1751013970250122800,4.552122802734375,0.08238781988620758,-0.041858501732349396,-0.08015395700931549
1751013970260066800,4.56206689453125,0.09127345681190491,-0.08913227170705795,-0.05452875420451164
1751013970270010600,4.5720107421875,0.09183964133262634,-0.11136380583047867,0.012878780253231525
1751013970279953700,4.58195361328125,0.08104052394628525,-0.10351786762475967,0.09398028999567032
1751013970289898000,4.59189794921875,0.062242601066827774,-0.08697085082530975,0.1701168715953827
1751013970299841800,4.601841796875,0.0483800508081913,-0.07218178361654282,0.22362829744815826
1751013970309785900,4.611785888671875,0.042218826711177826,-0.049799781292676926,0.24789609014987946
1751013970319729000,4.62172900390625,0.037519678473472595,-0.01230486948043108,0.22386717796325684
1751013970329672700,4.631672607421875,0.04506015405058861,0.01739976368844509,0.16452130675315857
1751013970339616800,4.64161669921875,0.0626697689294815,0.036011796444654465,0.08729761838912964
1751013970349560800,4.651560791015625,0.07358554005622864,0.054736483842134476,0.015210644342005253
1751013970359504000,4.66150390625,0.07575361430644989,0.060810886323451996,-0.04321165382862091
1751013970369447700,4.67144775390625,0.0654972493648529,0.057556502521038055,-0.07827030122280121
1751013970379392000,4.68139208984375,0.05054439976811409,0.046785879880189896,-0.08548080921173096
1751013970389335800,4.691335693359375,0.030169354751706123,0.04322177171707153,-0.05985880643129349
1751013970399278800,4.70127880859375,0.00920202024281025,0.03699743375182152,-0.027344273403286934
1751013970409223000,4.711222900390625,-0.0045585329644382,0.02863723784685135,-0.00044528054422698915
1751013970419166700,4.721166748046875,-0.00999058224260807,0.020556673407554626,0.01449958048760891
1751013970429110800,4.73111083984375,-0.0024612934794276953,0.012970127165317535,0.019727366045117378
1751013970439053800,4.7410537109375,0.016005864366889,0.009383914060890675,0.017539845779538155
1751013970448997600,4.75099755859375,0.028734441846609116,0.008747152984142303,-0.00037284253630787134
1751013970458941700,4.760941650390625,0.04200923442840576,-0.005152417812496424,-0.01565246284008026
1751013970468886000,4.770885986328125,0.04252295941114426,-0.016111059114336967,-0.042623892426490784
1751013970478828800,4.780828857421875,0.03544507548213005,-0.03139547258615494,-0.06543386727571487
1751013970488772900,4.79077294921875,0.028486236929893494,-0.04807112365961075,-0.08307784050703049
1751013970498717000,4.800717041015625,0.023033147677779198,-0.063210129737854,-0.1017516627907753
1751013970508660700,4.81066064453125,0.010190585628151894,-0.08994853496551514,-0.1160389855504036
1751013970518603800,4.820603759765625,0.0038314899429678917,-0.11157473176717758,-0.1140541359782219
1751013970528547800,4.8305478515625,-0.010016681626439095,-0.11387410759925842,-0.09300051629543304
1751013970538491600,4.84049169921875,-0.015335813164710999,-0.10497462004423141,-0.07591180503368378
1751013970548436000,4.85043603515625,-0.009080047719180584,-0.0915680006146431,-0.057010289281606674
1751013970558378800,4.860378662109375,0.0010066748363897204,-0.06320000439882278,-0.02833416871726513
1751013970568322800,4.87032275390625,0.016050871461629868,-0.026072880253195763,0.005979329347610474
1751013970578267000,4.880266845703125,0.03435078263282776,0.01504233293235302,0.04273601248860359
1751013970588211000,4.8902109375,0.04490755498409271,0.04578400030732155,0.06714894622564316
1751013970598153700,4.90015380859375,0.04969298839569092,0.055926114320755005,0.07640795409679413
1751013970608097800,4.910097900390625,0.03889040648937225,0.04517706483602524,0.06688901782035828
1751013970618041900,4.920041748046875,0.018449047580361366,0.01882908120751381,0.04770893231034279
1751013970627985700,4.929985595703125,-0.01261166576296091,0.004507666453719139,0.007229949813336134
1751013970637928700,4.9399287109375,-0.03265834599733353,-0.01452754344791174,-0.03341095522046089
1751013970647873000,4.949873046875,-0.04784262180328369,-0.025179123505949974,-0.0707537978887558
1751013970657816800,4.95981689453125,-0.06954073160886765,-0.03411775827407837,-0.10309309512376785
1751013970667761000,4.969760986328125,-0.07580501586198807,-0.03141012042760849,-0.10682179033756256
1751013970677704000,4.979703857421875,-0.07569129765033722,-0.02551068551838398,-0.0972336083650589
1751013970687647700,4.989647705078125,-0.07843701541423798,-0.008803877979516983,-0.07502897083759308
1751013970697591800,4.999591796875,-0.07921625673770905,0.010978348553180695,-0.05445951223373413
1751013970707535600,5.00953564453125,-0.067487433552742,0.029644178226590157,-0.03298963978886604
1751013970717478700,5.019478759765625,-0.04061826691031456,0.04222575202584267,-0.013726198114454746
1751013970727422700,5.029422607421875,-0.0036754286848008633,0.0501188263297081,0.004720985423773527
1751013970737367000,5.039366943359375,0.028191424906253815,0.04933745414018631,0.012791961431503296
1751013970747310800,5.049310791015625,0.05046690255403519,0.02588352933526039,0.016398681327700615
1751013970757254000,5.05925390625,0.055987901985645294,0.0017259946325793862,0.014285195618867874
1751013970767198000,5.069197998046875,0.0533902533352375,-0.02250291220843792,-0.001671666163019836
1751013970777141800,5.079141845703125,0.05372101813554764,-0.040524255484342575,-0.02658926695585251
1751013970787085800,5.0890859375,0.052015531808137894,-0.05902949720621109,-0.04427425563335419
1751013970797028900,5.09902880859375,0.050872236490249634,-0.05751069635152817,-0.049795251339673996
1751013970806972700,5.10897265625,0.052442967891693115,-0.05029965564608574,-0.03953169658780098
1751013970816916700,5.118916748046875,0.05211646482348442,-0.04374108836054802,-0.021509019657969475
1751013970826860800,5.12886083984375,0.06205937638878822,-0.033311884850263596,0.0030059099663048983
1751013970836803800,5.138803955078125,0.08001281321048737,-0.00899615790694952,0.03636519983410835
1751013970846748000,5.148747802734375,0.10399723798036575,0.02774667553603649,0.06283515691757202
1751013970856691700,5.158691650390625,0.11778522282838821,0.05026157200336456,0.07288192957639694
1751013970866635000,5.168635009765625,0.12327852845191956,0.06402052938938141,0.060918211936950684
1751013970876578000,5.178578125,0.12480185180902481,0.07114528119564056,0.03127376735210419
1751013970886522400,5.1885224609375,0.11749014258384705,0.06614439934492111,-0.002694586291909218
1751013970896466200,5.198466064453125,0.10245367139577866,0.05667126923799515,-0.03702246770262718
1751013970906409200,5.2084091796875,0.07960161566734314,0.046363238245248795,-0.05399452522397041
1751013970916353300,5.218353271484375,0.05770324170589447,0.04308142513036728,-0.05023067817091942
1751013970926297000,5.228297119140625,0.03591033071279526,0.03988083824515343,-0.029277727007865906
1751013970936241200,5.2382412109375,0.02196868136525154,0.04393123835325241,0.004883438348770142
1751013970946184200,5.24818408203125,0.012057195417582989,0.047929976135492325,0.025585254654288292
1751013970956128000,5.2581279296875,0.007272027432918549,0.04680399224162102,0.035723377019166946
1751013970966072000,5.268072021484375,0.004722317215055227,0.04037059098482132,0.0258739423006773
1751013970976016400,5.278016357421875,0.013489443808794022,0.046607714146375656,0.014801849611103535
1751013970985959200,5.287959228515625,0.015543273650109768,0.05474740266799927,-0.016441823914647102
1751013970995903200,5.2979033203125,0.02436659298837185,0.05720816180109978,-0.0398976132273674
1751013971005847300,5.307847412109375,0.02653786726295948,0.06030035763978958,-0.05396603047847748
1751013971015791000,5.317791015625,0.024638233706355095,0.06477340310811996,-0.04800401255488396
1751013971025734100,5.327734130859375,0.010479538701474667,0.06762085855007172,-0.04237275570631027
1751013971035678200,5.33767822265625,-0.0006093312404118478,0.069571353495121,-0.044609278440475464
1751013971045622000,5.3476220703125,0.0003091930120717734,0.07298605889081955,-0.04586176574230194
1751013971055566000,5.357566162109375,0.00823902152478695,0.07792409509420395,-0.03663604333996773
1751013971065509000,5.367509033203125,0.014315555803477764,0.07337994128465652,-0.033609092235565186
1751013971075453200,5.377453125,0.020633639767766,0.05662626028060913,-0.02515169233083725
1751013971085397200,5.387397216796875,0.022665631026029587,0.060925934463739395,-0.012406336143612862
1751013971095341300,5.39734130859375,0.023788420483469963,0.07110799849033356,-0.0012895026011392474
1751013971105284000,5.4072841796875,0.020555874332785606,0.07552911341190338,-0.00021012341312598437
1751013971115228200,5.417228271484375,0.011389540508389473,0.07123902440071106,-0.01398692186921835
1751013971125172200,5.427172119140625,0.008766327053308487,0.06413903832435608,-0.029338980093598366
1751013971135116000,5.437115966796875,0.011236675083637238,0.05856530740857124,-0.04038577154278755
1751013971145059000,5.44705908203125,0.01570705696940422,0.049259692430496216,-0.046969905495643616
1751013971155003100,5.457003173828125,0.01375389564782381,0.04567853733897209,-0.0444209948182106
1751013971164947200,5.466947265625,0.003932157531380653,0.04283428192138672,-0.038609977811574936
1751013971174891300,5.476891357421875,-0.00788535363972187,0.03513162210583687,-0.020498083904385567
1751013971184834300,5.486834228515625,-0.012878247536718845,0.030009031295776367,-0.001716673607006669
1751013971194778000,5.496778076171875,-0.014956312254071236,0.034385137259960175,0.013194898143410683
1751013971204722200,5.50672216796875,-0.012978116981685162,0.02991262450814247,0.020123377442359924
1751013971214666200,5.516666259765625,-0.017887387424707413,0.03068334423005581,0.015908392146229744
1751013971224609000,5.526609130859375,-0.01762320287525654,0.031920380890369415,0.010461162775754929
1751013971234553000,5.536552978515625,-0.010836136527359486,0.04294480383396149,0.010801780968904495
1751013971244497400,5.546497314453125,-0.010320547968149185,0.0458092987537384,0.004592887591570616
1751013971254441200,5.556441162109375,-0.01739789918065071,0.042086999863386154,0.00009507485083304346
1751013971264384300,5.56638427734375,-0.022462697699666023,0.036440297961235046,-0.0035891421139240265
1751013971274328300,5.576328369140625,-0.0312199704349041,0.02803562954068184,-0.012131230905652046
1751013971284272000,5.586272216796875,-0.04229312762618065,-0.0005328985280357301,-0.04057139530777931
1751013971294216200,5.59621630859375,-0.04494404047727585,-0.018515095114707947,-0.06380107998847961
1751013971304159200,5.6061591796875,-0.041559960693120956,-0.0196852870285511,-0.07225529104471207
1751013971314103000,5.61610302734375,-0.02737916074693203,-0.008193215355277061,-0.06297922879457474
1751013971324047000,5.626047119140625,-0.002167813014239073,0.011092864908277988,-0.03478807583451271
1751013971333991200,5.6359912109375,0.01805729791522026,0.029565881937742233,0.0002932140196207911
1751013971343934200,5.645934326171875,0.038118090480566025,0.04363829270005226,0.02413489669561386
1751013971353878300,5.655878173828125,0.05211459845304489,0.05288878083229065,0.041732266545295715
1751013971363822300,5.665822265625,0.060023121535778046,0.05583343654870987,0.03699317201972008
1751013971373766100,5.67576611328125,0.06617129594087601,0.046894270926713943,0.016080699861049652
1751013971383709200,5.685709228515625,0.056650497019290924,0.01985626295208931,-0.015799470245838165
1751013971393653200,5.6956533203125,0.03814765065908432,-0.012199941091239452,-0.048527587205171585
1751013971403597000,5.70559716796875,0.01227717287838459,-0.04856247454881668,-0.06953459978103638
1751013971413541000,5.715541015625,-0.00675377668812871,-0.07665962725877762,-0.07217112928628922
1751013971423484200,5.725484130859375,-0.01691346988081932,-0.07849694043397903,-0.053530070930719376
1751013971433428200,5.73542822265625,-0.01715368591248989,-0.05456950142979622,-0.02171461656689644
1751013971443372300,5.745372314453125,-0.012398346327245235,-0.016512664034962654,0.002624545246362686
1751013971453316000,5.755316162109375,0.006280532572418451,0.016111325472593307,0.014443919993937016
1751013971463259100,5.765259033203125,0.03479712828993797,0.049082059413194656,0.007475493010133505
1751013971473203200,5.775203125,0.06255339086055756,0.06396300345659256,-0.01872069016098976
1751013971483147300,5.785147216796875,0.08461315184831619,0.0682632103562355,-0.0394081249833107
1751013971493091000,5.795091064453125,0.0966586321592331,0.05690482631325722,-0.060143496841192245
1751013971503034000,5.8050341796875,0.08935171365737915,0.027753867208957672,-0.06959212571382523
1751013971512978200,5.814978271484375,0.0729016363620758,0.004278101958334446,-0.05059047415852547
1751013971522922200,5.824922119140625,0.058818574994802475,0.01215466670691967,-0.008831574581563473
1751013971532866300,5.8348662109375,0.0433911494910717,0.028719263151288033,0.03428633511066437
1751013971542809300,5.844809326171875,0.025476330891251564,0.03726135194301605,0.06570497900247574
1751013971552753200,5.854753173828125,0.015528892166912556,0.05113482475280762,0.07595016062259674
1751013971562697200,5.864697265625,0.01853640004992485,0.06628048419952393,0.07145261019468307
1751013971572641000,5.87464111328125,0.03184980899095535,0.07870519906282425,0.05596579611301422
1751013971582585000,5.884585205078125,0.043361321091651917,0.08604859560728073,0.034200847148895264
1751013971592528100,5.894528076171875,0.053709566593170166,0.1010160967707634,0.005901032127439976
1751013971602472200,5.90447216796875,0.061157628893852234,0.10908866673707962,-0.017477527260780334
1751013971612416300,5.914416259765625,0.05808807164430618,0.11141946911811829,-0.0303786788135767
1751013971622360300,5.9243603515625,0.053225938230752945,0.10626811534166336,-0.03227325156331062
1751013971632303400,5.934303466796875,0.04664153605699539,0.09358800947666168,-0.02040300890803337
1751013971642247200,5.9442470703125,0.033183254301548004,0.06798437982797623,-0.0024977787397801876
1751013971652191200,5.954191162109375,0.017739582806825638,0.03387487679719925,0.01829671487212181
1751013971662135000,5.964135009765625,0.0030660973861813545,0.0006833671359345317,0.04253600910305977
1751013971672078000,5.974078125,-0.006937001831829548,-0.02599697932600975,0.06178027763962746
1751013971682022100,5.984022216796875,-0.008206796832382679,-0.037103693932294846,0.07805272191762924
1751013971691966200,5.99396630859375,-0.0023425165563821793,-0.03713884577155113,0.07801543921232224
1751013971701910300,6.00391015625,-0.0015576828736811876,-0.028809543699026108,0.06685493141412735
1751013971711853300,6.013853271484375,-0.0052235242910683155,-0.012564794160425663,0.0421205572783947
1751013971721797000,6.023797119140625,0.00023089606838766485,0.010511763393878937,0.006624080706387758
1751013971731741200,6.0337412109375,0.003276220755651593,0.02502998523414135,-0.023977505043148994
1751013971741685200,6.043685302734375,0.006411293987184763,0.04240258410573006,-0.04511288180947304
1751013971751628300,6.053628173828125,0.0016192019684240222,0.0488429069519043,-0.05204242840409279
1751013971761572000,6.063572021484375,-0.00618039770051837,0.04415654391050339,-0.03880119323730469
1751013971771516200,6.07351611328125,-0.015725433826446533,0.03790370747447014,-0.011742942035198212
1751013971781460200,6.083460205078125,-0.028431640937924385,0.04435201734304428,0.023078953847289085
1751013971791403300,6.0934033203125,-0.03199388459324837,0.01986691541969776,0.04849056899547577
1751013971801347300,6.103347412109375,-0.04120522737503052,-0.011668906547129154,0.06441547721624374
1751013971811291100,6.113291015625,-0.049968890845775604,-0.03235634043812752,0.08679481595754623
1751013971821235200,6.123235107421875,-0.05495379492640495,-0.03851862996816635,0.10508380830287933
1751013971831178200,6.13317822265625,-0.05465925112366676,-0.031078023836016655,0.10531044006347656
1751013971841122000,6.1431220703125,-0.05326668173074722,-0.021976139396429062,0.09121113270521164
1751013971851066000,6.153066162109375,-0.04144491255283356,-0.003168362658470869,0.06352304667234421
1751013971861011000,6.163010986328125,-0.028068119660019875,0.019083678722381592,0.0276755690574646
1751013971870954000,6.1729541015625,-0.012999421916902065,0.03838946670293808,-0.006887200754135847
1751013971880898000,6.18289794921875,0.0032051142770797014,0.05020324885845184,-0.02550935372710228
1751013971890841900,6.192841796875,0.015586149878799915,0.06379389017820358,-0.02869769185781479
1751013971900786200,6.2027861328125,0.02786598540842533,0.07674750685691833,-0.01398692186921835
1751013971910729200,6.212729248046875,0.03428953140974045,0.08464990556240082,0.003950532991439104
1751013971920673000,6.222673095703125,0.03485971316695213,0.08721106499433517,0.014596253633499146
1751013971930617000,6.2326171875,0.028124311938881874,0.07432696223258972,0.010969826951622963
1751013971940561200,6.24256103515625,0.01315308641642332,0.04428330808877945,-0.007702394388616085
1751013971950504200,6.252504150390625,-0.003674895968288183,0.008101868443191051,-0.037889592349529266
1751013971960448000,6.262447998046875,-0.015679094940423965,-0.02309972606599331,-0.06635585427284241
1751013971970392000,6.27239208984375,-0.014491857029497623,-0.03829545900225639,-0.08309275656938553
1751013971980335900,6.2823359375,-0.005458681378513575,-0.04379994422197342,-0.08572103083133698
1751013971990279000,6.29227880859375,0.004597681108862162,-0.029440978541970253,-0.07610035687685013
1751013972000223200,6.30222314453125,0.018205901607871056,-0.009181780740618706,-0.05487443506717682
1751013972010167000,6.3121669921875,0.03287645801901817,0.018268752843141556,-0.02984151802957058
1751013972020111000,6.322111083984375,0.053042709827423096,0.03717746213078499,-0.0072991917841136456
1751013972030054100,6.33205419921875,0.07467823475599289,0.05107330530881882,0.017010143026709557
1751013972039998000,6.341998046875,0.08992376178503036,0.057189520448446274,0.03204794600605965
1751013972049942000,6.35194189453125,0.10430216789245605,0.057440657168626785,0.038242727518081665
1751013972059886000,6.361885986328125,0.105472631752491,0.04273068532347679,0.03225540742278099
1751013972069828900,6.371828857421875,0.09770631790161133,0.01932602748274803,0.03670262172818184
1751013972079773000,6.38177294921875,0.08240193128585815,-0.0060048955492675304,0.025530394166707993
1751013972089717200,6.39171728515625,0.05833015218377113,-0.0306340754032135,0.012841496616601944
1751013972099661000,6.4016611328125,0.03624109551310539,-0.05062589421868324,0.008126369677484035
1751013972109604000,6.41160400390625,0.01732785813510418,-0.047504402697086334,-0.0017451694002375007
1751013972119548200,6.421548095703125,0.020922059193253517,-0.027641480788588524,-0.012094213627278805
1751013972129492000,6.431491943359375,0.034928690642118454,0.004008323885500431,-0.018143316730856895
1751013972139436000,6.44143603515625,0.0469997338950634,0.04800667241215706,-0.011783156543970108
1751013972149379000,6.451379150390625,0.05814160034060478,0.08220246434211731,-0.0019739349372684956
1751013972159323000,6.461322998046875,0.05721082538366318,0.10068559646606445,0.013523265719413757
1751013972169267200,6.47126708984375,0.04832625389099121,0.10014177858829498,0.024707211181521416
1751013972179211300,6.481211181640625,0.03121917136013508,0.09025879204273224,0.0214200709015131
1751013972189154000,6.491154052734375,0.009238505735993385,0.06438031792640686,0.015192268416285515
1751013972199098000,6.50109814453125,-0.01775236614048481,0.025674469769001007,-0.0019156117923557758
1751013972209042200,6.511042236328125,-0.039868853986263275,-0.0008117315010167658,-0.009105880744755268
1751013972218986000,6.520986083984375,-0.07496878504753113,-0.01525698322802782,-0.027470506727695465
1751013972228929000,6.530928955078125,-0.10697651654481888,-0.024393489584326744,-0.056045692414045334
1751013972238873000,6.540873046875,-0.12438719719648361,-0.02388456091284752,-0.07992705702781677
1751013972248817000,6.55081689453125,-0.13351039588451385,-0.017251690849661827,-0.09876945614814758
1751013972258761200,6.56076123046875,-0.1256125122308731,-0.012222311459481716,-0.09786531329154968
1751013972268704300,6.570704345703125,-0.11987340450286865,0.0006269080913625658,-0.08247703313827515
1751013972278648000,6.58064794921875,-0.10424438118934631,0.009236641228199005,-0.05766249820590019
1751013972288592100,6.590592041015625,-0.08810402452945709,0.012854279950261116,-0.03104926273226738
1751013972298536000,6.600535888671875,-0.0669982060790062,0.023079486563801765,-0.00044900894863530993
1751013972308479000,6.61047900390625,-0.05438334867358208,0.02437644638121128,0.015094264410436153
1751013972318423000,6.620423095703125,-0.050701793283224106,0.018558237701654434,0.022791331633925438
1751013972328367000,6.6303671875,-0.05652559548616409,0.012228969484567642,0.005118595436215401
1751013972338311000,6.640310791015625,-0.062245000153779984,0.0034027209039777517,-0.022418756037950516
1751013972348254000,6.65025390625,-0.0667574554681778,-0.004083158448338509,-0.03443946689367294
1751013972358198300,6.6601982421875,-0.0718800500035286,-0.010057161562144756,-0.03955220431089401
1751013972368142000,6.67014208984375,-0.07307261228561401,-0.012809804640710354,-0.026460636407136917
1751013972378086100,6.680086181640625,-0.07602019608020782,-0.008254733867943287,-0.010507501661777496
1751013972388029200,6.690029296875,-0.07845459133386612,-0.001234641415067017,-0.00024447820032946765
1751013972397973000,6.699972900390625,-0.06726239621639252,0.004084490239620209,-0.005544967483729124
1751013972407917000,6.7099169921875,-0.04530063644051552,0.01930898241698742,-0.008814796805381775
1751013972417860900,6.71986083984375,-0.02526327781379223,0.034390464425086975,-0.015727031975984573
1751013972427804000,6.729803955078125,-0.0047260457649827,0.04923838749527931,-0.021018732339143753
1751013972437748000,6.739748046875,0.008378038182854652,0.053586795926094055,-0.025606559589505196
1751013972447692000,6.749692138671875,0.012376775033771992,0.04334427788853645,-0.028239095583558083
1751013972457636000,6.759635986328125,0.0004037352045997977,0.014819160103797913,-0.036081038415431976
1751013972467579100,6.7695791015625,-0.016498282551765442,-0.026208167895674706,-0.047212254256010056
1751013972477523200,6.779523193359375,-0.0377282053232193,-0.06766612827777863,-0.057977549731731415
1751013972487467000,6.789467041015625,-0.04842319339513779,-0.08850536495447159,-0.05408294126391411
1751013972497411000,6.7994111328125,-0.04511048644781113,-0.08934852480888367,-0.047809068113565445
1751013972507354000,6.80935400390625,-0.0243103988468647,-0.07398714125156403,-0.0360884964466095
1751013972517298000,6.8192978515625,0.007399060297757387,-0.04307370260357857,-0.015320898965001106
1751013972527242200,6.8292421875,0.03921664506196976,-0.017535850405693054,0.004739627707749605
1751013972537186000,6.83918603515625,0.06608181446790695,0.0022927154786884785,0.0310420710593462
1751013972547129000,6.849129150390625,0.08862387388944626,0.010494452901184559,0.05300409719347954
1751013972557073200,6.8590732421875,0.0985441505908966,0.0026375947054475546,0.0687393844127655
1751013972567017000,6.869016845703125,0.09990635514259338,-0.0033065807074308395,0.07235275954008102
1751013972576961000,6.8789609375,0.0950748473405838,-0.013290771283209324,0.07150933891534805
1751013972586904000,6.888904052734375,0.08589333295822144,-0.035656530410051346,0.06530363857746124
1751013972596848000,6.89884814453125,0.06333902478218079,-0.040345024317502975,0.05296867713332176
1751013972606792000,6.9087919921875,0.025741316378116608,-0.029584523290395737,0.021320467814803123
1751013972616736300,6.918736328125,0.0005107942852191627,-0.029531260952353477,-0.03401362523436546
1751013972626679300,6.92867919921875,-0.0016943031223490834,-0.03467116132378578,-0.0884808599948883
1751013972636623000,6.938623046875,0.007488276343792677,-0.034859977662563324,-0.123199962079525
1751013972646567200,6.948567138671875,0.010129333473742008,-0.04201695695519447,-0.12203429639339447
1751013972656511000,6.958510986328125,0.015664180740714073,-0.05504674091935158,-0.08121522516012192
1751013972666454000,6.9684541015625,0.025069667026400566,-0.059357065707445145,-0.014973622746765614
1751013972676398000,6.978398193359375,0.035355325788259506,-0.0417085662484169,0.05548909306526184
1751013972686342000,6.988341796875,0.04372963681817055,-0.022056566551327705,0.10498394072055817
1751013972696286000,6.998285888671875,0.05402887985110283,-0.0024176177103072405,0.11753807961940765
1751013972706229000,7.00822900390625,0.06439949572086334,0.02113085240125656,0.10110238194465637
1751013972716173000,7.018173095703125,0.07206753641366959,0.042219359427690506,0.05642199516296387
1751013972726117000,7.0281171875,0.06938572973012924,0.05823907256126404,0.0032314795535057783
1751013972736061200,7.038061279296875,0.06410228461027145,0.06021593511104584,-0.04249952360987663
1751013972746005000,7.0480048828125,0.04369741305708885,0.05786649510264397,-0.07775577902793884
1751013972755948000,7.057947998046875,0.016635434702038765,0.04397145286202431,-0.09215948730707169
1751013972765892000,7.06789208984375,-0.01092615071684122,0.022072546184062958,-0.08905716985464096
1751013972775836000,7.0778359375,-0.03556385263800621,0.008615858852863312,-0.07055512815713882
1751013972785780000,7.087780029296875,-0.0509694404900074,-0.000003728425554072601,-0.03262026235461235
1751013972795723000,7.097722900390625,-0.054959122091531754,-0.005271727219223976,0.00754952896386385
1751013972805667000,7.1076669921875,-0.05471863970160484,-0.0004854942671954632,0.04458397999405861
1751013972815611100,7.117611083984375,-0.04876327887177467,0.00743075180798769,0.06491641700267792
1751013972825555200,7.12755517578125,-0.038485340774059296,0.011687815189361572,0.07177778333425522
1751013972835498000,7.137498046875,-0.024454209953546524,0.01276000402867794,0.05018780380487442
1751013972845442000,7.147442138671875,-0.007950601167976856,0.013531255535781384,0.016709737479686737
1751013972855386000,7.15738623046875,0.001439971150830388,0.011538677848875523,-0.02238946221768856
1751013972865332500,7.16733251953125,0.007523430045694113,0.0035899411886930466,-0.05717780068516731
1751013972875276300,7.1772763671875,-0.011662514880299568,-0.0112824821844697,-0.094702810049057
1751013972885220400,7.187220458984375,-0.04422711580991745,-0.04333415627479553,-0.1356707513332367
1751013972895164200,7.1971640625,-0.09286043047904968,-0.07609796524047852,-0.157316654920578
1751013972905108500,7.2071083984375,-0.12510785460472107,-0.08570212125778198,-0.14535640180110931
1751013972915051500,7.217051513671875,-0.14038586616516113,-0.07884421199560165,-0.11161201447248459
1751013972924995300,7.226995361328125,-0.15493232011795044,-0.05889900401234627,-0.07991800457239151
1751013972934939400,7.236939453125,-0.14055870473384857,-0.039023298770189285,-0.04494297504425049
1751013972944883500,7.246883544921875,-0.10495198518037796,-0.011255051009356976,-0.01293470710515976
1751013972954826200,7.256826171875,-0.06745041161775589,0.013130183331668377,0.012381568551063538
1751013972964770300,7.266770263671875,-0.027963990345597267,0.030883613973855972,0.015225558541715145
1751013972974714400,7.27671435546875,0.0028280108235776424,0.02514743059873581,-0.011708321049809456
1751013972984658200,7.286658203125,0.02069675549864769,0.014042848721146584,-0.049243710935115814
1751013972994601200,7.296601318359375,0.03495638445019722,-0.0038839541375637054,-0.07765910774469376
1751013973004545500,7.306545654296875,0.04127420112490654,-0.016640229150652885,-0.08213827759027481
1751013973014489300,7.3164892578125,0.04489210620522499,-0.02419029176235199,-0.06394302845001221
1751013973024433400,7.326433349609375,0.04133598878979683,-0.016221581026911736,-0.024052338674664497
1751013973034376400,7.33637646484375,0.03786855190992355,-0.011058243922889233,0.017171263694763184
1751013973044320300,7.3463203125,0.032288163900375366,0.003022421384230256,0.05299397557973862
1751013973054264300,7.356264404296875,0.0346573144197464,0.01631612330675125,0.06725840270519257
1751013973064208400,7.36620849609375,0.04746392369270325,0.026620158925652504,0.06015947833657265
1751013973074151200,7.376151123046875,0.07157564908266068,0.028269721195101738,0.05311861261725426
1751013973084095200,7.38609521484375,0.08715540915727615,0.02804495021700859,0.03417528048157692
1751013973094039600,7.39603955078125,0.09235762804746628,0.0177619531750679,0.017665013670921326
1751013973103983400,7.4059833984375,0.08933494240045547,-0.002710032742470503,0.012410330586135387
1751013973113926400,7.415926513671875,0.0824621170759201,-0.02262355387210846,0.012822854332625866
1751013973123870500,7.425870361328125,0.07352002710103989,-0.04020201414823532,0.015810921788215637
1751013973133814300,7.435814208984375,0.0736345425248146,-0.043412454426288605,0.023625968024134636
1751013973143758300,7.44575830078125,0.08399876207113266,-0.03514973074197769,0.037451233714818954
1751013973153701400,7.455701416015625,0.09745252132415771,-0.012771189212799072,0.05582891032099724
1751013973163645200,7.465645263671875,0.10471762716770172,0.012261725962162018,0.06377977877855301
1751013973173589500,7.475589599609375,0.10803725570440292,0.03615294396877289,0.058452390134334564
1751013973183533300,7.485533203125,0.11932958662509918,0.05389119312167168,0.04090908169746399
1751013973193476400,7.495476318359375,0.12828020751476288,0.05228797346353531,0.02540229633450508
1751013973203420400,7.50542041015625,0.11956874281167984,0.03979108855128288,0.011336278170347214
1751013973213364500,7.515364501953125,0.10262837260961533,0.018982212990522385,0.005005677696317434
1751013973223308300,7.525308349609375,0.0839335173368454,0.008727977983653545,0.012779178097844124
1751013973233251300,7.535251220703125,0.06039463356137276,0.007220362313091755,0.02756771259009838
1751013973243195400,7.5451953125,0.04400474205613136,0.01582823134958744,0.041198570281267166
1751013973253139200,7.55513916015625,0.03880305588245392,0.024836640805006027,0.04692090302705765
1751013973263083500,7.56508349609375,0.03218616545200348,0.023457655683159828,0.03996951878070831
1751013973273026600,7.575026611328125,0.02732216753065586,0.011975436471402645,0.021222731098532677
1751013973282970400,7.584970458984375,0.020349746569991112,-0.006907440721988678,0.004224305972456932
1751013973292914400,7.59491455078125,0.009753028862178326,-0.02948492206633091,-0.013741911388933659
1751013973302858200,7.604858154296875,-0.004519384354352951,-0.0375702790915966,-0.008500809781253338
1751013973312801300,7.61480126953125,-0.026868632063269615,-0.030481476336717606,0.0031763522420078516
1751013973322745300,7.624745361328125,-0.04033197835087776,-0.009308280423283577,0.023965520784258842
1751013973332689400,7.634689453125,-0.0582561157643795,0.012686766684055328,0.03778120130300522
1751013973342633200,7.64463330078125,-0.08321606367826462,0.020613931119441986,0.01575845666229725
1751013973352576300,7.654576171875,-0.11539530009031296,0.04086940363049507,-0.05712214112281799
1751013973362520600,7.6645205078125,-0.1346195936203003,0.04219672083854675,-0.1626400500535965
1751013973372464400,7.67446435546875,-0.14143888652324677,0.031798142939805984,-0.26211151480674744
1751013973382408400,7.684408447265625,-0.1380971521139145,0.023208649829030037,-0.319044291973114
1751013973392352300,7.694352294921875,-0.13297376036643982,0.02141794003546238,-0.308920294046402
1751013973402295300,7.70429541015625,-0.1181492730975151,0.024625984951853752,-0.24339720606803894
1751013973412239400,7.7142392578125,-0.09651987999677658,0.0247277170419693,-0.139442577958107
1751013973422183200,7.72418310546875,-0.07311975210905075,0.01714170165359974,-0.023551931604743004
1751013973432127200,7.734127197265625,-0.06424636393785477,-0.0019313243683427572,0.07763194292783737
1751013973442070300,7.7440703125,-0.06558327376842499,-0.021816348657011986,0.1323801428079605
1751013973452014300,7.754014404296875,-0.06271717697381973,-0.03768426179885864,0.14341548085212708
1751013973461958400,7.76395849609375,-0.05104347690939903,-0.03531724587082863,0.12258610129356384
1751013973471902500,7.77390234375,-0.030950725078582764,-0.0193670392036438,0.08268848806619644
1751013973481845500,7.783845458984375,-0.019043199717998505,0.003156644757837057,0.027004452422261238
1751013973491789300,7.793789306640625,-0.02268720231950283,0.014971492812037468,-0.029760824516415596
1751013973501733400,7.8037333984375,-0.03235767409205437,0.014189322479069233,-0.07737628370523453
1751013973511677200,7.81367724609375,-0.05867636203765869,-0.005140433553606272,-0.10595892369747162
1751013973521620200,7.8236201171875,-0.08691944926977158,-0.036191027611494064,-0.11296383291482925
1751013973531564500,7.833564453125,-0.1087387278676033,-0.0541447289288044,-0.09581627696752548
1751013973541508400,7.84350830078125,-0.11068657040596008,-0.06460615992546082,-0.05247785523533821
1751013973551452400,7.853452392578125,-0.09601467847824097,-0.05784785374999046,0.0022564963437616825
1751013973561395500,7.8633955078125,-0.07525480538606644,-0.02804601565003395,0.03774285316467285
1751013973571339300,7.87333935546875,-0.04193653166294098,0.01883440837264061,0.04523565620183945
1751013973581283300,7.883283447265625,0.005650694947689772,0.060742974281311035,0.026675285771489143
1751013973591227400,7.893227294921875,0.039013978093862534,0.09515075385570526,-0.0007715177489444613
1751013973601170200,7.903170166015625,0.060866013169288635,0.11274652183055878,-0.041358623653650284
1751013973611114200,7.9131142578125,0.06926322728395462,0.10288749635219574,-0.07442948967218399
1751013973621058600,7.92305859375,0.06034563109278679,0.07247553020715714,-0.09196347743272781
1751013973631002400,7.93300244140625,0.0447099469602108,0.027705131098628044,-0.08627843111753464
1751013973640945400,7.9429453125,0.01564660482108593,-0.019787820056080818,-0.06599179655313492
1751013973650889500,7.952889404296875,-0.00637880340218544,-0.05968250334262848,-0.04230591282248497
1751013973660833300,7.962833251953125,-0.012138688005506992,-0.08891229331493378,-0.011506986804306507
1751013973670777300,7.97277734375,-0.008371380157768726,-0.09747862070798874,0.0030005834996700287
1751013973680720400,7.982720458984375,0.007225422188639641,-0.07386170327663422,0.01751561090350151
1751013973690664200,7.992664306640625,0.023076290264725685,-0.003808053908869624,0.004163053352385759
1751013973700608300,8.002608154296874,0.04830441623926163,0.06864723563194275,-0.0387955978512764
1751013973710552600,8.012552490234375,0.07694671303033829,0.1454421430826187,-0.10233276337385178
1751013973720495400,8.022495361328126,0.11059362441301346,0.20844028890132904,-0.1640446037054062
1751013973730439400,8.032439453125,0.13094763457775116,0.2493017017841339,-0.19161710143089294
1751013973740383500,8.042383544921876,0.13669206202030182,0.27412688732147217,-0.18146513402462006
1751013973750327300,8.052327392578125,0.13237881660461426,0.27527526021003723,-0.14086471498012543
1751013973760270300,8.062270263671875,0.11520009487867355,0.2495611011981964,-0.08364163339138031
1751013973770214400,8.07221435546875,0.09096559137105942,0.18851159512996674,-0.018331602215766907
1751013973780158200,8.082158203125,0.05582571402192116,0.10773498564958572,0.05505286529660225
1751013973790102300,8.092102294921874,0.008461128920316696,0.031799476593732834,0.12547749280929565
1751013973800046300,8.10204638671875,-0.04205477610230446,-0.022603578865528107,0.15966954827308655
1751013973809989400,8.1119892578125,-0.07422629743814468,-0.05513302609324455,0.16056065261363983
1751013973819933400,8.121933349609375,-0.0675918236374855,-0.0562472939491272,0.1307433694601059
1751013973829877500,8.13187744140625,-0.04424069821834564,-0.039091743528842926,0.08654208481311798
1751013973839821300,8.1418212890625,-0.024527713656425476,-0.016887636855244637,0.04168592765927315
1751013973849764400,8.151764404296875,-0.018316689878702164,0.0006343649583868682,0.0019092201255261898
1751013973859708400,8.16170849609375,-0.01678190939128399,0.006874417886137962,-0.023024892434477806
1751013973869648600,8.171648681640624,-0.006600378546863794,-0.0004308994684834033,-0.03407328203320503
1751013973879592700,8.1815927734375,0.001315068919211626,-0.011515242047607899,-0.04903252422809601
1751013973889535700,8.19153564453125,0.008899752050638199,-0.029517678543925285,-0.06517288088798523
1751013973899479600,8.2014794921875,0.0055215316824615,-0.0427866131067276,-0.09272008389234543
1751013973909423600,8.211423583984375,-0.01218902226537466,-0.06713802367448807,-0.13673627376556396
1751013973919367700,8.22136767578125,-0.031005585566163063,-0.09829940646886826,-0.18117883801460266
1751013973929310700,8.231310791015625,-0.03700142726302147,-0.12224841117858887,-0.1979176104068756
1751013973939254800,8.2412548828125,-0.03428154066205025,-0.1307833194732666,-0.1776815801858902
1751013973949198800,8.25119873046875,-0.030553381890058517,-0.14636386930942535,-0.13504649698734283
1751013973959142700,8.261142578125,-0.028919266536831856,-0.14850717782974243,-0.07811877131462097
1751013973969085700,8.271085693359375,-0.01732759177684784,-0.13867878913879395,-0.028320055454969406
1751013973979029800,8.28102978515625,0.007803861051797867,-0.1253288984298706,0.016687899827957153
1751013973988973600,8.2909736328125,0.027837490662932396,-0.10320574790239334,0.046834882348775864
1751013973998917600,8.300917724609375,0.04482579603791237,-0.08321046829223633,0.053338855504989624
1751013974008860700,8.310860595703126,0.05218730494379997,-0.06335979700088501,0.05068794637918472
1751013974018804700,8.3208046875,0.055313590914011,-0.03817295283079147,0.041189514100551605
1751013974028748800,8.330748779296876,0.056543704122304916,-0.018124675378203392,0.024563666433095932
1751013974038692600,8.340692626953125,0.0406733937561512,-0.02353515289723873,-0.005548163317143917
1751013974048635600,8.3506357421875,0.016747821122407913,-0.05293085798621178,-0.04572753980755806
1751013974058579700,8.360579833984374,-0.006727410946041346,-0.0650559663772583,-0.07837709784507751
1751013974068523500,8.3705234375,-0.0014950985787436366,-0.0619315430521965,-0.09258639067411423
1751013974078467600,8.380467529296874,0.004156661685556173,-0.04036633297801018,-0.11723767966032028
1751013974088410600,8.39041064453125,0.016171246767044067,-0.02014734596014023,-0.13238707184791565
1751013974098354700,8.400354736328126,0.027454527094960213,-0.007906658574938774,-0.13221609592437744
1751013974108298800,8.410298828125,0.029628200456500053,-0.005762547720223665,-0.11127379536628723
1751013974118242800,8.420242919921876,0.014873221516609192,0.0067780110985040665,-0.07264917343854904
1751013974128185900,8.430185791015624,0.005403553601354361,0.01769936829805374,-0.033721476793289185
1751013974138129700,8.440129638671875,-0.001407480682246387,0.009402822703123093,-0.008619853295385838
1751013974148073700,8.45007373046875,0.011052118614315987,0.015322763472795486,0.011943211778998375
1751013974158017500,8.460017578125,0.033915888518095016,0.0343683585524559,0.01913534477353096
1751013974167961600,8.469961669921876,0.05907423794269562,0.04386412724852562,0.002469282830134034
1751013974177904600,8.479904541015625,0.07775471359491348,0.04373789206147194,-0.031009048223495483
1751013974187848700,8.4898486328125,0.09110833704471588,0.04115116596221924,-0.057618554681539536
1751013974197792800,8.499792724609375,0.09626821428537369,0.04069549962878227,-0.07333413511514664
1751013974207736800,8.50973681640625,0.09360717982053757,0.03218456730246544,-0.07281668484210968
1751013974217679600,8.5196796875,0.08598920702934265,0.020068250596523285,-0.05326268821954727
1751013974227623700,8.529623779296875,0.08254680782556534,0.005049353465437889,-0.02684492990374565
1751013974237567700,8.539567626953126,0.07322388142347336,-0.01612597331404686,-0.0008082693675532937
1751013974247511600,8.549511474609375,0.06289268285036087,-0.046313170343637466,0.01847488060593605
1751013974257454600,8.55945458984375,0.057069942355155945,-0.06300559639930725,0.035715918987989426
1751013974267398700,8.569398681640624,0.054374292492866516,-0.06797479093074799,0.04838217794895172
1751013974277342700,8.5793427734375,0.05553223565220833,-0.05867130309343338,0.04758243262767792
1751013974287286800,8.589286865234374,0.05601826310157776,-0.0457158237695694,0.026281405240297318
1751013974297229800,8.599229736328125,0.064387246966362,-0.028121650218963623,-0.004081294406205416
1751013974307173600,8.609173583984376,0.08087966591119766,-0.0002950782363768667,-0.039678435772657394
1751013974317117700,8.61911767578125,0.08728963136672974,0.017108412459492683,-0.06166522949934006
1751013974327061800,8.629061767578126,0.08219020813703537,0.02652561664581299,-0.06885016709566116
1751013974337004500,8.639004638671874,0.06570231169462204,0.02311517298221588,-0.05269703269004822
1751013974346948600,8.648948486328125,0.046788278967142105,0.01979181356728077,-0.03296460956335068
1751013974356892700,8.658892578125,0.026153041049838066,0.022536467760801315,-0.010364224202930927
1751013974366836700,8.668836669921875,0.01311952993273735,0.015108644962310791,0.0008175904513336718
1751013974376779800,8.67877978515625,-0.0030487868934869766,0.006884803995490074,0.0023188143968582153
1751013974386723800,8.688723876953125,-0.010151437483727932,0.011998605914413929,-0.00947898905724287
1751013974396667600,8.698667724609376,-0.016266854479908943,0.015809057280421257,-0.030296120792627335
1751013974406611700,8.70861181640625,-0.01828845962882042,0.020485566928982735,-0.05041363835334778
1751013974416554800,8.7185546875,-0.02195536531507969,0.03524640575051308,-0.05522890016436577
1751013974426498600,8.72849853515625,-0.025419605895876884,0.046072155237197876,-0.049848515540361404
1751013974436442600,8.738442626953125,-0.028561070561408997,0.0533609576523304,-0.04328116029500961
1751013974446386700,8.74838671875,-0.035346273332834244,0.0500679612159729,-0.03693804517388344
1751013974456329500,8.75832958984375,-0.039262983947992325,0.05197291821241379,-0.03916604444384575
1751013974466273800,8.768273681640625,-0.04784981533885002,0.04482712596654892,-0.04858165234327316
1751013974476217900,8.7782177734375,-0.04867033287882805,0.03305409103631973,-0.05196892470121384
1751013974486161700,8.78816162109375,-0.043899547308683395,0.02683800645172596,-0.045406363904476166
1751013974496105700,8.798105712890624,-0.04315546154975891,0.021618209779262543,-0.030039392411708832
1751013974506048800,8.808048828125,-0.04532806575298309,0.019168101251125336,-0.016629576683044434
1751013974515992600,8.81799267578125,-0.04165636748075485,0.020062657073140144,-0.002609098795801401
1751013974525936600,8.8279365234375,-0.03238803520798683,0.029642047360539436,-0.008045143447816372
1751013974535880700,8.837880615234376,-0.017461813986301422,0.03737586736679077,-0.032408274710178375
1751013974545823500,8.847823486328124,-0.003945473115891218,0.039205458015203476,-0.052446961402893066
1751013974555767800,8.857767822265625,0.011592473834753036,0.04549611359834671,-0.061969093978405
1751013974565711600,8.867711669921874,0.015272163785994053,0.044079042971134186,-0.053588394075632095
1751013974575655700,8.87765576171875,0.023503994569182396,0.03533615171909332,-0.03202717378735542
1751013974585598700,8.8875986328125,0.02058463729918003,0.028137095272541046,-0.000362988852430135
1751013974595542800,8.897542724609375,0.011128817684948444,0.01852601394057274,0.027947744354605675
1751013974605486600,8.907486572265626,0.0012373046483844519,0.0016223976854234934,0.03760649636387825
1751013974615430700,8.9174306640625,-0.006135124247521162,-0.006711432244628668,0.04182201623916626
1751013974625373700,8.927373779296875,-0.021266406401991844,-0.013311810791492462,0.024506142362952232
1751013974635317800,8.93731787109375,-0.032348085194826126,-0.00974530540406704,-0.008992696180939674
1751013974645261800,8.94726171875,-0.03243596851825714,0.0003275688213761896,-0.040757548063993454
1751013974655205600,8.95720556640625,-0.017888186499476433,0.012740029953420162,-0.053168945014476776
1751013974665148700,8.967148681640625,-0.0029411951545625925,0.04165050759911537,-0.04346252232789993
1751013974675092700,8.9770927734375,0.010782606899738312,0.0722278580069542,-0.018870094791054726
1751013974685036500,8.98703662109375,0.03291667252779007,0.08840629458427429,0.009363408200442791
1751013974694980600,8.996980712890625,0.040885381400585175,0.08899006247520447,0.02774880640208721
1751013974704923600,9.006923583984374,0.03635241463780403,0.08452314138412476,0.03134061023592949
1751013974714867700,9.01686767578125,0.03387407585978508,0.0625816211104393,0.021914087235927582
1751013974724811800,9.026811767578126,0.022659773007035255,0.02881992980837822,0.005387841258198023
1751013974734755800,9.036755859375,0.002031725598499179,-0.005868807900696993,-0.008417719043791294
1751013974744699000,9.046698974609376,-0.019061841070652008,-0.034997932612895966,-0.010201770812273026
1751013974754642700,9.056642578125,-0.03860970959067345,-0.051471445709466934,-0.0014692660188302398
1751013974764586800,9.066586669921875,-0.051605403423309326,-0.04710705950856209,0.016038620844483376
1751013974774530600,9.076530517578124,-0.051119908690452576,-0.033368874341249466,0.028740834444761276
1751013974784473600,9.0864736328125,-0.04062545672059059,-0.0013038836186751723,0.03985314071178436
1751013974794417700,9.096417724609376,-0.024705080315470695,0.03219948336482048,0.03937137499451637
1751013974804361500,9.106361572265625,-0.004006193019449711,0.06471747905015945,0.028921131044626236
1751013974814305800,9.116305908203126,0.01750362664461136,0.08920284360647202,0.00830773077905178
1751013974824249900,9.126249755859375,0.02582627162337303,0.10650194436311722,-0.005065864883363247
1751013974834192600,9.136192626953125,0.029992520809173584,0.10877974331378937,-0.013788782991468906
1751013974844136700,9.14613671875,0.01387160737067461,0.09408069401979446,-0.01467801257967949
1751013974854080800,9.156080810546875,-0.010758638381958008,0.07011464238166809,-0.019835490733385086
1751013974864024600,9.166024658203124,-0.0425458624958992,0.03386368975043297,-0.024272317066788673
1751013974873967600,9.175967529296875,-0.07074447721242905,0.01528734341263771,-0.024479510262608528
1751013974883911700,9.18591162109375,-0.0913296490907669,-0.0012266519479453564,-0.021327126771211624
1751013974893855500,9.19585546875,-0.0998472347855568,-0.0017214673571288586,-0.009415339678525925
1751013974903799800,9.2057998046875,-0.09311822801828384,0.006392651703208685,0.0010418286547064781
1751013974913742800,9.215742919921874,-0.0769839957356453,0.02262914553284645,0.015975238755345345
1751013974923686700,9.225686767578125,-0.06010541319847107,0.03536997362971306,0.02743987925350666
1751013974933630700,9.235630615234374,-0.04201296344399452,0.036200881004333496,0.02761138789355755
1751013974943574800,9.24557470703125,-0.03302053362131119,0.03869812563061714,0.013760020956397057
1751013974953517600,9.255517578125,-0.030890271067619324,0.04084490239620209,0.00009161273919744417
1751013974963461600,9.265461669921875,-0.026583407074213028,0.04631849750876427,-0.012204468250274658
1751013974973405700,9.27540576171875,-0.030057501047849655,0.04508332163095474,-0.02737276814877987
1751013974983349800,9.285349853515624,-0.029683327302336693,0.04525083675980568,-0.03627864643931389
1751013974993292800,9.295292724609375,-0.026369288563728333,0.03879879415035248,-0.030655646696686745
1751013975003236900,9.30523681640625,-0.026133066043257713,0.024449417367577553,-0.01997397467494011
1751013975013180700,9.3151806640625,-0.02853337489068508,0.006962568499147892,-0.0023395870812237263
1751013975023124700,9.325124755859376,-0.03798280283808708,0.010962902568280697,0.01810949482023716
1751013975033067800,9.33506787109375,-0.040649425238370895,0.01461889035999775,0.03121970407664776
1751013975043011600,9.345011474609375,-0.041253428906202316,0.015283082611858845,0.03717346861958504
1751013975052955600,9.35495556640625,-0.04728921875357628,0.01404790859669447,0.03555639460682869
1751013975062899700,9.364899658203125,-0.05077875778079033,0.017182448878884315,0.025070998817682266
1751013975072842500,9.374842529296876,-0.05107703432440758,0.021346034482121468,0.012796488590538502
1751013975082786800,9.384786865234375,-0.04434243217110634,0.0355587936937809,-0.00046578687033616006
1751013975092731000,9.39473095703125,-0.03338751941919327,0.04282496124505997,-0.008595884777605534
1751013975102674700,9.4046748046875,-0.02804921194911003,0.04836220666766167,-0.007888549007475376
1751013975112617700,9.41461767578125,-0.024896562099456787,0.08215212821960449,-0.00013262542779557407
1751013975122561800,9.424561767578124,-0.01751348003745079,0.08944093436002731,-0.0005126585019752383
1751013975132505600,9.434505615234375,-0.01589374616742134,0.07359778881072998,-0.003200586885213852
1751013975142449700,9.44444970703125,-0.012950419448316097,0.05375057831406593,-0.0027885958552360535
1751013975152393500,9.4543935546875,-0.00974583812057972,0.06011952832341194,0.009631055407226086
1751013975162336500,9.46433642578125,-0.0010759170399978757,0.0653262734413147,0.014258830808103085
1751013975172280800,9.47428076171875,0.005318332463502884,0.06234246864914894,0.007525560446083546
1751013975182224600,9.484224609375,0.0024868599139153957,0.05746196210384369,-0.007802529260516167
1751013975192168700,9.494168701171875,-0.006166016682982445,0.06059330701828003,-0.03201599046587944
1751013975202111700,9.50411181640625,-0.00412417110055685,0.06337923556566238,-0.050757985562086105
1751013975212055800,9.514055908203124,-0.0008024104172363877,0.06199945509433746,-0.06737398356199265
1751013975221999600,9.52399951171875,-0.0018929748330265284,0.05163602903485298,-0.07358713448047638
1751013975231943700,9.533943603515626,-0.004176635295152664,0.04334267973899841,-0.05956612527370453
1751013975241886700,9.54388671875,-0.001776328426785767,0.03008759394288063,-0.03852608799934387
1751013975251830500,9.55383056640625,0.0022005699574947357,0.022658441215753555,-0.003787015099078417
1751013975261774800,9.56377490234375,0.0014088122406974435,0.020774254575371742,0.025008413940668106
1751013975271718700,9.57371875,0.003186205867677927,0.015811454504728317,0.04175250604748726
1751013975281661700,9.58366162109375,-0.004976116586476564,0.014105166308581829,0.04066220670938492
1751013975291605800,9.593605712890625,-0.006661897525191307,0.014023407362401485,0.032935578376054764
1751013975301549600,9.603549560546876,-0.008202003315091133,0.027241474017500877,0.012563728727400303
1751013975311493600,9.61349365234375,-0.005438441410660744,0.033235449343919754,-0.005356681998819113
1751013975321436700,9.623436767578125,-0.005240302067250013,0.03217950835824013,-0.02526247873902321
1751013975331380500,9.63338037109375,-0.001517202821560204,0.02430933341383934,-0.04409342631697655
1751013975341324800,9.64332470703125,0.002960103563964367,0.02658900059759617,-0.03476996347308159
1751013975351268900,9.653268798828124,0.005508216097950935,0.02846572920680046,-0.02010473608970642
1751013975361212000,9.6632119140625,0.004792624618858099,0.03424904868006706,-0.0017622136510908604
1751013975371155700,9.67315576171875,0.002626675646752119,0.030649255961179733,0.008770322427153587
1751013975381099800,9.683099853515625,-0.0031286815647035837,0.027950674295425415,0.014329670928418636
1751013975391043600,9.693043701171876,-0.005775064695626497,0.031191742047667503,0.007102117873728275
1751013975400986600,9.702986572265624,-0.013103284873068333,0.026440395042300224,-0.008557269349694252
1751013975410930700,9.7129306640625,-0.024035029113292694,0.01848180592060089,-0.03188150003552437
1751013975420874500,9.72287451171875,-0.030736606568098068,0.00908430851995945,-0.03885312378406525
1751013975430818800,9.73281884765625,-0.03646453469991684,0.0026647590566426516,-0.03446263447403908
1751013975440761900,9.742761962890626,-0.0409381128847599,-0.0009134642314165831,-0.023028353229165077
1751013975450705700,9.75270556640625,-0.041313085705041885,-0.0017752632265910506,-0.001255680457688868
1751013975460649700,9.762649658203125,-0.036433909088373184,0.0038101845420897007,0.02003522776067257
1751013975470593800,9.77259375,-0.029530195519328117,0.012201272882521152,0.03274649381637573
1751013975480537600,9.78253759765625,-0.02262861281633377,0.027760257944464684,0.03409591689705849
1751013975490480600,9.792480712890624,-0.012898754328489304,0.045213550329208374,0.026136528700590134
1751013975500424700,9.8024248046875,-0.004671450704336166,0.05398334190249443,-0.000041545314161339775
1751013975510368500,9.812368408203126,-0.008393218740820885,0.05277799442410469,-0.03262558579444885
1751013975520312800,9.822312744140625,-0.013368003070354462,0.04676217958331108,-0.06331239640712738
1751013975530256000,9.832255859375,-0.015923839062452316,0.03794871270656586,-0.0840190052986145
1751013975540199700,9.84219970703125,-0.02612427808344364,0.022164957597851753,-0.07950840890407562
1751013975550143700,9.852143798828125,-0.027591681107878685,0.008763930760324001,-0.06203167885541916
1751013975560087800,9.862087890625,-0.03003193438053131,0.0021046961192041636,-0.021192636340856552
1751013975570030600,9.872030517578125,-0.026790602132678032,-0.0041792988777160645,0.024828916415572166
1751013975579974700,9.881974609375,-0.023737287148833275,-0.011232414282858372,0.058230284601449966
1751013975589918700,9.891918701171875,-0.025957297533750534,-0.009514142759144306,0.0714278444647789
1751013975599862500,9.901862548828126,-0.03032301738858223,-0.0001174454009742476,0.05431836470961571
1751013975609805600,9.9118056640625,-0.02262461930513382,0.021099425852298737,0.015630891546607018
1751013975619750000,9.92175,-0.003882089862599969,0.029802370816469193,-0.026147713884711266
1751013975629693700,9.931693603515624,-0.03479073569178581,0.013575197197496891,-0.06856600940227509
1751013975639637800,9.9416376953125,-0.08226610720157623,-0.025166340172290802,-0.0975172370672226
1751013975649580800,9.951580810546876,-0.05774505436420441,-0.045995455235242844,-0.09322342276573181
1751013975659524600,9.961524658203125,-0.036790769547224045,-0.037396639585494995,-0.08622436970472336
1751013975669468700,9.97146875,-0.02677435614168644,-0.038217693567276,-0.07421457767486572
1751013975679412500,9.98141259765625,-0.019890084862709045,-0.04015514254570007,-0.05133722350001335
1751013975689355500,9.99135546875,-0.022299712523818016,-0.04015541076660156,-0.009178584441542625
1751013975699299600,10.001299560546874,-0.036253612488508224,-0.03259735926985741,0.0360589362680912
1751013975709243600,10.01124365234375,-0.06456221640110016,0.01683783531188965,0.07314478605985641
1751013975719187700,10.021187744140626,-0.07967512309551239,0.09042896330356598,0.08838046342134476
1751013975729130800,10.031130859375,-0.06120210513472557,0.16177824139595032,0.07449953258037567
1751013975739074800,10.04107470703125,-0.01607084460556507,0.21324357390403748,0.035236019641160965
1751013975749018600,10.0510185546875,0.03201279416680336,0.24468085169792175,-0.023137809708714485
1751013975758962700,10.060962646484375,0.07178444415330887,0.24507154524326324,-0.07783860713243484
1751013975768905700,10.07090576171875,0.09155654907226562,0.2230149656534195,-0.11306051164865494
1751013975778849500,10.080849609375,0.09448469430208206,0.18722660839557648,-0.11759454011917114
1751013975788793900,10.0907939453125,0.07186966389417648,0.14339710772037506,-0.10039051622152328
1751013975798737700,10.100737548828125,0.038964178413152695,0.10315195471048355,-0.0727732703089714
1751013975808680700,10.1106806640625,0.007502124644815922,0.06528286635875702,-0.035411253571510315
1751013975818624800,10.120624755859374,-0.021343370899558067,0.03687066584825516,0.0013470269041135907
1751013975828568600,10.130568603515625,-0.03955087065696716,0.01044305320829153,0.0358797051012516
1751013975838512600,10.1405126953125,-0.05131405219435692,-0.01654142513871193,0.06509830802679062
1751013975848456700,10.150456787109375,-0.05066370964050293,-0.03037974424660206,0.0913538783788681
1751013975858399700,10.160399658203126,-0.03677692264318466,-0.02744866907596588,0.11426132917404175
1751013975868343300,10.17034326171875,-0.014955513179302216,-0.019039470702409744,0.13299906253814697
1751013975878287600,10.18028759765625,0.00196434766985476,-0.006280266214162111,0.13362330198287964
1751013975888231400,10.1902314453125,0.009110141545534134,0.009898170828819275,0.11402350664138794
1751013975898174500,10.200174560546875,0.013637514784932137,0.026252109557390213,0.08030735701322556
1751013975908118500,10.210118408203124,0.02002990059554577,0.03984088823199272,0.039208389818668365
1751013975918062300,10.220062255859375,0.028908081352710724,0.04699467122554779,0.00028389296494424343
1751013975928006400,10.23000634765625,0.032949693500995636,0.048050884157419205,-0.027353061363101006
1751013975937949400,10.239949462890625,0.029436718672513962,0.04669666662812233,-0.043721381574869156
1751013975947893500,10.2498935546875,0.02713787741959095,0.028909945860505104,-0.040880586951971054
1751013975957837300,10.25983740234375,0.02123498171567917,0.009786850772798061,-0.020066119730472565
1751013975967781600,10.26978173828125,0.014576812274754047,-0.01834891363978386,0.011609251610934734
1751013975977724700,10.279724609375,0.0008735168376006186,-0.04367264732718468,0.04236876219511032
1751013975987668500,10.28966845703125,-0.010584733448922634,-0.05931871756911278,0.06615132093429565
1751013975997612500,10.299612548828126,-0.014283598400652409,-0.06858119368553162,0.07909295707941055
1751013976007556400,10.309556396484375,-0.014070278964936733,-0.06939078867435455,0.07134635001420975
1751013976017499400,10.31949951171875,-0.010851848870515823,-0.08364562690258026,0.04361911490559578
1751013976027443500,10.329443359375,-0.009244897402822971,-0.09995242953300476,0.011897671967744827
1751013976037387300,10.33938720703125,0.001630120910704136,-0.08184906095266342,-0.009979663416743279
1751013976047331300,10.349331298828124,0.021315142512321472,-0.055439822375774384,-0.018510300666093826
1751013976057274400,10.3592744140625,0.04108591750264168,-0.03454306349158287,-0.01085664238780737
1751013976067218400,10.369218505859376,0.05385870486497879,-0.019035477191209793,0.001561944023706019
1751013976077162500,10.37916259765625,0.06424583494663239,-0.008554605767130852,0.010660633444786072
1751013976087106600,10.3891064453125,0.06773270666599274,-0.013470801524817944,0.012373312376439571
1751013976097049600,10.399049560546874,0.05727074667811394,-0.02521108090877533,0.00800439715385437
1751013976106993400,10.408993408203125,0.038962844759225845,-0.03696414455771446,0.00729466462507844
1751013976116937500,10.4189375,0.018061557784676552,-0.040118925273418427,0.0009166600648313761
1751013976126881300,10.42888134765625,0.0018229337874799967,-0.031745146960020065,0.006423011887818575
1751013976136824300,10.43882421875,-0.016031431034207344,-0.0043651871383190155,0.0060384515672922134
1751013976146768400,10.448768310546875,-0.02231462672352791,0.021522069349884987,0.0039023298304528
1751013976156712400,10.45871240234375,-0.0189617071300745,0.03316754102706909,-0.00010412959818495438
1751013976166656500,10.468656494140625,-0.013515009544789791,0.040427315980196,-0.0034147051628679037
1751013976176599600,10.478599609375,-0.005532717332243919,0.054183609783649445,0.0041033984161913395
1751013976186543400,10.48854345703125,-0.009426791220903397,0.05764758214354515,0.015301458537578583
1751013976196487400,10.4984873046875,-0.019402192905545235,0.04758136719465256,0.014788267202675343
1751013976206431500,10.508431396484376,-0.03257099166512489,0.028017519041895866,-0.0020274645648896694
1751013976216375300,10.518375244140625,-0.03221333026885986,0.016272446140646935,-0.00948085356503725
1751013976226318300,10.528318359375,-0.02334340661764145,0.004625111818313599,-0.017545437440276146
1751013976236262400,10.538262451171875,-0.01810896210372448,-0.0014484933344647288,-0.0187236201018095
1751013976246206500,10.54820654296875,-0.011448662728071213,-0.0012514194240793586,-0.013063337653875351
1751013976256150500,10.558150634765624,-0.004591023549437523,0.0038978024385869503,-0.0026106967125087976
1751013976266093600,10.568093505859375,-0.0004271710349712521,0.005154814571142197,0.005509813781827688
1751013976276037400,10.578037353515626,-0.000319845654303208,0.008735700510442257,0.006999586243182421
1751013976285981400,10.5879814453125,-0.003468234557658434,0.012621252797544003,-0.0065130265429615974
1751013976295925500,10.597925537109376,-0.003020024625584483,0.027342142537236214,-0.029512884095311165
1751013976305868300,10.607868408203124,0.006598247680813074,0.041674207895994186,-0.054424360394477844
1751013976315812400,10.617812255859375,0.014150173403322697,0.04703541845083237,-0.0738619714975357
1751013976325756700,10.627756591796874,0.020546020939946175,0.03948508948087692,-0.08459637314081192
1751013976335700500,10.637700439453125,0.014846590347588062,0.03698624670505524,-0.08567096292972565
1751013976345643500,10.6476435546875,0.014638330787420273,0.034998998045921326,-0.08277397602796555
1751013976355587600,10.657587646484375,0.012888634577393532,0.033959031105041504,-0.06487513333559036
1751013976365531400,10.667531494140626,0.012492089532315731,0.025189775973558426,-0.04306331276893616
1751013976375475500,10.677475341796875,0.004425374791026115,0.018434667959809303,-0.027513382956385612
1751013976385418500,10.68741845703125,0.0037031255196779966,0.018392056226730347,0.0017212009988725185
1751013976395362300,10.6973623046875,0.0078102522529661655,0.018378740176558495,0.0163054708391428
1751013976405306400,10.707306396484375,0.0226826760917902,0.02238280326128006,0.03316381201148033
1751013976415250400,10.71725048828125,0.032703086733818054,0.02015027590095997,0.028487300500273705
1751013976425193500,10.727193359375,0.02971821464598179,0.01997157745063305,0.010241984389722347
1751013976435137500,10.737137451171876,0.022661635652184486,0.013275858014822006,-0.029281456023454666
1751013976445081600,10.74708154296875,0.018257301300764084,0.015182681381702423,-0.057186055928468704
1751013976455025400,10.757025390625,0.016770990565419197,0.0262430552393198,-0.06737317889928818
1751013976464968400,10.766968505859374,0.022480275481939316,0.04123478755354881,-0.054009437561035156
1751013976474912500,10.77691259765625,0.01740029640495777,0.06000261753797531,-0.04398556798696518
1751013976484856300,10.786856201171876,0.017401892691850662,0.07997472584247589,-0.04332004487514496
1751013976494800400,10.79680029296875,0.03038240596652031,0.09532465785741806,-0.04880455881357193
1751013976504743400,10.806743408203126,0.0333840548992157,0.10661086440086365,-0.05788353830575943
1751013976514687500,10.8166875,0.020773455500602722,0.12477468699216843,-0.058212704956531525
1751013976524631600,10.826631591796875,0.010609234683215618,0.1376982033252716,-0.04903891682624817
1751013976534575400,10.836575439453124,0.013670804910361767,0.13325393199920654,-0.030645793303847313
1751013976544519400,10.84651953125,0.010042513720691204,0.16952671110630035,0.042440932244062424
1751013976554462500,10.85646240234375,-0.01625034213066101,0.1640312820672989,0.1373932808637619
1751013976564406300,10.86640625,-0.04283082112669945,0.03711008280515671,0.14316993951797485
1751013976574350300,10.876350341796876,-0.04416559636592865,-0.043544549494981766,0.1096617802977562
1751013976584294700,10.886294677734375,-0.034859977662563324,-0.07782529294490814,0.054483480751514435
1751013976594237400,10.896237548828125,-0.03249083086848259,-0.0878899097442627,-0.02748754993081093
1751013976604181500,10.906181396484374,-0.02509842813014984,-0.06656944006681442,-0.09939929097890854
1751013976614125600,10.91612548828125,-0.011095527559518814,-0.030770961195230484,-0.15732410550117493
1751013976624069400,10.9260693359375,0.013201821595430374,-0.012998889200389385,-0.19009749591350555
1751013976634012400,10.936012451171875,0.03009079024195671,0.004002997186034918,-0.18991081416606903
1751013976643956500,10.94595654296875,0.028112327679991722,0.024217721074819565,-0.14295688271522522
