time,seconds_elapsed,z,y,x
1751013699614557700,0.1285576171875,-0.9729156494140625,-0.250885009765625,0.0403289794921875
1751013699624501800,0.138501708984375,-0.9779510498046875,-0.250579833984375,0.0387420654296875
1751013699634444800,0.14844482421875,-0.9780731201171875,-0.2525177001953125,0.0394287109375
1751013699644388600,0.158388671875,-0.9768218994140625,-0.2531280517578125,0.045013427734375
1751013699654331600,0.16833154296875,-0.9777679443359375,-0.25421142578125,0.049896240234375
1751013699664275700,0.178275634765625,-0.9769744873046875,-0.2526092529296875,0.0543060302734375
1751013699674218800,0.18821875,-0.97320556640625,-0.25201416015625,0.054779052734375
1751013699684161500,0.19816162109375,-0.9710235595703125,-0.2539520263671875,0.0540618896484375
1751013699694105600,0.208105712890625,-0.9713592529296875,-0.2552032470703125,0.0502166748046875
1751013699704048600,0.218048583984375,-0.9723968505859375,-0.258056640625,0.04931640625
1751013699713992700,0.22799267578125,-0.9712371826171875,-0.260986328125,0.04925537109375
1751013699723935500,0.237935546875,-0.974945068359375,-0.26055908203125,0.048858642578125
1751013699733879600,0.247879638671875,-0.9802398681640625,-0.2593841552734375,0.04840087890625
1751013699743822600,0.257822509765625,-0.98028564453125,-0.260040283203125,0.049652099609375
1751013699753765600,0.267765625,-0.9791107177734375,-0.26300048828125,0.0497894287109375
1751013699763709400,0.27770947265625,-0.981414794921875,-0.2656707763671875,0.0484771728515625
1751013699773652500,0.287652587890625,-0.978515625,-0.2660064697265625,0.048095703125
1751013699783596500,0.297596435546875,-0.9759979248046875,-0.26385498046875,0.0474090576171875
1751013699793539600,0.30753955078125,-0.975830078125,-0.2645111083984375,0.05255126953125
1751013699803483600,0.317483642578125,-0.9756927490234375,-0.2683868408203125,0.057220458984375
1751013699813426700,0.3274267578125,-0.9766845703125,-0.2679443359375,0.06036376953125
1751013699823369700,0.33736962890625,-0.9791412353515625,-0.265350341796875,0.06317138671875
1751013699833313800,0.347313720703125,-0.9859466552734375,-0.2614288330078125,0.0670623779296875
1751013699843256800,0.3572568359375,-0.98406982421875,-0.2620849609375,0.0698699951171875
1751013699853200600,0.36720068359375,-0.9756317138671875,-0.2669677734375,0.06695556640625
1751013699863143700,0.377143798828125,-0.971527099609375,-0.2701568603515625,0.0595245361328125
1751013699873087700,0.387087646484375,-0.970916748046875,-0.2741851806640625,0.0533294677734375
1751013699883030500,0.397030517578125,-0.9670257568359375,-0.2741851806640625,0.0505218505859375
1751013699892973600,0.4069736328125,-0.9649200439453125,-0.2745361328125,0.0504608154296875
1751013699902917600,0.416917724609375,-0.96197509765625,-0.2761077880859375,0.049163818359375
1751013699912860700,0.426860595703125,-0.9593505859375,-0.275146484375,0.0494537353515625
1751013699922804500,0.436804443359375,-0.9619293212890625,-0.271484375,0.0508575439453125
1751013699932747500,0.44674755859375,-0.96710205078125,-0.2686920166015625,0.05572509765625
1751013699942691600,0.456691650390625,-0.971832275390625,-0.2641754150390625,0.0595245361328125
1751013699952634600,0.466634521484375,-0.9758453369140625,-0.26171875,0.060882568359375
1751013699962577700,0.47657763671875,-0.9743804931640625,-0.260284423828125,0.05963134765625
1751013699972521500,0.486521484375,-0.9762420654296875,-0.2589569091796875,0.0541839599609375
1751013699982464500,0.496464599609375,-0.9797821044921875,-0.2605133056640625,0.049041748046875
1751013699992408600,0.50640869140625,-0.9817352294921875,-0.261444091796875,0.043121337890625
1751013700002351600,0.5163515625,-0.98419189453125,-0.259521484375,0.0439910888671875
1751013700012295700,0.526295654296875,-0.9899444580078125,-0.258880615234375,0.0493621826171875
1751013700022238700,0.53623876953125,-0.9935760498046875,-0.25823974609375,0.0537261962890625
1751013700032181800,0.546181640625,-0.9923095703125,-0.2579345703125,0.0586700439453125
1751013700042125800,0.556125732421875,-0.989959716796875,-0.25634765625,0.06170654296875
1751013700052068600,0.566068603515625,-0.982666015625,-0.2559051513671875,0.0557861328125
1751013700062012700,0.5760126953125,-0.980316162109375,-0.255126953125,0.04815673828125
1751013700071955700,0.585955810546875,-0.9772186279296875,-0.254150390625,0.048248291015625
1751013700081899500,0.5958994140625,-0.972625732421875,-0.2554931640625,0.0497589111328125
1751013700091842600,0.605842529296875,-0.9739532470703125,-0.2560577392578125,0.0509185791015625
1751013700101786600,0.61578662109375,-0.9771270751953125,-0.25665283203125,0.053436279296875
1751013700111729700,0.625729736328125,-0.97906494140625,-0.25628662109375,0.0538787841796875
1751013700121672700,0.635672607421875,-0.9807281494140625,-0.257965087890625,0.05230712890625
1751013700131616500,0.645616455078125,-0.986236572265625,-0.2590789794921875,0.0502166748046875
1751013700141559600,0.6555595703125,-0.9869384765625,-0.258087158203125,0.0540313720703125
1751013700151503600,0.665503662109375,-0.9817657470703125,-0.258758544921875,0.0582733154296875
1751013700161446700,0.67544677734375,-0.98040771484375,-0.258056640625,0.0615997314453125
1751013700171390500,0.685390380859375,-0.98040771484375,-0.2574920654296875,0.0623016357421875
1751013700181333500,0.69533349609375,-0.978118896484375,-0.26055908203125,0.0583953857421875
1751013700191276500,0.705276611328125,-0.976470947265625,-0.2626953125,0.0571441650390625
1751013700201220600,0.715220703125,-0.97735595703125,-0.2633819580078125,0.0573272705078125
1751013700211163600,0.72516357421875,-0.9752960205078125,-0.2668609619140625,0.05853271484375
1751013700221107700,0.735107666015625,-0.9766998291015625,-0.268585205078125,0.0591888427734375
1751013700231050800,0.74505078125,-0.979888916015625,-0.2651519775390625,0.0603179931640625
1751013700240994800,0.754994873046875,-0.9818115234375,-0.2627105712890625,0.0604248046875
1751013700250937600,0.7649375,-0.98614501953125,-0.26007080078125,0.057525634765625
1751013700260880600,0.774880615234375,-0.9916839599609375,-0.25738525390625,0.055419921875
1751013700270824700,0.78482470703125,-0.9898529052734375,-0.25750732421875,0.0562286376953125
1751013700280767700,0.794767822265625,-0.9875030517578125,-0.2554168701171875,0.0582733154296875
1751013700290711600,0.804711669921875,-0.9849853515625,-0.2563934326171875,0.0594024658203125
1751013700300654600,0.814654541015625,-0.9856414794921875,-0.2586517333984375,0.0591888427734375
1751013700310598700,0.8245986328125,-0.9843597412109375,-0.259796142578125,0.056488037109375
1751013700320541700,0.834541748046875,-0.9796142578125,-0.2592010498046875,0.05438232421875
1751013700330484700,0.844484619140625,-0.97454833984375,-0.257232666015625,0.0523223876953125
1751013700340428500,0.854428466796875,-0.979522705078125,-0.25518798828125,0.0521392822265625
1751013700350371600,0.86437158203125,-0.980926513671875,-0.2532501220703125,0.0560302734375
1751013700360315600,0.874315673828125,-0.9788360595703125,-0.2534942626953125,0.060211181640625
1751013700370258700,0.8842587890625,-0.9795684814453125,-0.256378173828125,0.0598602294921875
1751013700380202500,0.894202392578125,-0.97784423828125,-0.257415771484375,0.060028076171875
1751013700390145500,0.9041455078125,-0.9742279052734375,-0.2577362060546875,0.06182861328125
1751013700400088600,0.914088623046875,-0.9740447998046875,-0.2552337646484375,0.061126708984375
1751013700410032400,0.924032470703125,-0.972442626953125,-0.2556610107421875,0.0601043701171875
1751013700419975400,0.933975341796875,-0.9708404541015625,-0.25653076171875,0.061492919921875
1751013700429919700,0.943919677734375,-0.972198486328125,-0.2557525634765625,0.0642242431640625
1751013700439862800,0.95386279296875,-0.97503662109375,-0.256500244140625,0.066192626953125
1751013700449806600,0.963806640625,-0.9761810302734375,-0.2578887939453125,0.0653228759765625
1751013700459749600,0.97374951171875,-0.977203369140625,-0.2580413818359375,0.0598907470703125
1751013700469692700,0.983692626953125,-0.979400634765625,-0.26019287109375,0.0563507080078125
1751013700479636700,0.99363671875,-0.977325439453125,-0.261322021484375,0.0546112060546875
1751013700489579800,1.003579833984375,-0.982635498046875,-0.25836181640625,0.0539093017578125
1751013700499523600,1.013523681640625,-0.9815216064453125,-0.258758544921875,0.05621337890625
1751013700509466600,1.023466552734375,-0.980682373046875,-0.258575439453125,0.0591888427734375
1751013700519410700,1.03341064453125,-0.980499267578125,-0.256134033203125,0.060089111328125
1751013700529353700,1.043353759765625,-0.97882080078125,-0.2543487548828125,0.06060791015625
1751013700539297500,1.053297607421875,-0.981170654296875,-0.25531005859375,0.0622711181640625
1751013700549240600,1.063240478515625,-0.979095458984375,-0.256195068359375,0.064849853515625
1751013700559183600,1.07318359375,-0.977447509765625,-0.2543487548828125,0.065887451171875
1751013700569127700,1.083127685546875,-0.9777984619140625,-0.2525177001953125,0.0641632080078125
1751013700579070500,1.093070556640625,-0.9779815673828125,-0.2547454833984375,0.0648040771484375
1751013700589014500,1.1030146484375,-0.9777679443359375,-0.257110595703125,0.0627899169921875
1751013700598958000,1.1129580078125,-0.974822998046875,-0.2562713623046875,0.0611114501953125
1751013700608902000,1.12290185546875,-0.9702301025390625,-0.2559051513671875,0.0633392333984375
1751013700618845000,1.132844970703125,-0.9643707275390625,-0.2581329345703125,0.0643310546875
1751013700628788000,1.1427880859375,-0.965362548828125,-0.2591552734375,0.06170654296875
1751013700638732000,1.15273193359375,-0.9689178466796875,-0.259765625,0.0605316162109375
1751013700648675000,1.162675048828125,-0.972503662109375,-0.25811767578125,0.0612945556640625
1751013700658619000,1.172618896484375,-0.9808197021484375,-0.2558746337890625,0.062225341796875
1751013700668562000,1.18256201171875,-0.9867706298828125,-0.25482177734375,0.06304931640625
1751013700678506000,1.192506103515625,-0.9878997802734375,-0.2552947998046875,0.06494140625
1751013700688449000,1.202448974609375,-0.9867706298828125,-0.252685546875,0.069488525390625
1751013700698391800,1.212391845703125,-0.9828948974609375,-0.252716064453125,0.0721435546875
1751013700708336000,1.222336181640625,-0.976348876953125,-0.2558746337890625,0.070709228515625
1751013700718279200,1.232279052734375,-0.9713897705078125,-0.25946044921875,0.06707763671875
1751013700728223000,1.242222900390625,-0.9696044921875,-0.2599334716796875,0.065185546875
1751013700738166000,1.252166015625,-0.969970703125,-0.2599029541015625,0.0636138916015625
1751013700748110000,1.262110107421875,-0.975341796875,-0.2584991455078125,0.0615234375
1751013700758053000,1.27205322265625,-0.9806060791015625,-0.258880615234375,0.0605621337890625
1751013700767996200,1.28199609375,-0.98455810546875,-0.260467529296875,0.0643157958984375
1751013700777940000,1.29193994140625,-0.9846649169921875,-0.25848388671875,0.0671234130859375
1751013700787883000,1.301883056640625,-0.98626708984375,-0.2563323974609375,0.068115234375
1751013700797827000,1.3118271484375,-0.985321044921875,-0.2559661865234375,0.0662384033203125
1751013700807770000,1.32177001953125,-0.9841766357421875,-0.2562713623046875,0.06524658203125
1751013700817714000,1.3317138671875,-0.9810638427734375,-0.2544708251953125,0.0642547607421875
1751013700827657000,1.341656982421875,-0.9756011962890625,-0.2543487548828125,0.06109619140625
1751013700837601000,1.35160107421875,-0.9747314453125,-0.2565155029296875,0.0559844970703125
1751013700847544000,1.3615439453125,-0.9770050048828125,-0.256927490234375,0.0529022216796875
1751013700857486800,1.37148681640625,-0.978546142578125,-0.2563018798828125,0.0518341064453125
1751013700867431000,1.381430908203125,-0.9787750244140625,-0.2569732666015625,0.0532684326171875
1751013700877374000,1.3913740234375,-0.9745941162109375,-0.259429931640625,0.0545806884765625
1751013700887318000,1.401318115234375,-0.969879150390625,-0.2617340087890625,0.05450439453125
1751013700897260800,1.4112607421875,-0.9672393798828125,-0.2617950439453125,0.0583343505859375
1751013700907205000,1.421205078125,-0.965240478515625,-0.2629547119140625,0.0602569580078125
1751013700917148200,1.431148193359375,-0.967559814453125,-0.2637176513671875,0.05950927734375
1751013700927091200,1.44109130859375,-0.97125244140625,-0.26318359375,0.0606536865234375
1751013700937035000,1.451034912109375,-0.9714813232421875,-0.26226806640625,0.0629425048828125
1751013700946978000,1.46097802734375,-0.97259521484375,-0.2586669921875,0.0637054443359375
1751013700956922000,1.470922119140625,-0.975494384765625,-0.257049560546875,0.0655517578125
1751013700966865200,1.480865234375,-0.9749755859375,-0.2596893310546875,0.0676727294921875
1751013700976809000,1.49080908203125,-0.978546142578125,-0.2609405517578125,0.0681304931640625
1751013700986752000,1.500751953125,-0.978729248046875,-0.2625579833984375,0.0730438232421875
1751013700996695000,1.510695068359375,-0.978607177734375,-0.265838623046875,0.0820465087890625
1751013701006639000,1.52063916015625,-0.9821014404296875,-0.26275634765625,0.0636138916015625
1751013701016582000,1.530581787109375,-0.98114013671875,-0.2573394775390625,0.0313568115234375
1751013701026526000,1.54052587890625,-0.98114013671875,-0.2625579833984375,0.042327880859375
1751013701036469000,1.550468994140625,-0.980133056640625,-0.2611083984375,0.0777130126953125
1751013701046413000,1.5604130859375,-0.981109619140625,-0.253082275390625,0.0667877197265625
1751013701056355800,1.57035595703125,-0.9803314208984375,-0.2570037841796875,0.054290771484375
1751013701066299000,1.580298828125,-0.9844512939453125,-0.2573394775390625,0.0552825927734375
1751013701076243000,1.590242919921875,-0.98468017578125,-0.2551422119140625,0.05615234375
1751013701086186000,1.60018603515625,-0.9800567626953125,-0.256103515625,0.0571441650390625
1751013701096129800,1.6101298828125,-0.981597900390625,-0.2577667236328125,0.0567626953125
1751013701106072800,1.62007275390625,-0.982147216796875,-0.2613677978515625,0.0582733154296875
1751013701116017200,1.63001708984375,-0.9776611328125,-0.263885498046875,0.058349609375
1751013701125960200,1.639960205078125,-0.9708251953125,-0.2621917724609375,0.0583038330078125
1751013701135903200,1.6499033203125,-0.968597412109375,-0.260833740234375,0.05694580078125
1751013701145847000,1.659846923828125,-0.970794677734375,-0.2622222900390625,0.054412841796875
1751013701155790000,1.6697900390625,-0.978240966796875,-0.2603912353515625,0.05072021484375
1751013701165734100,1.679734130859375,-0.984588623046875,-0.258148193359375,0.0513916015625
1751013701175677200,1.68967724609375,-0.9852447509765625,-0.257568359375,0.0565032958984375
1751013701185621000,1.69962109375,-0.9856414794921875,-0.2568206787109375,0.0609283447265625
1751013701195564000,1.70956396484375,-0.983856201171875,-0.2578887939453125,0.0592193603515625
1751013701205507000,1.719507080078125,-0.97918701171875,-0.2620697021484375,0.0557861328125
1751013701215451000,1.729450927734375,-0.9734039306640625,-0.2623748779296875,0.0531463623046875
1751013701225394000,1.739393798828125,-0.96990966796875,-0.2629547119140625,0.0498809814453125
1751013701235338000,1.749337890625,-0.9704132080078125,-0.2642364501953125,0.0479888916015625
1751013701245281000,1.759281005859375,-0.972137451171875,-0.2650299072265625,0.0508270263671875
1751013701255224800,1.769224853515625,-0.973724365234375,-0.2652435302734375,0.053375244140625
1751013701265168000,1.77916796875,-0.97515869140625,-0.2661590576171875,0.0538787841796875
1751013701275112000,1.78911181640625,-0.978485107421875,-0.2660675048828125,0.0530853271484375
1751013701285055000,1.799054931640625,-0.9785614013671875,-0.26806640625,0.054168701171875
1751013701294998000,1.808998046875,-0.977691650390625,-0.2672271728515625,0.0573272705078125
1751013701304941800,1.81894189453125,-0.9784698486328125,-0.2661895751953125,0.0597686767578125
1751013701314884900,1.828884765625,-0.9769744873046875,-0.2671356201171875,0.0598907470703125
1751013701324829200,1.8388291015625,-0.9769744873046875,-0.2675628662109375,0.061431884765625
1751013701334772200,1.848772216796875,-0.9764251708984375,-0.268463134765625,0.0608673095703125
1751013701344716000,1.858716064453125,-0.977203369140625,-0.2687835693359375,0.0578765869140625
1751013701354659000,1.8686591796875,-0.9797210693359375,-0.26812744140625,0.0548553466796875
1751013701364602000,1.87860205078125,-0.9811248779296875,-0.2690277099609375,0.056121826171875
1751013701374546200,1.888546142578125,-0.9789886474609375,-0.2694549560546875,0.057037353515625
1751013701384489000,1.898489013671875,-0.9764862060546875,-0.2689056396484375,0.0559539794921875
1751013701394433000,1.90843310546875,-0.9768218994140625,-0.2700958251953125,0.0552215576171875
1751013701404376000,1.9183759765625,-0.977386474609375,-0.2687530517578125,0.054931640625
1751013701414319900,1.92831982421875,-0.9787445068359375,-0.265960693359375,0.0560302734375
1751013701424263000,1.938262939453125,-0.9787445068359375,-0.2646484375,0.0569610595703125
1751013701434206000,1.9482060546875,-0.9775390625,-0.2629547119140625,0.0599365234375
1751013701444150000,1.95814990234375,-0.9782867431640625,-0.26324462890625,0.0618133544921875
1751013701454093000,1.968093017578125,-0.9748992919921875,-0.2659149169921875,0.05987548828125
1751013701464036900,1.978036865234375,-0.9719390869140625,-0.2679901123046875,0.055755615234375
1751013701473980000,1.98797998046875,-0.9731597900390625,-0.268646240234375,0.05364990234375
1751013701483924000,1.997924072265625,-0.97412109375,-0.2678070068359375,0.0533294677734375
1751013701493867000,2.007866943359375,-0.9739990234375,-0.2675323486328125,0.055450439453125
1751013701503810000,2.01781005859375,-0.974273681640625,-0.2678985595703125,0.05560302734375
1751013701513753900,2.02775390625,-0.972930908203125,-0.2691650390625,0.0547637939453125
1751013701523697000,2.03769677734375,-0.972991943359375,-0.270599365234375,0.0540924072265625
1751013701533641200,2.04764111328125,-0.97265625,-0.2701416015625,0.053009033203125
1751013701543584000,2.057583984375,-0.9730987548828125,-0.268890380859375,0.0550689697265625
1751013701553528000,2.067528076171875,-0.973907470703125,-0.2680816650390625,0.0555419921875
1751013701563471000,2.07747119140625,-0.975921630859375,-0.267364501953125,0.0574188232421875
1751013701573414100,2.0874140625,-0.9741363525390625,-0.2665252685546875,0.0565948486328125
1751013701583358000,2.09735791015625,-0.9736328125,-0.2684326171875,0.05853271484375
1751013701593301000,2.107301025390625,-0.9766387939453125,-0.2686920166015625,0.0579833984375
1751013701603244500,2.11724462890625,-0.976348876953125,-0.2708892822265625,0.0550689697265625
1751013701613187600,2.1271875,-0.9764404296875,-0.2726593017578125,0.054656982421875
1751013701623131400,2.13713134765625,-0.9768524169921875,-0.2709503173828125,0.0560760498046875
1751013701633074400,2.147074462890625,-0.978607177734375,-0.2686614990234375,0.0577392578125
1751013701643017500,2.157017578125,-0.978973388671875,-0.268524169921875,0.05914306640625
1751013701652961800,2.1669619140625,-0.9783477783203125,-0.2671661376953125,0.0595245361328125
1751013701662904800,2.17690478515625,-0.976776123046875,-0.26739501953125,0.05926513671875
1751013701672848600,2.1868486328125,-0.975738525390625,-0.2678375244140625,0.05731201171875
1751013701682791700,2.196791748046875,-0.9727935791015625,-0.270111083984375,0.056732177734375
1751013701692735700,2.20673583984375,-0.9698944091796875,-0.270172119140625,0.0571136474609375
1751013701702678800,2.2166787109375,-0.9677276611328125,-0.2713623046875,0.05804443359375
1751013701712621600,2.22662158203125,-0.96875,-0.2714385986328125,0.05755615234375
1751013701722565600,2.236565673828125,-0.9718475341796875,-0.2718963623046875,0.0572509765625
1751013701732508700,2.2465087890625,-0.9756622314453125,-0.269927978515625,0.057342529296875
1751013701742452700,2.25645263671875,-0.9791259765625,-0.269378662109375,0.0567474365234375
1751013701752395500,2.2663955078125,-0.978851318359375,-0.26861572265625,0.0577545166015625
1751013701762339600,2.276339599609375,-0.9782257080078125,-0.2693634033203125,0.05767822265625
1751013701772282600,2.28628271484375,-0.976837158203125,-0.2700653076171875,0.0548858642578125
1751013701782225700,2.2962255859375,-0.97357177734375,-0.271209716796875,0.052398681640625
1751013701792169500,2.30616943359375,-0.9725799560546875,-0.2704925537109375,0.05328369140625
1751013701802112500,2.316112548828125,-0.97650146484375,-0.2686920166015625,0.0538330078125
1751013701812056600,2.326056640625,-0.9777069091796875,-0.2650604248046875,0.05731201171875
1751013701821999600,2.33599951171875,-0.97357177734375,-0.26422119140625,0.0583343505859375
1751013701831943400,2.345943359375,-0.972381591796875,-0.2664642333984375,0.0555877685546875
1751013701841886500,2.355886474609375,-0.9747161865234375,-0.2679901123046875,0.0521087646484375
1751013701851829500,2.36582958984375,-0.975738525390625,-0.268035888671875,0.0514068603515625
1751013701861773800,2.37577392578125,-0.976165771484375,-0.26959228515625,0.05218505859375
1751013701871716900,2.385716796875,-0.9738006591796875,-0.2716827392578125,0.0540008544921875
1751013701881660700,2.39566064453125,-0.9729461669921875,-0.27105712890625,0.0526275634765625
1751013701891603700,2.405603759765625,-0.974151611328125,-0.2696685791015625,0.05255126953125
1751013701901547800,2.4155478515625,-0.9776458740234375,-0.268341064453125,0.053436279296875
1751013701911490600,2.425490478515625,-0.980804443359375,-0.2686920166015625,0.0572052001953125
1751013701921433600,2.43543359375,-0.9798431396484375,-0.26910400390625,0.0587005615234375
1751013701931377700,2.445377685546875,-0.9756927490234375,-0.2696380615234375,0.0597991943359375
1751013701941320700,2.45532080078125,-0.9760284423828125,-0.27020263671875,0.058837890625
1751013701951264500,2.465264404296875,-0.975494384765625,-0.2697601318359375,0.0572662353515625
1751013701961207600,2.47520751953125,-0.972564697265625,-0.2697906494140625,0.0579376220703125
1751013701971151600,2.485151611328125,-0.969818115234375,-0.2705078125,0.059051513671875
1751013701981094700,2.4950947265625,-0.970733642578125,-0.2706146240234375,0.057952880859375
1751013701991037700,2.50503759765625,-0.9756622314453125,-0.2702789306640625,0.055755615234375
1751013702000981500,2.5149814453125,-0.977203369140625,-0.270111083984375,0.057769775390625
1751013702010924500,2.524924560546875,-0.9792022705078125,-0.267822265625,0.056671142578125
1751013702020868600,2.53486865234375,-0.9797210693359375,-0.2667388916015625,0.053955078125
1751013702030811600,2.544811767578125,-0.97320556640625,-0.26873779296875,0.0551300048828125
1751013702040755700,2.554755615234375,-0.97210693359375,-0.2692108154296875,0.053436279296875
1751013702050698500,2.564698486328125,-0.970794677734375,-0.2684783935546875,0.050079345703125
1751013702060641500,2.5746416015625,-0.9692230224609375,-0.2681427001953125,0.0503387451171875
1751013702070585600,2.584585693359375,-0.97393798828125,-0.2676239013671875,0.051971435546875
1751013702080528600,2.594528564453125,-0.9793853759765625,-0.267822265625,0.05377197265625
1751013702090472700,2.60447265625,-0.9800567626953125,-0.267333984375,0.0559844970703125
1751013702100415700,2.614415771484375,-0.98297119140625,-0.266754150390625,0.055877685546875
1751013702110359600,2.624359619140625,-0.9846954345703125,-0.26806640625,0.0553131103515625
1751013702120302600,2.634302490234375,-0.982177734375,-0.2711181640625,0.054412841796875
1751013702130245600,2.64424560546875,-0.9766693115234375,-0.2722015380859375,0.0529937744140625
1751013702140189700,2.654189697265625,-0.9721527099609375,-0.2718963623046875,0.0531005859375
1751013702150132700,2.6641328125,-0.970123291015625,-0.2714996337890625,0.052459716796875
1751013702160076500,2.67407666015625,-0.9711151123046875,-0.2724151611328125,0.0517120361328125
1751013702170019600,2.68401953125,-0.9714813232421875,-0.273223876953125,0.0502471923828125
1751013702179962600,2.693962646484375,-0.97412109375,-0.2716064453125,0.0482330322265625
1751013702189906700,2.70390673828125,-0.978485107421875,-0.2702178955078125,0.0493316650390625
1751013702199849700,2.713849609375,-0.97650146484375,-0.270599365234375,0.052581787109375
1751013702209793500,2.72379345703125,-0.9723968505859375,-0.2723388671875,0.0550079345703125
1751013702219736600,2.733736572265625,-0.9688720703125,-0.2713623046875,0.0572052001953125
1751013702229680600,2.7436806640625,-0.9698944091796875,-0.2701873779296875,0.056365966796875
1751013702239623400,2.75362353515625,-0.972808837890625,-0.2690887451171875,0.0545501708984375
1751013702249566500,2.76356640625,-0.975311279296875,-0.2692108154296875,0.0543060302734375
1751013702259510500,2.773510498046875,-0.977386474609375,-0.2674102783203125,0.0546875
1751013702269453600,2.78345361328125,-0.9784088134765625,-0.26617431640625,0.05377197265625
1751013702279397600,2.793397705078125,-0.97967529296875,-0.266021728515625,0.0521240234375
1751013702289340700,2.803340576171875,-0.9780731201171875,-0.268096923828125,0.05023193359375
1751013702299284700,2.81328466796875,-0.9765625,-0.2703094482421875,0.047271728515625
1751013702309227800,2.823227783203125,-0.9777679443359375,-0.26934814453125,0.047271728515625
1751013702319170800,2.8331708984375,-0.9758453369140625,-0.2710418701171875,0.048248291015625
1751013702329114600,2.843114501953125,-0.974517822265625,-0.2711029052734375,0.04998779296875
1751013702339057700,2.8530576171875,-0.97216796875,-0.2717742919921875,0.0523223876953125
1751013702349001700,2.863001708984375,-0.9724578857421875,-0.27239990234375,0.0510711669921875
1751013702358944800,2.87294482421875,-0.9737548828125,-0.2733154296875,0.0520477294921875
1751013702368888600,2.882888671875,-0.9759063720703125,-0.271270751953125,0.053466796875
1751013702378831600,2.89283154296875,-0.9736328125,-0.2698974609375,0.05322265625
1751013702388774700,2.902774658203125,-0.97442626953125,-0.269287109375,0.051971435546875
1751013702398718700,2.91271875,-0.97674560546875,-0.267669677734375,0.0503997802734375
1751013702408661500,2.92266162109375,-0.9768218994140625,-0.2655792236328125,0.0489654541015625
1751013702418605600,2.93260546875,-0.97283935546875,-0.2650604248046875,0.04833984375
1751013702428548600,2.942548583984375,-0.9733734130859375,-0.2676239013671875,0.0489959716796875
1751013702438492400,2.952492431640625,-0.977081298828125,-0.2695770263671875,0.0464019775390625
1751013702448435500,2.962435546875,-0.976318359375,-0.2731170654296875,0.0448455810546875
1751013702458378500,2.97237841796875,-0.9770355224609375,-0.27532958984375,0.0458221435546875
1751013702468322600,2.982322509765625,-0.9745635986328125,-0.2749786376953125,0.0475921630859375
1751013702478265600,2.992265625,-0.9755859375,-0.273406982421875,0.0476531982421875
1751013702488209700,3.002209716796875,-0.9785614013671875,-0.2714385986328125,0.050140380859375
1751013702498152700,3.012152587890625,-0.975799560546875,-0.27056884765625,0.05499267578125
1751013702508096800,3.0220966796875,-0.9769439697265625,-0.2677154541015625,0.056549072265625
1751013702518039800,3.032039794921875,-0.979644775390625,-0.26837158203125,0.055572509765625
1751013702527982600,3.041982666015625,-0.98370361328125,-0.2704315185546875,0.0537872314453125
1751013702537926700,3.0519267578125,-0.978118896484375,-0.2729339599609375,0.05364990234375
1751013702547869700,3.06186962890625,-0.9741363525390625,-0.2738189697265625,0.0536651611328125
1751013702557813800,3.071813720703125,-0.9730377197265625,-0.2741546630859375,0.0521240234375
1751013702567756500,3.081756591796875,-0.974853515625,-0.274383544921875,0.052001953125
1751013702577699600,3.091699462890625,-0.97540283203125,-0.274139404296875,0.051910400390625
1751013702587643600,3.1016435546875,-0.9770355224609375,-0.2717132568359375,0.0532073974609375
1751013702597587500,3.11158740234375,-0.97821044921875,-0.27252197265625,0.05438232421875
1751013702607531300,3.12153125,-0.977386474609375,-0.272216796875,0.0545654296875
1751013702617474300,3.131474365234375,-0.9775848388671875,-0.270782470703125,0.056243896484375
1751013702627418400,3.14141845703125,-0.9757843017578125,-0.272186279296875,0.0569000244140625
1751013702637361400,3.151361328125,-0.9772186279296875,-0.27264404296875,0.0562744140625
1751013702647304200,3.16130419921875,-0.9760284423828125,-0.2726593017578125,0.054840087890625
1751013702657248300,3.171248291015625,-0.9732208251953125,-0.2725982666015625,0.0543212890625
1751013702667191300,3.18119140625,-0.9700927734375,-0.273681640625,0.05322265625
1751013702677135000,3.191135009765625,-0.9682769775390625,-0.272491455078125,0.0516815185546875
1751013702687078100,3.201078125,-0.967041015625,-0.272613525390625,0.0518646240234375
1751013702697022200,3.211022216796875,-0.96588134765625,-0.271392822265625,0.051849365234375
1751013702706965200,3.22096533203125,-0.9713592529296875,-0.27069091796875,0.0531158447265625
1751013702716908300,3.230908203125,-0.9741973876953125,-0.27197265625,0.05377197265625
1751013702726852000,3.24085205078125,-0.973907470703125,-0.2730255126953125,0.0524139404296875
1751013702736795100,3.250795166015625,-0.9768524169921875,-0.270782470703125,0.05059814453125
1751013702746739200,3.2607392578125,-0.976959228515625,-0.2692108154296875,0.05096435546875
1751013702756682200,3.27068212890625,-0.9766387939453125,-0.267791748046875,0.051727294921875
1751013702766625300,3.280625244140625,-0.9732513427734375,-0.266693115234375,0.050811767578125
1751013702776569300,3.2905693359375,-0.9713592529296875,-0.2676544189453125,0.047821044921875
1751013702786512100,3.30051220703125,-0.971893310546875,-0.269805908203125,0.0444183349609375
1751013702796456400,3.31045654296875,-0.967437744140625,-0.2707977294921875,0.0430755615234375
1751013702806399200,3.320399169921875,-0.964141845703125,-0.2715606689453125,0.0457305908203125
1751013702816343300,3.33034326171875,-0.9643402099609375,-0.271575927734375,0.048095703125
1751013702826286300,3.340286376953125,-0.967681884765625,-0.272369384765625,0.0493621826171875
1751013702836229400,3.3502294921875,-0.9705657958984375,-0.2725067138671875,0.050750732421875
1751013702846173200,3.360173095703125,-0.9710845947265625,-0.271636962890625,0.05084228515625
1751013702856116200,3.3701162109375,-0.9716949462890625,-0.269683837890625,0.05010986328125
1751013702866060300,3.380060302734375,-0.9727935791015625,-0.2667083740234375,0.0492706298828125
1751013702876003300,3.39000341796875,-0.976287841796875,-0.2678985595703125,0.04852294921875
1751013702885947100,3.399947021484375,-0.9761505126953125,-0.2703399658203125,0.0476226806640625
1751013702895890200,3.40989013671875,-0.975494384765625,-0.2700653076171875,0.046661376953125
1751013702905833200,3.419833251953125,-0.9764404296875,-0.2703094482421875,0.04620361328125
1751013702915777300,3.42977734375,-0.976837158203125,-0.2721405029296875,0.045623779296875
1751013702925720300,3.43972021484375,-0.97747802734375,-0.2714385986328125,0.0448760986328125
1751013702935664000,3.4496640625,-0.9816436767578125,-0.27252197265625,0.045654296875
1751013702945607200,3.459607177734375,-0.983978271484375,-0.273193359375,0.0475616455078125
1751013702955550200,3.46955029296875,-0.9872894287109375,-0.2718963623046875,0.0489959716796875
1751013702965494300,3.479494384765625,-0.9848175048828125,-0.2724609375,0.0499420166015625
1751013702975437000,3.48943701171875,-0.9809722900390625,-0.2713165283203125,0.0519561767578125
1751013702985381400,3.49938134765625,-0.97845458984375,-0.271484375,0.0513763427734375
1751013702995324400,3.509324462890625,-0.9749298095703125,-0.270965576171875,0.048248291015625
1751013703005268200,3.519268310546875,-0.9712982177734375,-0.2696990966796875,0.047882080078125
1751013703015211300,3.529211181640625,-0.9696502685546875,-0.2701416015625,0.0494232177734375
1751013703025154300,3.539154296875,-0.9717864990234375,-0.2715301513671875,0.0510406494140625
1751013703035098400,3.549098388671875,-0.972808837890625,-0.2735443115234375,0.05072021484375
1751013703045041400,3.55904150390625,-0.9749908447265625,-0.273712158203125,0.0498809814453125
1751013703054985200,3.568985107421875,-0.9752044677734375,-0.273284912109375,0.050506591796875
1751013703064928300,3.57892822265625,-0.97381591796875,-0.2734222412109375,0.0535430908203125
1751013703074871300,3.588871337890625,-0.971893310546875,-0.2708740234375,0.054168701171875
1751013703084815400,3.5988154296875,-0.97174072265625,-0.2711334228515625,0.0536041259765625
1751013703094758400,3.60875830078125,-0.9699859619140625,-0.2735443115234375,0.0548553466796875
1751013703104702200,3.6187021484375,-0.9703521728515625,-0.27197265625,0.0550994873046875
1751013703114645200,3.628645263671875,-0.97454833984375,-0.271392822265625,0.055389404296875
1751013703124589300,3.63858935546875,-0.976806640625,-0.2735137939453125,0.056396484375
1751013703134532000,3.648531982421875,-0.9776763916015625,-0.2752838134765625,0.0567626953125
1751013703144475100,3.65847509765625,-0.979095458984375,-0.2737884521484375,0.0551910400390625
1751013703154419200,3.668419189453125,-0.977264404296875,-0.2744598388671875,0.0521087646484375
1751013703164362200,3.6783623046875,-0.97760009765625,-0.2740631103515625,0.051300048828125
1751013703174306000,3.68830615234375,-0.9765472412109375,-0.273895263671875,0.05316162109375
1751013703184249000,3.6982490234375,-0.9793243408203125,-0.2747802734375,0.05462646484375
1751013703194192100,3.708192138671875,-0.978363037109375,-0.274078369140625,0.055328369140625
1751013703204136400,3.718136474609375,-0.9766387939453125,-0.274749755859375,0.0540924072265625
1751013703214079200,3.728079345703125,-0.974334716796875,-0.27490234375,0.0562744140625
1751013703224023300,3.738023193359375,-0.9742279052734375,-0.2748260498046875,0.05841064453125
1751013703233966300,3.74796630859375,-0.972198486328125,-0.273895263671875,0.057464599609375
1751013703243910400,3.757910400390625,-0.9694671630859375,-0.274566650390625,0.0543975830078125
1751013703253853400,3.767853515625,-0.9724578857421875,-0.2738494873046875,0.052398681640625
1751013703263796200,3.777796142578125,-0.9713897705078125,-0.2737274169921875,0.053497314453125
1751013703273740300,3.787740234375,-0.9691162109375,-0.2740631103515625,0.054473876953125
1751013703283683300,3.797683349609375,-0.970306396484375,-0.273468017578125,0.0521240234375
1751013703293627100,3.807627197265625,-0.970611572265625,-0.2752685546875,0.0504913330078125
1751013703303570200,3.817570068359375,-0.9695587158203125,-0.2771759033203125,0.0493927001953125
1751013703313513200,3.82751318359375,-0.9694366455078125,-0.27685546875,0.0499267578125
1751013703323457300,3.837457275390625,-0.96612548828125,-0.275726318359375,0.0522308349609375
1751013703333400300,3.847400390625,-0.9659423828125,-0.2726287841796875,0.0540008544921875
1751013703343344000,3.85734423828125,-0.968994140625,-0.27325439453125,0.0547943115234375
1751013703353287200,3.867287109375,-0.97100830078125,-0.274322509765625,0.05291748046875
1751013703363231200,3.877231201171875,-0.971832275390625,-0.27496337890625,0.0518341064453125
1751013703373174300,3.88717431640625,-0.973480224609375,-0.2758331298828125,0.0516204833984375
1751013703383117300,3.897117431640625,-0.97113037109375,-0.275634765625,0.0521392822265625
1751013703393061000,3.90706103515625,-0.9700775146484375,-0.2750091552734375,0.052703857421875
1751013703403004200,3.917004150390625,-0.9726104736328125,-0.275604248046875,0.0564727783203125
1751013703412948500,3.926948486328125,-0.9738006591796875,-0.274871826171875,0.0592193603515625
1751013703422891300,3.936891357421875,-0.9757080078125,-0.2744140625,0.0589141845703125
1751013703432835300,3.94683544921875,-0.9776458740234375,-0.273590087890625,0.05859375
1751013703442778400,3.9567783203125,-0.97650146484375,-0.2749786376953125,0.054901123046875
1751013703452721400,3.966721435546875,-0.9742431640625,-0.27569580078125,0.052398681640625
1751013703462665200,3.976665283203125,-0.9692535400390625,-0.276519775390625,0.0496978759765625
1751013703472608300,3.986608154296875,-0.967437744140625,-0.2764434814453125,0.0469818115234375
1751013703482552300,3.99655224609375,-0.9665985107421875,-0.2776641845703125,0.0474700927734375
1751013703492495400,4.006495361328125,-0.9687042236328125,-0.278656005859375,0.0487518310546875
1751013703502438400,4.0164384765625,-0.97393798828125,-0.2778778076171875,0.05023193359375
1751013703512382200,4.02638232421875,-0.9764556884765625,-0.2765045166015625,0.0513916015625
1751013703522325200,4.0363251953125,-0.9802703857421875,-0.2768096923828125,0.05279541015625
1751013703532269300,4.046269287109375,-0.98187255859375,-0.2761993408203125,0.0522308349609375
1751013703542212400,4.05621240234375,-0.9851531982421875,-0.2744598388671875,0.0526885986328125
1751013703552155100,4.066155029296875,-0.98272705078125,-0.2720489501953125,0.055206298828125
1751013703562099200,4.07609912109375,-0.97979736328125,-0.2726287841796875,0.055511474609375
1751013703572042200,4.086042236328125,-0.977203369140625,-0.274871826171875,0.052978515625
1751013703581986300,4.095986328125,-0.973663330078125,-0.2766876220703125,0.0492401123046875
1751013703591929000,4.10592919921875,-0.96966552734375,-0.2769775390625,0.0471954345703125
1751013703601872600,4.11587255859375,-0.97003173828125,-0.276336669921875,0.046966552734375
1751013703611815700,4.125815673828125,-0.9715423583984375,-0.277069091796875,0.049102783203125
1751013703621758700,4.1357587890625,-0.971771240234375,-0.2774658203125,0.0504913330078125
1751013703631702800,4.145702880859375,-0.9732666015625,-0.2771453857421875,0.0505218505859375
1751013703641645600,4.1556455078125,-0.9736175537109375,-0.2775115966796875,0.053802490234375
1751013703651590000,4.16558984375,-0.9720916748046875,-0.277008056640625,0.053253173828125
1751013703661532700,4.17553271484375,-0.971099853515625,-0.275115966796875,0.0546722412109375
1751013703671475700,4.185475830078125,-0.96893310546875,-0.275970458984375,0.055419921875
1751013703681419800,4.195419677734375,-0.9678802490234375,-0.27606201171875,0.0543212890625
1751013703691362800,4.20536279296875,-0.9700775146484375,-0.2768402099609375,0.053924560546875
1751013703701307000,4.215306884765625,-0.970062255859375,-0.2784576416015625,0.0517730712890625
1751013703711250000,4.22525,-0.973114013671875,-0.27813720703125,0.049468994140625
1751013703721193700,4.23519384765625,-0.976654052734375,-0.276397705078125,0.0484161376953125
1751013703731136800,4.24513671875,-0.9777984619140625,-0.27655029296875,0.048309326171875
1751013703741079800,4.255079833984375,-0.978424072265625,-0.2763519287109375,0.04766845703125
1751013703751023900,4.26502392578125,-0.97662353515625,-0.2754364013671875,0.0506591796875
1751013703760966700,4.274966552734375,-0.97442626953125,-0.2745208740234375,0.0556182861328125
1751013703770910700,4.28491064453125,-0.9738006591796875,-0.2766571044921875,0.055511474609375
1751013703780853800,4.294853759765625,-0.975250244140625,-0.2764892578125,0.0532684326171875
1751013703790796800,4.304796875,-0.97674560546875,-0.275543212890625,0.0518951416015625
1751013703800740600,4.31474072265625,-0.977813720703125,-0.275909423828125,0.0523681640625
1751013703810683600,4.32468359375,-0.9786834716796875,-0.2760009765625,0.051361083984375
1751013703820627700,4.334627685546875,-0.977996826171875,-0.276153564453125,0.0511627197265625
1751013703830570800,4.34457080078125,-0.974517822265625,-0.27740478515625,0.051025390625
1751013703840514600,4.3545146484375,-0.9747161865234375,-0.2768402099609375,0.050567626953125
1751013703850457600,4.36445751953125,-0.973297119140625,-0.2775115966796875,0.0507965087890625
1751013703860400600,4.374400634765625,-0.9742431640625,-0.277496337890625,0.05242919921875
1751013703870344700,4.3843447265625,-0.97662353515625,-0.2773895263671875,0.0532684326171875
1751013703880287700,4.394287841796875,-0.9770050048828125,-0.2794036865234375,0.0526580810546875
1751013703890231800,4.404231689453125,-0.97503662109375,-0.2790374755859375,0.0496978759765625
1751013703900174800,4.4141748046875,-0.9742584228515625,-0.277313232421875,0.049530029296875
1751013703910118000,4.424117919921875,-0.9745941162109375,-0.2772369384765625,0.049896240234375
1751013703920062000,4.43406201171875,-0.9739532470703125,-0.27606201171875,0.0503387451171875
1751013703930004700,4.444004638671875,-0.973419189453125,-0.2758636474609375,0.05096435546875
1751013703939948800,4.45394873046875,-0.9721527099609375,-0.2757110595703125,0.0491943359375
1751013703949891800,4.463891845703125,-0.9739990234375,-0.2749786376953125,0.04937744140625
1751013703959835600,4.473835693359375,-0.9727783203125,-0.27386474609375,0.0529327392578125
1751013703969778700,4.48377880859375,-0.9697265625,-0.27239990234375,0.0537109375
1751013703979721700,4.4937216796875,-0.9741058349609375,-0.27001953125,0.0547332763671875
1751013703989665800,4.503665771484375,-0.97930908203125,-0.270050048828125,0.054412841796875
1751013703999608800,4.51360888671875,-0.9799652099609375,-0.2715301513671875,0.055633544921875
1751013704009552600,4.523552734375,-0.9762725830078125,-0.27191162109375,0.0564117431640625
1751013704019495700,4.53349560546875,-0.9727783203125,-0.2722320556640625,0.0560760498046875
1751013704029438700,4.543438720703125,-0.968109130859375,-0.2724761962890625,0.0547637939453125
1751013704039382800,4.5533828125,-0.965911865234375,-0.27337646484375,0.0527496337890625
1751013704049325800,4.563325927734375,-0.96722412109375,-0.2733917236328125,0.050537109375
1751013704059269600,4.57326953125,-0.9720611572265625,-0.2725067138671875,0.0507354736328125
1751013704069212700,4.583212646484375,-0.9738006591796875,-0.270538330078125,0.0525665283203125
1751013704079156700,4.59315673828125,-0.976470947265625,-0.27056884765625,0.0533905029296875
1751013704089099500,4.603099609375,-0.9761199951171875,-0.2698211669921875,0.0567169189453125
1751013704099042600,4.61304248046875,-0.9763946533203125,-0.2688446044921875,0.057098388671875
1751013704108987000,4.62298681640625,-0.978729248046875,-0.269134521484375,0.05474853515625
1751013704118930000,4.632929931640625,-0.9790496826171875,-0.2699432373046875,0.054718017578125
1751013704128873700,4.642873779296875,-0.9799346923828125,-0.2695465087890625,0.0535125732421875
1751013704138816800,4.652816650390625,-0.97930908203125,-0.2694854736328125,0.051727294921875
1751013704148759800,4.662759765625,-0.9752197265625,-0.2752685546875,0.05352783203125
1751013704158703900,4.672703857421875,-0.9749298095703125,-0.2766876220703125,0.0555877685546875
1751013704168647000,4.68264697265625,-0.9748992919921875,-0.2764434814453125,0.053436279296875
1751013704178590700,4.6925908203125,-0.9715423583984375,-0.276397705078125,0.0492706298828125
1751013704188533800,4.70253369140625,-0.9752655029296875,-0.2783966064453125,0.0514068603515625
1751013704198476800,4.712476806640625,-0.97271728515625,-0.281036376953125,0.0569915771484375
1751013704208420900,4.7224208984375,-0.9700469970703125,-0.28033447265625,0.0609588623046875
1751013704218363600,4.73236376953125,-0.9700927734375,-0.2786865234375,0.062042236328125
1751013704228307700,4.7423076171875,-0.9698486328125,-0.279296875,0.06195068359375
1751013704238250800,4.752250732421875,-0.9683685302734375,-0.2802276611328125,0.0590667724609375
1751013704248194800,4.76219482421875,-0.964569091796875,-0.2792816162109375,0.0605010986328125
1751013704258137600,4.7721376953125,-0.9640960693359375,-0.27752685546875,0.0605926513671875
1751013704268080600,4.78208056640625,-0.967987060546875,-0.2761688232421875,0.0576019287109375
1751013704278024700,4.792024658203125,-0.972686767578125,-0.276275634765625,0.0551910400390625
1751013704287967700,4.8019677734375,-0.973236083984375,-0.2785797119140625,0.053619384765625
1751013704297911600,4.81191162109375,-0.971221923828125,-0.2789154052734375,0.054046630859375
1751013704307854600,4.8218544921875,-0.9699859619140625,-0.278656005859375,0.05548095703125
1751013704317797600,4.831797607421875,-0.9686431884765625,-0.2793121337890625,0.0564117431640625
1751013704327742000,4.841741943359375,-0.96893310546875,-0.277679443359375,0.056396484375
1751013704337685000,4.85168505859375,-0.97015380859375,-0.273590087890625,0.0538787841796875
1751013704347628800,4.86162890625,-0.972320556640625,-0.269561767578125,0.054962158203125
1751013704357571800,4.87157177734375,-0.9778289794921875,-0.2669677734375,0.0576171875
1751013704367516000,4.881515869140625,-0.982879638671875,-0.266845703125,0.057861328125
1751013704377458700,4.891458740234375,-0.98394775390625,-0.268585205078125,0.05743408203125
1751013704387401700,4.901401611328125,-0.9828948974609375,-0.2701873779296875,0.0552978515625
1751013704397345800,4.911345703125,-0.978912353515625,-0.2705078125,0.0546112060546875
1751013704407288800,4.921288818359375,-0.9736785888671875,-0.273101806640625,0.0546722412109375
1751013704417232600,4.931232666015625,-0.970123291015625,-0.2745513916015625,0.0549163818359375
1751013704427175700,4.94117578125,-0.9669952392578125,-0.27459716796875,0.0548553466796875
1751013704437118700,4.95111865234375,-0.96875,-0.272705078125,0.05450439453125
1751013704447062800,4.961062744140625,-0.9705352783203125,-0.2732391357421875,0.0548858642578125
1751013704457005800,4.971005859375,-0.971832275390625,-0.27288818359375,0.0569915771484375
1751013704466949600,4.98094970703125,-0.974456787109375,-0.272003173828125,0.05712890625
1751013704476892700,4.990892578125,-0.975830078125,-0.270111083984375,0.0582733154296875
1751013704486836700,5.000836669921875,-0.9792633056640625,-0.2667236328125,0.0579376220703125
1751013704496779800,5.01077978515625,-0.9835205078125,-0.2640228271484375,0.056243896484375
1751013704506722800,5.020722900390625,-0.984619140625,-0.2637939453125,0.054718017578125
1751013704516666600,5.03066650390625,-0.980224609375,-0.266754150390625,0.0523529052734375
1751013704526609700,5.040609619140625,-0.9784088134765625,-0.2702484130859375,0.048095703125
1751013704536554000,5.050553955078125,-0.9763336181640625,-0.2731781005859375,0.046295166015625
1751013704546496800,5.060496826171875,-0.97332763671875,-0.2755126953125,0.051544189453125
1751013704556439600,5.070439453125,-0.969696044921875,-0.2736663818359375,0.0592193603515625
1751013704566383900,5.0803837890625,-0.973876953125,-0.2716064453125,0.061981201171875
1751013704576327000,5.090326904296875,-0.9783782958984375,-0.2723541259765625,0.0634765625
1751013704586270700,5.100270751953125,-0.98016357421875,-0.2748260498046875,0.0606536865234375
1751013704596213800,5.1102138671875,-0.9799957275390625,-0.2758941650390625,0.0583343505859375
1751013704606157000,5.120156982421875,-0.974853515625,-0.27667236328125,0.05792236328125
1751013704616101000,5.13010107421875,-0.9655914306640625,-0.2789154052734375,0.0588836669921875
1751013704626044200,5.140044189453125,-0.9607696533203125,-0.279052734375,0.055450439453125
1751013704635988000,5.149988037109375,-0.965545654296875,-0.27978515625,0.0520172119140625
1751013704645931000,5.159930908203125,-0.9692230224609375,-0.2794189453125,0.0532379150390625
1751013704655875000,5.169875,-0.97113037109375,-0.2757415771484375,0.0589447021484375
1751013704665817900,5.17981787109375,-0.9756317138671875,-0.27154541015625,0.0626983642578125
1751013704675761000,5.189760986328125,-0.98272705078125,-0.2722930908203125,0.0621337890625
1751013704685705000,5.199705078125,-0.9827880859375,-0.271636962890625,0.0612030029296875
1751013704695648000,5.20964794921875,-0.9813385009765625,-0.2664642333984375,0.0602264404296875
1751013704705591800,5.219591796875,-0.980621337890625,-0.2641754150390625,0.0585784912109375
1751013704715534800,5.229534912109375,-0.982086181640625,-0.2649993896484375,0.053802490234375
1751013704725479000,5.23947900390625,-0.98077392578125,-0.2659454345703125,0.0537567138671875
1751013704735422000,5.249421875,-0.978607177734375,-0.2653961181640625,0.055145263671875
1751013704745365000,5.259364990234375,-0.9774017333984375,-0.264678955078125,0.055084228515625
1751013704755309000,5.26930908203125,-0.9770660400390625,-0.266754150390625,0.05548095703125
1751013704765252000,5.279252197265625,-0.974273681640625,-0.268707275390625,0.0565338134765625
1751013704775196200,5.289196044921875,-0.971099853515625,-0.2701263427734375,0.0570220947265625
1751013704785139200,5.29913916015625,-0.9683990478515625,-0.27197265625,0.0581817626953125
1751013704795082000,5.30908203125,-0.9674224853515625,-0.2732391357421875,0.056396484375
1751013704805026000,5.319026123046875,-0.9674072265625,-0.2720794677734375,0.054412841796875
1751013704814969000,5.328968994140625,-0.9696502685546875,-0.2701568603515625,0.056396484375
1751013704824913200,5.3389130859375,-0.9708099365234375,-0.2685546875,0.0592803955078125
1751013704834856000,5.34885595703125,-0.9721527099609375,-0.2691802978515625,0.0606842041015625
1751013704844799000,5.358799072265625,-0.96905517578125,-0.2706146240234375,0.057464599609375
1751013704854743000,5.368742919921875,-0.9662933349609375,-0.27130126953125,0.053741455078125
1751013704864686000,5.37868603515625,-0.9657440185546875,-0.2731475830078125,0.051910400390625
1751013704874630000,5.3886298828125,-0.968902587890625,-0.272369384765625,0.049957275390625
1751013704884573000,5.398572998046875,-0.9755096435546875,-0.2721710205078125,0.052490234375
1751013704894517000,5.40851708984375,-0.9820556640625,-0.272247314453125,0.0567779541015625
1751013704904460000,5.4184599609375,-0.983856201171875,-0.2725830078125,0.060699462890625
1751013704914403000,5.428403076171875,-0.98663330078125,-0.271514892578125,0.0638427734375
1751013704924347000,5.438346923828125,-0.983795166015625,-0.27264404296875,0.0641021728515625
1751013704934290000,5.4482900390625,-0.9800872802734375,-0.2726593017578125,0.06182861328125
1751013704944234000,5.45823388671875,-0.973297119140625,-0.2737884521484375,0.059906005859375
1751013704954177000,5.468177001953125,-0.9721832275390625,-0.2751007080078125,0.058563232421875
1751013704964121000,5.47812109375,-0.9705047607421875,-0.2752685546875,0.0573577880859375
1751013704974064000,5.488064208984375,-0.969451904296875,-0.2756195068359375,0.0581817626953125
1751013704984007200,5.498007080078125,-0.9726715087890625,-0.277313232421875,0.0589599609375
1751013704993951000,5.507950927734375,-0.971435546875,-0.27960205078125,0.0575714111328125
1751013705003894000,5.51789404296875,-0.9683380126953125,-0.27899169921875,0.0564422607421875
1751013705013838000,5.527838134765625,-0.9686279296875,-0.2773590087890625,0.0576171875
1751013705023781000,5.537781005859375,-0.966644287109375,-0.277069091796875,0.0582427978515625
1751013705033724200,5.54772412109375,-0.9638214111328125,-0.2743682861328125,0.0589599609375
1751013705043668000,5.55766796875,-0.96868896484375,-0.27093505859375,0.059600830078125
1751013705053611000,5.567611083984375,-0.975738525390625,-0.2700347900390625,0.06201171875
1751013705063555000,5.57755517578125,-0.978607177734375,-0.2705535888671875,0.0621795654296875
1751013705073498000,5.587498046875,-0.979339599609375,-0.2721099853515625,0.0595703125
1751013705083442000,5.59744189453125,-0.97650146484375,-0.2745819091796875,0.057769775390625
1751013705093385000,5.607385009765625,-0.9711456298828125,-0.2765045166015625,0.0533905029296875
1751013705103328000,5.617327880859375,-0.9697265625,-0.277313232421875,0.0506134033203125
1751013705113272000,5.62727197265625,-0.971343994140625,-0.2757415771484375,0.0512237548828125
1751013705123214800,5.63721484375,-0.9761962890625,-0.2704620361328125,0.056976318359375
1751013705133159000,5.647158935546875,-0.980743408203125,-0.2658538818359375,0.0632781982421875
1751013705143102000,5.65710205078125,-0.982635498046875,-0.26568603515625,0.06829833984375
1751013705153045000,5.667044921875,-0.981170654296875,-0.2673797607421875,0.0667877197265625
1751013705162988800,5.67698876953125,-0.9785308837890625,-0.2704315185546875,0.0600128173828125
1751013705172931800,5.686931884765625,-0.97418212890625,-0.273193359375,0.0554046630859375
1751013705182876200,5.696876220703125,-0.9676513671875,-0.2754974365234375,0.052947998046875
1751013705192819200,5.706819091796875,-0.9663848876953125,-0.2772369384765625,0.053314208984375
1751013705202763000,5.716762939453125,-0.9670562744140625,-0.276397705078125,0.0543670654296875
1751013705212706000,5.7267060546875,-0.967315673828125,-0.2746734619140625,0.057373046875
1751013705222649000,5.736649169921875,-0.9688262939453125,-0.27374267578125,0.060791015625
1751013705232593200,5.74659326171875,-0.973388671875,-0.27386474609375,0.0602264404296875
1751013705242536200,5.7565361328125,-0.977752685546875,-0.2720489501953125,0.058380126953125
1751013705252480000,5.76647998046875,-0.9790802001953125,-0.2701873779296875,0.05657958984375
1751013705262423000,5.776423095703125,-0.9798583984375,-0.2692413330078125,0.0578460693359375
1751013705272366000,5.786365966796875,-0.9778594970703125,-0.26898193359375,0.0567779541015625
1751013705282310000,5.796309814453125,-0.9795989990234375,-0.2678070068359375,0.05499267578125
1751013705292253000,5.8062529296875,-0.9798126220703125,-0.2679290771484375,0.0539703369140625
1751013705302197000,5.816197021484375,-0.9793853759765625,-0.2687225341796875,0.0538177490234375
1751013705312140000,5.82614013671875,-0.9732208251953125,-0.26885986328125,0.055389404296875
1751013705322083800,5.836083740234375,-0.9687652587890625,-0.269989013671875,0.0558624267578125
1751013705332027000,5.84602685546875,-0.9665374755859375,-0.2728424072265625,0.0569000244140625
1751013705341970000,5.855969970703125,-0.9662322998046875,-0.273529052734375,0.05584716796875
1751013705351914000,5.8659140625,-0.968963623046875,-0.273193359375,0.055633544921875
1751013705361857000,5.87585693359375,-0.9742279052734375,-0.2745208740234375,0.0548248291015625
1751013705371800800,5.88580078125,-0.97723388671875,-0.2758331298828125,0.054473876953125
1751013705381743900,5.895743896484375,-0.9769134521484375,-0.272979736328125,0.0565643310546875
1751013705391687000,5.90568701171875,-0.97442626953125,-0.2712554931640625,0.059112548828125
1751013705401631200,5.91563134765625,-0.9722747802734375,-0.2724761962890625,0.05859375
1751013705411573800,5.92557373046875,-0.973541259765625,-0.2735443115234375,0.05487060546875
1751013705421518000,5.93551806640625,-0.9761810302734375,-0.2739410400390625,0.05218505859375
1751013705431461000,5.945461181640625,-0.9770355224609375,-0.2760772705078125,0.051361083984375
1751013705441405200,5.9554052734375,-0.9764556884765625,-0.2777099609375,0.0505218505859375
1751013705451348000,5.965347900390625,-0.978515625,-0.2779388427734375,0.0502471923828125
1751013705461291000,5.975291015625,-0.979522705078125,-0.27740478515625,0.051116943359375
1751013705471235000,5.985235107421875,-0.9765167236328125,-0.2762298583984375,0.05426025390625
1751013705481178000,5.99517822265625,-0.9733428955078125,-0.27484130859375,0.0564422607421875
1751013705491122000,6.005121826171875,-0.9723052978515625,-0.272216796875,0.056793212890625
1751013705501065000,6.01506494140625,-0.9714202880859375,-0.2704925537109375,0.056610107421875
1751013705511009000,6.025009033203125,-0.9745941162109375,-0.2681884765625,0.057159423828125
1751013705520952000,6.0349521484375,-0.9814910888671875,-0.26806640625,0.056793212890625
1751013705530895000,6.04489501953125,-0.98529052734375,-0.2685394287109375,0.0561676025390625
1751013705540839000,6.0548388671875,-0.9845733642578125,-0.2687225341796875,0.0543975830078125
1751013705550782000,6.064781982421875,-0.9836883544921875,-0.269775390625,0.052459716796875
1751013705560726000,6.07472607421875,-0.98236083984375,-0.270751953125,0.0519561767578125
1751013705570669000,6.0846689453125,-0.9770660400390625,-0.27362060546875,0.052947998046875
1751013705580611800,6.09461181640625,-0.9708404541015625,-0.277587890625,0.0536956787109375
1751013705590556000,6.104555908203125,-0.9714508056640625,-0.2787933349609375,0.053436279296875
1751013705600498400,6.11449853515625,-0.970245361328125,-0.278594970703125,0.052825927734375
1751013705610442800,6.12444287109375,-0.96990966796875,-0.2781219482421875,0.0555877685546875
1751013705620385500,6.134385498046875,-0.971435546875,-0.2747344970703125,0.059661865234375
1751013705630329600,6.14432958984375,-0.9710693359375,-0.2721405029296875,0.058807373046875
1751013705640272600,6.154272705078125,-0.9724884033203125,-0.2726287841796875,0.0543670654296875
1751013705650215700,6.164215576171875,-0.974609375,-0.2723388671875,0.051025390625
1751013705660159500,6.174159423828125,-0.9773406982421875,-0.2715301513671875,0.0500640869140625
1751013705670102500,6.1841025390625,-0.97576904296875,-0.272796630859375,0.0494537353515625
1751013705680046600,6.194046630859375,-0.9741363525390625,-0.2733154296875,0.05035400390625
1751013705689989600,6.20398974609375,-0.9747772216796875,-0.2742767333984375,0.05328369140625
1751013705699932700,6.2139326171875,-0.9746551513671875,-0.2752227783203125,0.0550994873046875
1751013705709876500,6.22387646484375,-0.9756927490234375,-0.2738189697265625,0.0562286376953125
1751013705719819500,6.233819580078125,-0.973846435546875,-0.2738800048828125,0.0563812255859375
1751013705729763600,6.243763671875,-0.97137451171875,-0.2750244140625,0.0555267333984375
1751013705739706600,6.25370654296875,-0.96600341796875,-0.27569580078125,0.052459716796875
1751013705749650400,6.263650390625,-0.9646759033203125,-0.27569580078125,0.04840087890625
1751013705759593500,6.273593505859375,-0.966552734375,-0.2759246826171875,0.0492401123046875
1751013705769536500,6.28353662109375,-0.9687347412109375,-0.2751312255859375,0.05181884765625
1751013705779480600,6.29348046875,-0.972076416015625,-0.2739105224609375,0.0523223876953125
1751013705789423400,6.30342333984375,-0.9746246337890625,-0.27325439453125,0.0545654296875
1751013705799367400,6.313367431640625,-0.9759979248046875,-0.2714385986328125,0.05596923828125
1751013705809310500,6.323310546875,-0.977935791015625,-0.270172119140625,0.0585784912109375
1751013705819254500,6.333254638671875,-0.979156494140625,-0.2723541259765625,0.0565338134765625
1751013705829197600,6.343197509765625,-0.9779205322265625,-0.274993896484375,0.051422119140625
1751013705839140600,6.353140625,-0.9756011962890625,-0.2745819091796875,0.0482177734375
1751013705849084700,6.363084716796875,-0.97845458984375,-0.2754058837890625,0.048583984375
1751013705859027700,6.37302783203125,-0.978790283203125,-0.2784423828125,0.0502471923828125
1751013705868971500,6.382971435546875,-0.973907470703125,-0.27618408203125,0.052154541015625
1751013705878914600,6.39291455078125,-0.971893310546875,-0.2732391357421875,0.054534912109375
1751013705888857600,6.402857666015625,-0.9692535400390625,-0.274688720703125,0.054412841796875
1751013705898801700,6.4128017578125,-0.9683837890625,-0.276702880859375,0.0560760498046875
1751013705908744400,6.422744384765625,-0.9691925048828125,-0.276031494140625,0.0542144775390625
1751013705918688500,6.4326884765625,-0.9722900390625,-0.2762451171875,0.053009033203125
1751013705928631600,6.442631591796875,-0.9747467041015625,-0.27764892578125,0.05169677734375
1751013705938575600,6.45257568359375,-0.9739990234375,-0.2782135009765625,0.0507354736328125
1751013705948518400,6.462518310546875,-0.9742431640625,-0.276275634765625,0.0527801513671875
1751013705958461400,6.47246142578125,-0.9717864990234375,-0.2767181396484375,0.053924560546875
1751013705968405500,6.482405517578125,-0.97149658203125,-0.278656005859375,0.051483154296875
1751013705978348500,6.4923486328125,-0.9709014892578125,-0.2776641845703125,0.0490570068359375
1751013705988292400,6.502292236328125,-0.96868896484375,-0.276214599609375,0.0510711669921875
1751013705998235400,6.5122353515625,-0.9689788818359375,-0.2768707275390625,0.0533599853515625
1751013706008178400,6.522178466796875,-0.969024658203125,-0.278472900390625,0.0507659912109375
1751013706018122500,6.53212255859375,-0.972991943359375,-0.2778778076171875,0.0497589111328125
1751013706028065500,6.5420654296875,-0.9739532470703125,-0.2769012451171875,0.05181884765625
1751013706038009600,6.552009521484375,-0.97723388671875,-0.276947021484375,0.0529327392578125
1751013706047952600,6.56195263671875,-0.980682373046875,-0.276092529296875,0.052337646484375
1751013706057896700,6.571896728515625,-0.9786529541015625,-0.27557373046875,0.0518646240234375
1751013706067839700,6.58183984375,-0.9785003662109375,-0.2747650146484375,0.0526275634765625
1751013706077782500,6.591782470703125,-0.977752685546875,-0.27386474609375,0.050689697265625
1751013706087726600,6.6017265625,-0.9779205322265625,-0.2731781005859375,0.0477447509765625
1751013706097669600,6.611669677734375,-0.9761962890625,-0.2751922607421875,0.0481109619140625
1751013706107613400,6.621613525390625,-0.974090576171875,-0.27703857421875,0.0503692626953125
1751013706117556500,6.631556396484375,-0.970550537109375,-0.27838134765625,0.0519256591796875
1751013706127500500,6.64150048828125,-0.96685791015625,-0.2791595458984375,0.0507965087890625
1751013706137443600,6.651443603515625,-0.96539306640625,-0.279754638671875,0.048492431640625
1751013706147386600,6.66138671875,-0.966278076171875,-0.279998779296875,0.0476531982421875
1751013706157330400,6.671330322265625,-0.9677581787109375,-0.27978515625,0.047027587890625
1751013706167273500,6.6812734375,-0.9678955078125,-0.278594970703125,0.0477447509765625
1751013706177217500,6.691217529296875,-0.9699249267578125,-0.2761077880859375,0.0477752685546875
1751013706187160600,6.70116064453125,-0.972137451171875,-0.2758941650390625,0.0519256591796875
1751013706197103600,6.711103515625,-0.973114013671875,-0.276153564453125,0.0533599853515625
1751013706207047400,6.72104736328125,-0.9735870361328125,-0.275146484375,0.051422119140625
1751013706216990500,6.730990478515625,-0.9749908447265625,-0.2756500244140625,0.049530029296875
1751013706226934500,6.7409345703125,-0.9748687744140625,-0.2776947021484375,0.046112060546875
1751013706236877600,6.750877685546875,-0.970794677734375,-0.2786865234375,0.045654296875
1751013706246821600,6.760821533203125,-0.9664459228515625,-0.2775115966796875,0.04736328125
1751013706256764700,6.7707646484375,-0.9678802490234375,-0.27655029296875,0.0505523681640625
1751013706266707700,6.780707763671875,-0.9722137451171875,-0.2765350341796875,0.0535125732421875
1751013706276651500,6.790651611328125,-0.9756011962890625,-0.2766571044921875,0.0553131103515625
1751013706286594600,6.800594482421875,-0.978790283203125,-0.2756500244140625,0.0538330078125
1751013706296538600,6.81053857421875,-0.981597900390625,-0.275390625,0.054901123046875
1751013706306481700,6.820481689453125,-0.9811248779296875,-0.275482177734375,0.0561065673828125
1751013706316424700,6.8304248046875,-0.9779205322265625,-0.27606201171875,0.0549774169921875
1751013706326368500,6.840368408203125,-0.973724365234375,-0.2767791748046875,0.0540924072265625
1751013706336311600,6.8503115234375,-0.96978759765625,-0.278167724609375,0.05029296875
1751013706346255600,6.860255615234375,-0.9697723388671875,-0.278076171875,0.0465545654296875
1751013706356198700,6.87019873046875,-0.970489501953125,-0.2801971435546875,0.045501708984375
1751013706366142500,6.880142578125,-0.9720306396484375,-0.2818145751953125,0.0465087890625
1751013706376085500,6.89008544921875,-0.975921630859375,-0.282318115234375,0.046234130859375
1751013706386028500,6.900028564453125,-0.98114013671875,-0.27978515625,0.049957275390625
1751013706395972600,6.90997265625,-0.9825286865234375,-0.2763214111328125,0.053131103515625
1751013706405915400,6.919915283203125,-0.983642578125,-0.2751312255859375,0.0553436279296875
1751013706415859500,6.929859375,-0.9802703857421875,-0.2758941650390625,0.0561370849609375
1751013706425802500,6.939802490234375,-0.9726104736328125,-0.2765655517578125,0.0534515380859375
1751013706435746300,6.949746337890625,-0.967742919921875,-0.2772216796875,0.049835205078125
1751013706445689300,6.959689453125,-0.967498779296875,-0.2757720947265625,0.04644775390625
1751013706455632400,6.96963232421875,-0.970245361328125,-0.2774658203125,0.04705810546875
1751013706465576700,6.97957666015625,-0.97247314453125,-0.2783050537109375,0.04931640625
1751013706475519700,6.989519775390625,-0.9788665771484375,-0.2776031494140625,0.052520751953125
1751013706485463600,6.999463623046875,-0.9788055419921875,-0.277862548828125,0.0544586181640625
1751013706495406600,7.009406494140625,-0.9758453369140625,-0.279144287109375,0.0536346435546875
1751013706505349600,7.019349609375,-0.9727325439453125,-0.2778167724609375,0.051971435546875
1751013706515293700,7.029293701171875,-0.96661376953125,-0.277130126953125,0.0524749755859375
1751013706525236500,7.039236572265625,-0.9612579345703125,-0.2795562744140625,0.051055908203125
1751013706535180500,7.0491806640625,-0.959747314453125,-0.2799835205078125,0.04779052734375
1751013706545123600,7.05912353515625,-0.9640350341796875,-0.278411865234375,0.0467071533203125
1751013706555067600,7.069067626953125,-0.9675445556640625,-0.278594970703125,0.0497589111328125
1751013706565010400,7.079010498046875,-0.973052978515625,-0.276458740234375,0.05035400390625
1751013706574953500,7.088953369140625,-0.979736328125,-0.2754058837890625,0.0517120361328125
1751013706584897500,7.0988974609375,-0.9791107177734375,-0.276214599609375,0.0520477294921875
1751013706594840600,7.108840576171875,-0.9783935546875,-0.276702880859375,0.049957275390625
1751013706604785200,7.11878515625,-0.9755401611328125,-0.276336669921875,0.0489349365234375
1751013706614728200,7.128728271484375,-0.9688262939453125,-0.2761993408203125,0.0514984130859375
1751013706624672300,7.13867236328125,-0.9666900634765625,-0.276214599609375,0.05242919921875
1751013706634615300,7.148615234375,-0.9685211181640625,-0.2774810791015625,0.0499725341796875
1751013706644558000,7.15855810546875,-0.9708251953125,-0.277587890625,0.048919677734375
1751013706654502100,7.168502197265625,-0.9738311767578125,-0.2764434814453125,0.0481719970703125
1751013706664445200,7.178445068359375,-0.97705078125,-0.275421142578125,0.049530029296875
1751013706674389200,7.18838916015625,-0.978271484375,-0.2761077880859375,0.0511627197265625
1751013706684332300,7.198332275390625,-0.9763641357421875,-0.2754058837890625,0.0504913330078125
1751013706694275000,7.208275146484375,-0.9738311767578125,-0.2751007080078125,0.0489044189453125
1751013706704219400,7.218219482421875,-0.969268798828125,-0.2764892578125,0.050384521484375
1751013706714162400,7.228162353515625,-0.9689178466796875,-0.2792510986328125,0.048614501953125
1751013706724106200,7.238106201171875,-0.9681549072265625,-0.280853271484375,0.04705810546875
1751013706734049300,7.24804931640625,-0.9688873291015625,-0.278900146484375,0.04791259765625
1751013706743993300,7.257993408203125,-0.9708251953125,-0.2772216796875,0.0485076904296875
1751013706753936400,7.267936279296875,-0.970916748046875,-0.2796478271484375,0.0510711669921875
1751013706763879400,7.27787939453125,-0.970794677734375,-0.2786102294921875,0.050872802734375
1751013706773823200,7.2878232421875,-0.969146728515625,-0.2782440185546875,0.0499267578125
1751013706783766300,7.297766357421875,-0.9693756103515625,-0.27838134765625,0.0505828857421875
1751013706793710300,7.30771044921875,-0.9703216552734375,-0.2779083251953125,0.049346923828125
1751013706803653000,7.317653076171875,-0.9687347412109375,-0.2782745361328125,0.0502471923828125
1751013706813596200,7.32759619140625,-0.9684295654296875,-0.277099609375,0.05169677734375
1751013706823540200,7.337540283203125,-0.9746856689453125,-0.276519775390625,0.0543212890625
1751013706833483300,7.347483154296875,-0.9780426025390625,-0.276611328125,0.0556182861328125
1751013706843427000,7.357427001953125,-0.9792633056640625,-0.2760467529296875,0.0557861328125
1751013706853370000,7.3673701171875,-0.9761199951171875,-0.2737274169921875,0.056060791015625
1751013706863314200,7.377314208984375,-0.9720001220703125,-0.27392578125,0.054168701171875
1751013706873257200,7.38725732421875,-0.9704437255859375,-0.2739410400390625,0.053680419921875
1751013706883200300,7.3972001953125,-0.969940185546875,-0.27294921875,0.05426025390625
1751013706893144300,7.407144287109375,-0.9693145751953125,-0.2725372314453125,0.052520751953125
1751013706903087000,7.417087158203125,-0.9732513427734375,-0.272705078125,0.0506134033203125
1751013706913031400,7.427031494140625,-0.9766387939453125,-0.2745819091796875,0.051239013671875
1751013706922974500,7.436974365234375,-0.9763336181640625,-0.2742462158203125,0.052398681640625
1751013706932918300,7.446918212890625,-0.9767608642578125,-0.273284912109375,0.0527191162109375
1751013706942861300,7.456861328125,-0.9728851318359375,-0.2751617431640625,0.052520751953125
1751013706952804400,7.466804443359375,-0.973846435546875,-0.274932861328125,0.051025390625
1751013706962748400,7.47674853515625,-0.97607421875,-0.272857666015625,0.0513153076171875
1751013706972691200,7.486691162109375,-0.9735565185546875,-0.2718505859375,0.050811767578125
1751013706982635300,7.49663525390625,-0.974456787109375,-0.274139404296875,0.0484619140625
1751013706992578300,7.506578369140625,-0.974639892578125,-0.2745361328125,0.04656982421875
1751013707002521300,7.516521240234375,-0.97186279296875,-0.2732086181640625,0.0437164306640625
1751013707012465200,7.526465087890625,-0.971588134765625,-0.2724761962890625,0.044189453125
1751013707022408200,7.536408203125,-0.973785400390625,-0.2712860107421875,0.0477752685546875
1751013707032352300,7.546352294921875,-0.9741668701171875,-0.27252197265625,0.0495147705078125
1751013707042295300,7.55629541015625,-0.9746246337890625,-0.2728729248046875,0.049285888671875
1751013707052239000,7.566239013671875,-0.9774627685546875,-0.2724761962890625,0.04888916015625
1751013707062182100,7.57618212890625,-0.978668212890625,-0.2714996337890625,0.0499267578125
1751013707072125200,7.586125244140625,-0.9784088134765625,-0.27276611328125,0.048492431640625
1751013707082069200,7.5960693359375,-0.97906494140625,-0.2732086181640625,0.0469970703125
1751013707092012300,7.60601220703125,-0.9791717529296875,-0.2733001708984375,0.046783447265625
1751013707101956400,7.615956298828125,-0.9789581298828125,-0.272918701171875,0.045379638671875
1751013707111899100,7.625899169921875,-0.976348876953125,-0.2744903564453125,0.0465545654296875
1751013707121843500,7.635843505859375,-0.97479248046875,-0.2746429443359375,0.0458831787109375
1751013707131786200,7.6457861328125,-0.972442626953125,-0.2738189697265625,0.0451812744140625
1751013707141729300,7.655729248046875,-0.9729156494140625,-0.27545166015625,0.0452423095703125
1751013707151673300,7.66567333984375,-0.9762420654296875,-0.275604248046875,0.0452423095703125
1751013707161616400,7.675616455078125,-0.97955322265625,-0.2759246826171875,0.0449981689453125
1751013707171560200,7.685560302734375,-0.9785003662109375,-0.275848388671875,0.0450439453125
1751013707181503200,7.695503173828125,-0.97821044921875,-0.2747344970703125,0.0433349609375
1751013707191446300,7.7054462890625,-0.9764862060546875,-0.27545166015625,0.04510498046875
1751013707201390300,7.715390380859375,-0.9757843017578125,-0.2738494873046875,0.0480194091796875
1751013707211333400,7.72533349609375,-0.9759674072265625,-0.271026611328125,0.0502777099609375
1751013707221277200,7.735277099609375,-0.9772796630859375,-0.2723541259765625,0.0505218505859375
1751013707231220200,7.74522021484375,-0.9761505126953125,-0.27301025390625,0.0496063232421875
1751013707241164300,7.755164306640625,-0.9762725830078125,-0.272247314453125,0.0476837158203125
1751013707251107300,7.765107421875,-0.9771575927734375,-0.2718353271484375,0.0463409423828125
1751013707261050000,7.775050048828125,-0.9775390625,-0.2718963623046875,0.04595947265625
1751013707270994200,7.784994140625,-0.976959228515625,-0.273040771484375,0.04510498046875
1751013707280937200,7.794937255859375,-0.97418212890625,-0.272674560546875,0.0441131591796875
1751013707290881300,7.80488134765625,-0.9730682373046875,-0.270721435546875,0.044708251953125
1751013707300824000,7.814823974609375,-0.973236083984375,-0.26910400390625,0.04840087890625
1751013707310767000,7.82476708984375,-0.9733428955078125,-0.2706298828125,0.052642822265625
1751013707320711200,7.834711181640625,-0.9730072021484375,-0.270904541015625,0.050323486328125
1751013707330654200,7.844654296875,-0.9716796875,-0.269439697265625,0.0478057861328125
1751013707340598300,7.854598388671875,-0.970123291015625,-0.2707366943359375,0.044891357421875
1751013707350541300,7.864541259765625,-0.9678192138671875,-0.2725372314453125,0.0410919189453125
1751013707360485400,7.8744853515625,-0.9666900634765625,-0.2719573974609375,0.0411529541015625
1751013707370428400,7.884428466796875,-0.9690093994140625,-0.2695465087890625,0.044677734375
1751013707380371500,7.894371337890625,-0.976959228515625,-0.2693939208984375,0.046356201171875
1751013707390315300,7.904315185546875,-0.972808837890625,-0.272125244140625,0.056427001953125
1751013707400258300,7.91425830078125,-0.9745330810546875,-0.2694091796875,0.0550689697265625
1751013707410202400,7.924202392578125,-0.9770660400390625,-0.2687225341796875,0.0453643798828125
1751013707420145200,7.934145263671875,-0.9765777587890625,-0.2705841064453125,0.043548583984375
1751013707430089200,7.944089111328125,-0.97357177734375,-0.27325439453125,0.0469512939453125
1751013707440032300,7.9540322265625,-0.9701080322265625,-0.2730560302734375,0.0487518310546875
1751013707449975300,7.963975341796875,-0.9712982177734375,-0.2749786376953125,0.0504302978515625
1751013707459919000,7.973919189453125,-0.96533203125,-0.2772216796875,0.044647216796875
1751013707469862100,7.983862060546875,-0.973358154296875,-0.2756195068359375,0.043975830078125
1751013707479806200,7.99380615234375,-0.97161865234375,-0.2771148681640625,0.0449371337890625
1751013707489749200,8.003749267578126,-0.9703369140625,-0.275482177734375,0.04510498046875
1751013707499692300,8.0136923828125,-0.9762420654296875,-0.272247314453125,0.0470733642578125
1751013707509636000,8.023635986328125,-0.9788818359375,-0.273040771484375,0.0487518310546875
1751013707519579100,8.0335791015625,-0.982879638671875,-0.272613525390625,0.04827880859375
1751013707529523500,8.0435234375,-0.9850921630859375,-0.2681427001953125,0.0487518310546875
1751013707539466200,8.05346630859375,-0.98211669921875,-0.267791748046875,0.0501708984375
1751013707549410300,8.063410400390625,-0.980377197265625,-0.2696075439453125,0.0490570068359375
1751013707559353300,8.073353271484375,-0.9791412353515625,-0.2693634033203125,0.0457305908203125
1751013707569296400,8.08329638671875,-0.97509765625,-0.2698822021484375,0.0447998046875
1751013707579240400,8.093240478515625,-0.973724365234375,-0.270965576171875,0.0445404052734375
1751013707589183200,8.103183349609376,-0.975341796875,-0.2725372314453125,0.0454254150390625
1751013707599127300,8.113127197265625,-0.9765167236328125,-0.274169921875,0.046478271484375
1751013707609070000,8.123070068359375,-0.97601318359375,-0.274993896484375,0.0480804443359375
1751013707619014100,8.13301416015625,-0.973236083984375,-0.27545166015625,0.0496826171875
1751013707628957000,8.14295703125,-0.9747161865234375,-0.2720947265625,0.0494384765625
1751013707638900000,8.15289990234375,-0.9760589599609375,-0.27166748046875,0.0494232177734375
1751013707648844300,8.16284423828125,-0.971923828125,-0.2723388671875,0.0523223876953125
1751013707658787000,8.172787109375,-0.9722442626953125,-0.272430419921875,0.0529632568359375
1751013707668731100,8.182731201171874,-0.975067138671875,-0.27166748046875,0.0493316650390625
1751013707678674200,8.192674072265625,-0.9792938232421875,-0.2731170654296875,0.0455474853515625
1751013707688617200,8.2026171875,-0.978607177734375,-0.2744598388671875,0.0459136962890625
1751013707698561300,8.212561279296875,-0.976470947265625,-0.2730255126953125,0.0465087890625
1751013707708504300,8.22250439453125,-0.9794921875,-0.2708587646484375,0.04815673828125
1751013707718448000,8.2324482421875,-0.98150634765625,-0.271575927734375,0.0506134033203125
1751013707728391200,8.24239111328125,-0.9816436767578125,-0.2700347900390625,0.052825927734375
1751013707738335200,8.252335205078126,-0.9796600341796875,-0.2700653076171875,0.0519256591796875
1751013707748278000,8.262278076171874,-0.9766998291015625,-0.27008056640625,0.051910400390625
1751013707758221000,8.272220947265625,-0.971221923828125,-0.270782470703125,0.05120849609375
1751013707768165000,8.2821650390625,-0.9689788818359375,-0.2701416015625,0.0496368408203125
1751013707778108200,8.292108154296875,-0.9680938720703125,-0.2721710205078125,0.048736572265625
1751013707788052000,8.302052001953125,-0.97027587890625,-0.272979736328125,0.0469818115234375
1751013707797995000,8.3119951171875,-0.9720001220703125,-0.2726898193359375,0.0475921630859375
1751013707807939000,8.32193896484375,-0.970123291015625,-0.2738494873046875,0.0510101318359375
1751013707817882000,8.331882080078126,-0.9687347412109375,-0.2721710205078125,0.0529937744140625
1751013707827825200,8.3418251953125,-0.9684295654296875,-0.271484375,0.0510406494140625
1751013707837769000,8.35176904296875,-0.967926025390625,-0.270538330078125,0.0501708984375
1751013707847712000,8.3617119140625,-0.9671783447265625,-0.2698974609375,0.0495147705078125
1751013707857656300,8.37165625,-0.969970703125,-0.2678375244140625,0.047882080078125
1751013707867599400,8.381599365234376,-0.9730072021484375,-0.265960693359375,0.0496826171875
1751013707877543200,8.391543212890625,-0.9721832275390625,-0.2668304443359375,0.050323486328125
1751013707887486200,8.401486328125,-0.97308349609375,-0.2690277099609375,0.049530029296875
1751013707897429200,8.41142919921875,-0.9727783203125,-0.2705078125,0.0459747314453125
1751013707907373300,8.421373291015625,-0.96929931640625,-0.27154541015625,0.0428466796875
1751013707917316000,8.431316162109376,-0.9678802490234375,-0.2711944580078125,0.044219970703125
1751013707927260200,8.44126025390625,-0.9695281982421875,-0.2695770263671875,0.045654296875
1751013707937203200,8.451203125,-0.9731292724609375,-0.2680206298828125,0.049163818359375
1751013707947146200,8.461146240234376,-0.980010986328125,-0.2672271728515625,0.0518035888671875
1751013707957090000,8.471090087890625,-0.980621337890625,-0.2669677734375,0.052093505859375
1751013707967033000,8.481033203125,-0.97412109375,-0.2671051025390625,0.0523223876953125
1751013707976977200,8.49097705078125,-0.9691009521484375,-0.2687530517578125,0.050262451171875
1751013707986920200,8.500920166015625,-0.968536376953125,-0.272308349609375,0.042999267578125
1751013707996864000,8.510864013671876,-0.96392822265625,-0.2764434814453125,0.04541015625
1751013708006807000,8.52080712890625,-0.9567718505859375,-0.2805023193359375,0.047332763671875
1751013708016750000,8.53075,-0.9676513671875,-0.27899169921875,0.048828125
1751013708026694100,8.540694091796874,-0.96783447265625,-0.2843170166015625,0.0505218505859375
1751013708036637200,8.55063720703125,-0.9756011962890625,-0.28076171875,0.0483551025390625
1751013708046581000,8.5605810546875,-0.9818878173828125,-0.278289794921875,0.04669189453125
1751013708056524000,8.57052392578125,-0.9810028076171875,-0.27978515625,0.0447845458984375
1751013708066468400,8.58046826171875,-0.981414794921875,-0.2787933349609375,0.044769287109375
1751013708076411100,8.5904111328125,-0.9798431396484375,-0.2767791748046875,0.045379638671875
1751013708086354000,8.60035400390625,-0.9783172607421875,-0.27752685546875,0.0450897216796875
1751013708096298200,8.61029833984375,-0.9767303466796875,-0.2816314697265625,0.0443878173828125
1751013708106241300,8.6202412109375,-0.9787750244140625,-0.2799224853515625,0.046966552734375
1751013708116185000,8.63018505859375,-0.9806976318359375,-0.2777862548828125,0.0480499267578125
1751013708126128000,8.640128173828124,-0.982666015625,-0.276153564453125,0.046630859375
1751013708136072200,8.650072265625,-0.9839630126953125,-0.27685546875,0.04840087890625
1751013708146015200,8.66001513671875,-0.9845428466796875,-0.27777099609375,0.05133056640625
1751013708155958300,8.669958251953124,-0.98138427734375,-0.2769012451171875,0.052825927734375
1751013708165902000,8.679902099609375,-0.9777679443359375,-0.27423095703125,0.053375244140625
1751013708175845000,8.68984521484375,-0.9721832275390625,-0.2762603759765625,0.052734375
1751013708185789200,8.6997890625,-0.96917724609375,-0.27685546875,0.050811767578125
1751013708195732200,8.709732177734375,-0.9680328369140625,-0.2745819091796875,0.04974365234375
1751013708205675000,8.719675048828124,-0.9676361083984375,-0.2732696533203125,0.0479736328125
1751013708215619000,8.729619140625,-0.9708404541015625,-0.2731170654296875,0.047882080078125
1751013708225562000,8.73956201171875,-0.9719390869140625,-0.271514892578125,0.0465087890625
1751013708235506200,8.749506103515625,-0.970672607421875,-0.270172119140625,0.0462493896484375
1751013708245449000,8.759448974609375,-0.972381591796875,-0.27020263671875,0.048614501953125
1751013708255393000,8.76939306640625,-0.973114013671875,-0.269439697265625,0.0500946044921875
1751013708265336000,8.779336181640625,-0.969482421875,-0.2698516845703125,0.0474853515625
1751013708275279000,8.789279052734376,-0.9700775146484375,-0.271881103515625,0.04437255859375
1751013708285223200,8.79922314453125,-0.970306396484375,-0.2726593017578125,0.047149658203125
1751013708295166000,8.809166015625,-0.972137451171875,-0.2713623046875,0.0497894287109375
1751013708305110300,8.8191103515625,-0.968536376953125,-0.2762603759765625,0.0556488037109375
1751013708315053300,8.82905322265625,-0.9696044921875,-0.2743072509765625,0.055389404296875
1751013708324997000,8.8389970703125,-0.97235107421875,-0.2738189697265625,0.052337646484375
1751013708334940200,8.848940185546875,-0.9716949462890625,-0.2765045166015625,0.0533905029296875
1751013708344883200,8.85888330078125,-0.96990966796875,-0.277496337890625,0.0532073974609375
1751013708354827300,8.8688271484375,-0.965667724609375,-0.280731201171875,0.0555877685546875
1751013708364770000,8.87877001953125,-0.9647369384765625,-0.28338623046875,0.053863525390625
1751013708374714000,8.888714111328126,-0.9637451171875,-0.2859649658203125,0.0508575439453125
1751013708384657200,8.8986572265625,-0.963134765625,-0.288818359375,0.04986572265625
1751013708394601200,8.908601318359375,-0.9671783447265625,-0.287017822265625,0.050079345703125
1751013708404544000,8.9185439453125,-0.9673919677734375,-0.2838592529296875,0.05108642578125
1751013708414487000,8.928487060546875,-0.9736785888671875,-0.2801055908203125,0.05218505859375
1751013708424431000,8.93843115234375,-0.9840850830078125,-0.2780914306640625,0.053192138671875
1751013708434374100,8.9483740234375,-0.98974609375,-0.277740478515625,0.0522613525390625
1751013708444318000,8.95831787109375,-0.9912261962890625,-0.2779388427734375,0.0477447509765625
1751013708454261000,8.968260986328126,-0.9882965087890625,-0.279296875,0.04248046875
1751013708464204000,8.9782041015625,-0.98388671875,-0.282135009765625,0.04052734375
1751013708474148000,8.988148193359375,-0.9794158935546875,-0.2824859619140625,0.04168701171875
1751013708484091100,8.998091064453124,-0.9825592041015625,-0.281341552734375,0.0408477783203125
1751013708494035200,9.00803515625,-0.9865570068359375,-0.279510498046875,0.04412841796875
1751013708503978000,9.01797802734375,-0.9889984130859375,-0.2791900634765625,0.0504608154296875
1751013708513922300,9.02792236328125,-0.98516845703125,-0.2781982421875,0.052215576171875
1751013708523865300,9.037865234375,-0.9808197021484375,-0.2764892578125,0.0520172119140625
1751013708533808000,9.04780810546875,-0.97894287109375,-0.2764129638671875,0.0512847900390625
1751013708543752200,9.057752197265625,-0.9738311767578125,-0.2770843505859375,0.0514068603515625
1751013708553695200,9.0676953125,-0.9707183837890625,-0.2775421142578125,0.0520477294921875
1751013708563639000,9.07763916015625,-0.966400146484375,-0.2793426513671875,0.0492706298828125
1751013708573582000,9.08758203125,-0.967498779296875,-0.2801055908203125,0.048004150390625
1751013708583526100,9.097526123046874,-0.9663238525390625,-0.2808837890625,0.047698974609375
1751013708593469200,9.10746923828125,-0.9678955078125,-0.2816009521484375,0.046112060546875
1751013708603412700,9.117412841796876,-0.974639892578125,-0.2818603515625,0.04962158203125
1751013708613356500,9.1273564453125,-0.9730377197265625,-0.2819061279296875,0.053985595703125
1751013708623299600,9.137299560546875,-0.9699554443359375,-0.2790374755859375,0.0533294677734375
1751013708633243600,9.14724365234375,-0.9702606201171875,-0.277862548828125,0.0550537109375
1751013708643186700,9.157186767578125,-0.9730987548828125,-0.278839111328125,0.0546722412109375
1751013708653129500,9.16712939453125,-0.9729766845703125,-0.278228759765625,0.0564422607421875
1751013708663073500,9.177073486328124,-0.97039794921875,-0.27734375,0.057952880859375
1751013708673016600,9.1870166015625,-0.9691619873046875,-0.275604248046875,0.0561981201171875
1751013708682960600,9.196960693359374,-0.969696044921875,-0.2764892578125,0.055389404296875
1751013708692903400,9.2069033203125,-0.9681854248046875,-0.2783355712890625,0.0546417236328125
1751013708702847700,9.21684765625,-0.9664764404296875,-0.2792510986328125,0.054229736328125
1751013708712790800,9.226790771484374,-0.965850830078125,-0.281097412109375,0.0525665283203125
1751013708722734600,9.236734619140625,-0.966552734375,-0.28369140625,0.051666259765625
1751013708732677600,9.246677734375,-0.965087890625,-0.2841339111328125,0.0511932373046875
1751013708742620700,9.25662060546875,-0.968231201171875,-0.283172607421875,0.0530242919921875
1751013708752564700,9.266564697265625,-0.9705810546875,-0.2837982177734375,0.055328369140625
1751013708762507800,9.2765078125,-0.96923828125,-0.283447265625,0.058685302734375
1751013708772451600,9.28645166015625,-0.9642181396484375,-0.2860107421875,0.0624847412109375
1751013708782394600,9.29639453125,-0.9655303955078125,-0.2828826904296875,0.0594635009765625
1751013708792337700,9.306337646484375,-0.97076416015625,-0.2844085693359375,0.055389404296875
1751013708802281700,9.31628173828125,-0.9723968505859375,-0.28759765625,0.053863525390625
1751013708812224500,9.326224609375,-0.9707794189453125,-0.286163330078125,0.0533447265625
1751013708822168600,9.33616845703125,-0.967559814453125,-0.283660888671875,0.0533599853515625
1751013708832111600,9.346111572265626,-0.967926025390625,-0.2857513427734375,0.0498046875
1751013708842055700,9.3560556640625,-0.9698333740234375,-0.282562255859375,0.051849365234375
1751013708851998500,9.36599853515625,-0.971710205078125,-0.2823486328125,0.05096435546875
1751013708861941500,9.37594140625,-0.979217529296875,-0.284393310546875,0.0481109619140625
1751013708871885600,9.385885498046875,-0.97955322265625,-0.2835845947265625,0.0480804443359375
1751013708881828600,9.39582861328125,-0.98016357421875,-0.282501220703125,0.0475006103515625
1751013708891772700,9.405772705078125,-0.97613525390625,-0.2822265625,0.0480499267578125
1751013708901715500,9.415715576171875,-0.9718475341796875,-0.2831878662109375,0.0519866943359375
1751013708911659800,9.42565966796875,-0.9715576171875,-0.28411865234375,0.050445556640625
1751013708921602800,9.435602783203125,-0.96771240234375,-0.2869720458984375,0.0468597412109375
1751013708931545900,9.4455458984375,-0.9686279296875,-0.286376953125,0.0482025146484375
1751013708941489700,9.45548974609375,-0.9742431640625,-0.286346435546875,0.0487823486328125
1751013708951432700,9.4654326171875,-0.9754486083984375,-0.2858734130859375,0.0481109619140625
1751013708961376800,9.475376708984374,-0.9770050048828125,-0.28179931640625,0.0503692626953125
1751013708971319600,9.485319580078125,-0.9785919189453125,-0.27935791015625,0.0537872314453125
1751013708981262600,9.4952626953125,-0.9763336181640625,-0.2814178466796875,0.051910400390625
1751013708991206700,9.50520654296875,-0.970489501953125,-0.2831268310546875,0.0495452880859375
1751013709001149700,9.515149658203125,-0.96746826171875,-0.2825164794921875,0.046539306640625
1751013709011093500,9.525093505859376,-0.96826171875,-0.2830810546875,0.04608154296875
1751013709021036500,9.53503662109375,-0.9701080322265625,-0.2851104736328125,0.044158935546875
1751013709030980600,9.544980712890625,-0.9694061279296875,-0.2846832275390625,0.0450897216796875
1751013709040923600,9.554923583984374,-0.9722137451171875,-0.2830810546875,0.05035400390625
1751013709050866700,9.56486669921875,-0.977020263671875,-0.280242919921875,0.0557098388671875
1751013709060810500,9.574810546875,-0.9762420654296875,-0.281890869140625,0.0582427978515625
1751013709070753500,9.58475341796875,-0.9752197265625,-0.282073974609375,0.0583953857421875
1751013709080697600,9.594697509765625,-0.9739532470703125,-0.28076171875,0.0584869384765625
1751013709090640600,9.604640625,-0.9706878662109375,-0.281036376953125,0.055938720703125
1751013709100584700,9.614584716796875,-0.9702301025390625,-0.2810211181640625,0.0539703369140625
1751013709110527500,9.624527587890626,-0.969512939453125,-0.28094482421875,0.0529632568359375
1751013709120470500,9.634470458984374,-0.967803955078125,-0.2801971435546875,0.0513153076171875
1751013709130414800,9.644414794921875,-0.9715728759765625,-0.281463623046875,0.0498046875
1751013709140357600,9.654357666015626,-0.97149658203125,-0.281707763671875,0.0498504638671875
1751013709150301700,9.6643017578125,-0.971832275390625,-0.2822265625,0.0503387451171875
1751013709160244700,9.67424462890625,-0.97076416015625,-0.282867431640625,0.050018310546875
1751013709170188500,9.6841884765625,-0.9717559814453125,-0.2830657958984375,0.051544189453125
1751013709180131600,9.694131591796875,-0.970916748046875,-0.282958984375,0.0522918701171875
1751013709190074600,9.70407470703125,-0.9736328125,-0.2802276611328125,0.0517730712890625
1751013709200018700,9.714018798828125,-0.9749755859375,-0.2793731689453125,0.0538330078125
1751013709209961700,9.723961669921875,-0.9739227294921875,-0.2846527099609375,0.0565643310546875
1751013709219905500,9.733905517578124,-0.9707794189453125,-0.2819671630859375,0.053741455078125
1751013709229848600,9.7438486328125,-0.97015380859375,-0.280303955078125,0.05487060546875
1751013709239792600,9.753792724609376,-0.968658447265625,-0.281646728515625,0.0549163818359375
1751013709249735700,9.763735595703125,-0.968109130859375,-0.283416748046875,0.053955078125
1751013709259678700,9.7736787109375,-0.9665069580078125,-0.2835693359375,0.0525665283203125
1751013709269622500,9.78362255859375,-0.9675140380859375,-0.28448486328125,0.0524139404296875
1751013709279565600,9.793565673828125,-0.969940185546875,-0.2849273681640625,0.052032470703125
1751013709289509600,9.803509521484376,-0.97308349609375,-0.2841033935546875,0.05279541015625
1751013709299452400,9.813452392578125,-0.973114013671875,-0.282806396484375,0.0572509765625
1751013709309396700,9.823396728515625,-0.9726104736328125,-0.2843170166015625,0.059783935546875
1751013709319339500,9.833339599609374,-0.9712677001953125,-0.286773681640625,0.0595855712890625
1751013709329282600,9.843282470703125,-0.9713592529296875,-0.2885284423828125,0.0565032958984375
1751013709339226600,9.8532265625,-0.9707489013671875,-0.2881622314453125,0.056610107421875
1751013709349169700,9.863169677734374,-0.9669189453125,-0.2894134521484375,0.0569610595703125
1751013709359113700,9.87311376953125,-0.9685516357421875,-0.2891998291015625,0.0569610595703125
1751013709369056800,9.883056884765624,-0.9695281982421875,-0.288543701171875,0.055908203125
1751013709379000600,9.89300048828125,-0.9698638916015625,-0.2875518798828125,0.055572509765625
1751013709388943600,9.902943603515626,-0.97027587890625,-0.287841796875,0.0564422607421875
1751013709398886700,9.91288671875,-0.968231201171875,-0.2869415283203125,0.0595703125
1751013709408830700,9.922830810546875,-0.967376708984375,-0.2865753173828125,0.0598602294921875
1751013709418773800,9.932773681640626,-0.9669189453125,-0.28515625,0.06036376953125
1751013709428717600,9.942717529296875,-0.964141845703125,-0.2851409912109375,0.059906005859375
1751013709438660600,9.95266064453125,-0.9635772705078125,-0.283721923828125,0.0590972900390625
1751013709448603600,9.962603759765624,-0.965240478515625,-0.2829742431640625,0.057861328125
1751013709458547700,9.972547607421875,-0.9650115966796875,-0.2829132080078125,0.05517578125
1751013709468490500,9.982490478515626,-0.9683380126953125,-0.282684326171875,0.053558349609375
1751013709478434600,9.9924345703125,-0.9689178466796875,-0.2821502685546875,0.0529327392578125
1751013709488377600,10.002377685546875,-0.9665374755859375,-0.281036376953125,0.0531768798828125
1751013709498321400,10.0123212890625,-0.9662017822265625,-0.28240966796875,0.053497314453125
1751013709508264400,10.022264404296875,-0.968475341796875,-0.2839202880859375,0.052734375
1751013709518207500,10.03220751953125,-0.9701690673828125,-0.28533935546875,0.0532073974609375
1751013709528151600,10.042151611328125,-0.9691314697265625,-0.2837066650390625,0.052520751953125
1751013709538094600,10.052094482421875,-0.968017578125,-0.280517578125,0.0540008544921875
1751013709548038700,10.06203857421875,-0.968780517578125,-0.281005859375,0.054229736328125
1751013709557981700,10.071981689453125,-0.9710693359375,-0.2824249267578125,0.053192138671875
1751013709567925800,10.08192578125,-0.970245361328125,-0.2821502685546875,0.0560302734375
1751013709577868800,10.091868896484375,-0.9709014892578125,-0.28228759765625,0.0591888427734375
1751013709587811600,10.1018115234375,-0.9690399169921875,-0.2827911376953125,0.0552978515625
1751013709597755600,10.111755615234374,-0.96630859375,-0.2846832275390625,0.051849365234375
1751013709607698700,10.12169873046875,-0.9656524658203125,-0.2852630615234375,0.0521240234375
1751013709617642800,10.131642822265626,-0.9662628173828125,-0.2845916748046875,0.0540008544921875
1751013709627585500,10.14158544921875,-0.9687347412109375,-0.284759521484375,0.05511474609375
1751013709637529900,10.15152978515625,-0.9727630615234375,-0.2858734130859375,0.056243896484375
1751013709647473000,10.161472900390624,-0.9767608642578125,-0.285614013671875,0.05645751953125
1751013709657416000,10.171416015625,-0.977813720703125,-0.28521728515625,0.0551910400390625
1751013709667359700,10.18135986328125,-0.979400634765625,-0.28314208984375,0.054412841796875
1751013709677302800,10.191302734375,-0.97882080078125,-0.2826690673828125,0.0562744140625
1751013709687246800,10.201246826171875,-0.977264404296875,-0.2829132080078125,0.058837890625
1751013709697190000,10.21118994140625,-0.97344970703125,-0.284332275390625,0.0594329833984375
1751013709707133700,10.2211337890625,-0.9693145751953125,-0.28399658203125,0.0594329833984375
1751013709717076700,10.23107666015625,-0.96697998046875,-0.28466796875,0.0537872314453125
1751013709727019800,10.241019775390624,-0.9671173095703125,-0.2841644287109375,0.051116943359375
1751013709736963800,10.2509638671875,-0.9705810546875,-0.2832489013671875,0.0531463623046875
1751013709746907000,10.260906982421876,-0.975860595703125,-0.282501220703125,0.056732177734375
1751013709756850700,10.2708505859375,-0.9803619384765625,-0.280120849609375,0.059326171875
1751013709766793700,10.280793701171875,-0.9807281494140625,-0.2778778076171875,0.0582122802734375
1751013709776737800,10.29073779296875,-0.9817657470703125,-0.27777099609375,0.057586669921875
1751013709786680600,10.3006806640625,-0.979461669921875,-0.278961181640625,0.0584869384765625
1751013709796623600,10.31062353515625,-0.9723968505859375,-0.277557373046875,0.0574798583984375
1751013709806567700,10.320567626953125,-0.9682464599609375,-0.2771759033203125,0.0545501708984375
1751013709816510700,10.3305107421875,-0.9690704345703125,-0.277618408203125,0.0549774169921875
1751013709826454500,10.34045458984375,-0.968963623046875,-0.2785186767578125,0.0568084716796875
1751013709836397600,10.3503974609375,-0.9699554443359375,-0.2803497314453125,0.057464599609375
1751013709846340600,10.360340576171875,-0.972076416015625,-0.2804412841796875,0.0578460693359375
1751013709856285000,10.370284912109375,-0.9737548828125,-0.2809600830078125,0.057861328125
1751013709866228000,10.38022802734375,-0.9751129150390625,-0.28076171875,0.057769775390625
1751013709876171800,10.390171875,-0.9726104736328125,-0.281402587890625,0.0570831298828125
1751013709886114800,10.40011474609375,-0.969482421875,-0.280487060546875,0.05780029296875
1751013709896059000,10.410058837890626,-0.9702606201171875,-0.280853271484375,0.0599822998046875
1751013709906002000,10.420001953125,-0.970703125,-0.281829833984375,0.0589141845703125
1751013709915944700,10.42994482421875,-0.97216796875,-0.2822265625,0.0587158203125
1751013709925888800,10.439888671875,-0.97308349609375,-0.283355712890625,0.056671142578125
1751013709935831800,10.449831787109375,-0.973968505859375,-0.2852020263671875,0.055206298828125
1751013709945775900,10.45977587890625,-0.9732666015625,-0.2870635986328125,0.0540008544921875
1751013709955718700,10.46971875,-0.97210693359375,-0.2864532470703125,0.0539093017578125
1751013709965662700,10.479662841796875,-0.973175048828125,-0.2838287353515625,0.0551300048828125
1751013709975605800,10.489605712890626,-0.9754791259765625,-0.2806396484375,0.0547943115234375
1751013709985548800,10.499548828125,-0.9773712158203125,-0.2790069580078125,0.0601806640625
1751013709995492600,10.50949267578125,-0.9797515869140625,-0.276702880859375,0.062225341796875
1751013710005435600,10.519435546875,-0.977752685546875,-0.2762908935546875,0.057281494140625
1751013710015379700,10.529379638671875,-0.9774932861328125,-0.278961181640625,0.05657958984375
1751013710025322800,10.53932275390625,-0.972015380859375,-0.2826690673828125,0.0545196533203125
1751013710035266600,10.5492666015625,-0.9674530029296875,-0.2843170166015625,0.0532073974609375
1751013710045209600,10.559209716796875,-0.9679107666015625,-0.2836761474609375,0.0544281005859375
1751013710055152600,10.569152587890626,-0.9621124267578125,-0.2842864990234375,0.0547637939453125
1751013710065097000,10.579096923828125,-0.957916259765625,-0.282501220703125,0.0569610595703125
1751013710075039700,10.589039794921876,-0.9549407958984375,-0.279998779296875,0.0575408935546875
1751013710084983800,10.59898388671875,-0.9556121826171875,-0.27996826171875,0.0561676025390625
1751013710094926800,10.6089267578125,-0.970184326171875,-0.283050537109375,0.058135986328125
1751013710104871000,10.618870849609374,-0.9317474365234375,-0.282745361328125,0.065460205078125
1751013710114813700,10.628813720703125,-0.97637939453125,-0.283416748046875,0.072235107421875
1751013710124756700,10.6387568359375,-0.992889404296875,-0.28961181640625,0.0648040771484375
1751013710134700800,10.64870068359375,-0.97845458984375,-0.2872467041015625,0.0607452392578125
1751013710144643800,10.658643798828125,-0.97235107421875,-0.2800140380859375,0.059112548828125
1751013710154587600,10.668587646484376,-0.97088623046875,-0.2834320068359375,0.0568695068359375
1751013710164530700,10.67853076171875,-0.973541259765625,-0.28704833984375,0.054290771484375
1751013710174474800,10.688474853515626,-0.9806671142578125,-0.286590576171875,0.0521697998046875
1751013710184417800,10.698417724609374,-0.9843902587890625,-0.2855377197265625,0.0520782470703125
1751013710194360800,10.70836083984375,-0.9825897216796875,-0.28515625,0.05584716796875
1751013710204304600,10.7183046875,-0.97515869140625,-0.2823028564453125,0.060882568359375
1751013710214247700,10.72824755859375,-0.968994140625,-0.281951904296875,0.06768798828125
