time,seconds_elapsed,z,y,x
1751013699609586700,0.123586669921875,0.021709023043513298,0.03766854852437973,0.09944456815719604
1751013699619529700,0.13352978515625,0.026261964812874794,0.03954873979091644,0.09392596036195755
1751013699629473800,0.143473876953125,0.02978133037686348,0.03942570462822914,0.0775509849190712
1751013699639416600,0.15341650390625,0.027934428304433823,0.04730093479156494,0.049065012484788895
1751013699649359600,0.163359619140625,0.024471787735819817,0.03621819242835045,0.024882180616259575
1751013699659303700,0.1733037109375,0.016470586881041527,0.03485918045043945,0.005692773032933474
1751013699669246700,0.183246826171875,0.005416336935013533,0.04171415790915489,-0.0020762004423886538
1751013699679190500,0.1931904296875,-0.0015108112711459398,0.04271870106458664,-0.0028338697738945484
1751013699689133600,0.203133544921875,-0.004997687879949808,0.039685625582933426,0.001130511867813766
1751013699699077600,0.21307763671875,-0.00996288564056158,0.04434775561094284,0.010951983742415905
1751013699709020700,0.223020751953125,-0.009732522070407867,0.04465508460998535,0.017019197344779968
1751013699718963700,0.232963623046875,-0.004924184642732143,0.0458681546151638,0.022549517452716827
1751013699728907500,0.242907470703125,0.002603772561997175,0.04199272394180298,0.02678847126662731
1751013699738850600,0.2528505859375,0.012295282445847988,0.04224705696105957,0.03203063830733299
1751013699748794600,0.262794677734375,0.021436583250761032,0.04944930970668793,0.033792052417993546
1751013699758737700,0.272737548828125,0.03347273916006088,0.057905908674001694,0.03127003833651543
1751013699768681500,0.282681396484375,0.045107558369636536,0.07631474733352661,0.03446583077311516
1751013699778624500,0.29262451171875,0.053763363510370255,0.09384766221046448,0.03105858340859413
1751013699788567600,0.302567626953125,0.059784237295389175,0.10016122460365295,0.028739236295223236
1751013699798511600,0.31251171875,0.06030355393886566,0.10129572451114655,0.02341078408062458
1751013699808454400,0.322454345703125,0.053045108914375305,0.09010672569274902,0.014523549005389214
1751013699818398700,0.332398681640625,0.04080308973789215,0.06623654067516327,0.0035742283798754215
1751013699828341800,0.342341796875,0.02106906659901142,0.022886939346790314,-0.003704989794641733
1751013699838285600,0.35228564453125,-0.0008202536264434457,-0.006682936567813158,-0.0028911277186125517
1751013699848228600,0.362228515625,-0.01884026639163494,-0.018751850351691246,0.006834736559540033
1751013699858171600,0.372171630859375,-0.031195469200611115,-0.013197028078138828,0.020052537322044373
1751013699868115700,0.38211572265625,-0.03212784230709076,-0.018320949748158455,0.026702450588345528
1751013699878058800,0.392058837890625,-0.02991448901593685,-0.006813697516918182,0.029872944578528404
1751013699888002600,0.40200244140625,-0.02563745342195034,-0.0049436260014772415,0.024297615513205528
1751013699897945600,0.411945556640625,-0.021200360730290413,-0.008947688154876232,0.012167982757091522
1751013699907889700,0.4218896484375,-0.025738120079040527,-0.01167210191488266,-0.0034088462125509977
1751013699917832700,0.431832763671875,-0.029738986864686012,-0.02466273494064808,-0.02166588045656681
1751013699927775700,0.441775634765625,-0.03978949040174484,-0.05114281177520752,-0.0425298847258091
1751013699937719600,0.451719482421875,-0.046433012932538986,-0.07292773574590683,-0.06061834096908569
1751013699947662600,0.46166259765625,-0.0463256873190403,-0.08441261947154999,-0.07305343449115753
1751013699957606700,0.471606689453125,-0.0457773432135582,-0.07678532600402832,-0.07046644389629364
1751013699967549400,0.481549560546875,-0.036926593631505966,-0.0542784184217453,-0.06922487914562225
1751013699977493500,0.491493408203125,-0.02449761889874935,-0.02810140885412693,-0.0630551353096962
1751013699987436500,0.5014365234375,-0.012997557409107685,-0.00041811628034338355,-0.058334678411483765
1751013699997379600,0.511379638671875,-0.0010695254895836115,0.026622023433446884,-0.057011086493730545
1751013700007323600,0.52132373046875,0.003459978848695755,0.040877923369407654,-0.06667942553758621
1751013700017266400,0.531266357421875,0.005759618245065212,0.042572226375341415,-0.0735439881682396
1751013700027210800,0.541210693359375,0.0013100089272484183,0.027065705507993698,-0.07789693027734756
1751013700037153800,0.55115380859375,-0.0004420847399160266,0.0004902879591099918,-0.07060093432664871
1751013700047097600,0.56109765625,0.006203833501785994,-0.018140655010938644,-0.05231140926480293
1751013700057040600,0.57104052734375,0.009410812519490719,-0.02834109403192997,-0.029982132837176323
1751013700066983700,0.580983642578125,0.01889912225306034,-0.02473517321050167,-0.007399859372526407
1751013700076927700,0.590927734375,0.03137443587183952,-0.005504753906279802,0.008298410102725029
1751013700086870800,0.600870849609375,0.038419295102357864,0.018007496371865273,0.01792467199265957
1751013700096814600,0.610814697265625,0.04441060870885849,0.03626959025859833,0.012689962051808834
1751013700106757600,0.620757568359375,0.04309846833348274,0.04559917747974396,-0.004472512751817703
1751013700116701700,0.63070166015625,0.042399656027555466,0.05215135216712952,-0.030245786532759666
1751013700126644700,0.640644775390625,0.03983955830335617,0.050695400685071945,-0.05158303305506706
1751013700136588500,0.650588623046875,0.034092191606760025,0.053646717220544815,-0.06667862832546234
1751013700146531600,0.660531494140625,0.03105698525905609,0.0626750960946083,-0.06457819044589996
1751013700156474600,0.670474609375,0.020557738840579987,0.049129728227853775,-0.04992947727441788
1751013700166418400,0.68041845703125,0.014340589754283428,0.02436366304755211,-0.023980433121323586
1751013700176361500,0.690361572265625,0.007726629264652729,0.012972258031368256,0.007552991155534983
1751013700186305500,0.700305419921875,0.0009355684742331505,0.018553709611296654,0.03197391331195831
1751013700196248600,0.71024853515625,0.0005318332696333528,0.03345862403512001,0.04548732191324234
1751013700206192600,0.720192626953125,0.00301656243391335,0.04917233809828758,0.046061236411333084
1751013700216135700,0.7301357421875,0.012428440153598785,0.054011568427085876,0.031990956515073776
1751013700226078700,0.74007861328125,0.018434934318065643,0.05067223310470581,0.008165784180164337
1751013700236022800,0.750022705078125,0.01618536189198494,0.04617095738649368,-0.020968664437532425
1751013700245965800,0.7599658203125,0.013168798759579659,0.03428100794553757,-0.045279063284397125
1751013700255909600,0.76990966796875,0.007651527877897024,0.023125559091567993,-0.059954412281513214
1751013700265852700,0.779852783203125,0.0029728866647928953,0.017228787764906883,-0.062247127294540405
1751013700275796700,0.789796630859375,0.007229150738567114,0.014168549329042435,-0.04791106656193733
1751013700285739800,0.79973974609375,0.008678442798554897,0.017048757523298264,-0.027716049924492836
1751013700295682600,0.8096826171875,0.015116102062165737,0.015909457579255104,-0.0057127466425299644
1751013700305626600,0.819626708984375,0.023425431922078133,0.011658254079520702,0.015148859471082687
1751013700315569700,0.829569580078125,0.034574754536151886,0.01919739693403244,0.03538515418767929
1751013700325513700,0.839513671875,0.04025128111243248,0.028331506997346878,0.043357327580451965
1751013700335456500,0.84945654296875,0.044386107474565506,0.03128069266676903,0.03880704939365387
1751013700345400600,0.859400634765625,0.03922303766012192,0.03447328880429268,0.020058397203683853
1751013700355343600,0.869343505859375,0.039738625288009644,0.037625670433044434,0.0057646785862743855
1751013700365286700,0.87928662109375,0.0359039381146431,0.02942473441362381,-0.004490622319281101
1751013700375230500,0.88923046875,0.03189854323863983,0.027113109827041626,-0.010780742391943932
1751013700385173500,0.899173583984375,0.030367227271199226,0.025974076241254807,-0.006457100156694651
1751013700395117600,0.90911767578125,0.02285977639257908,0.024264059960842133,-0.006931142881512642
1751013700405060600,0.919060546875,0.01739337109029293,0.027178358286619186,-0.000009853695701167453
1751013700415004700,0.929004638671875,0.01031761895865202,0.025014540180563927,0.004290086217224598
1751013700424947700,0.93894775390625,0.00743155088275671,0.025950640439987183,-0.002061286708340049
1751013700434890800,0.948890869140625,0.007767375558614731,0.02660364657640457,-0.006423544604331255
1751013700444834800,0.958834716796875,0.005921006202697754,0.027305923402309418,-0.014148043468594551
1751013700454777600,0.968777587890625,0.0032061797101050615,0.022903718054294586,-0.019940419122576714
1751013700464721700,0.9787216796875,0.004637362435460091,0.019342271611094475,-0.020265590399503708
1751013700474664700,0.988664794921875,0.00381471193395555,0.027710456401109695,-0.019221099093556404
1751013700484608800,0.99860888671875,0.013500628992915154,0.021378524601459503,-0.026329075917601585
1751013700494551600,1.008551513671875,0.020559336990118027,0.026632942259311676,-0.025905899703502655
1751013700504495600,1.01849560546875,0.027531759813427925,0.031001059338450432,-0.0246046781539917
1751013700514438700,1.028438720703125,0.030303044244647026,0.03160932660102844,-0.015576562844216824
1751013700524381700,1.038381591796875,0.03152650222182274,0.03117576241493225,-0.009074188768863678
1751013700534325500,1.048325439453125,0.030907582491636276,0.028308870270848274,0.0011627360945567489
1751013700544268500,1.0582685546875,0.023144200444221497,0.02720232680439949,0.007703726179897785
1751013700554212600,1.068212646484375,0.017494836822152138,0.02322489582002163,0.008401740342378616
1751013700564155600,1.07815576171875,0.012030829675495625,0.02009168639779091,0.011922439560294151
1751013700574099500,1.088099365234375,0.00803182739764452,0.018545720726251602,0.004233360756188631
1751013700584042500,1.09804248046875,0.003053047927096486,0.019268769770860672,-0.006691724993288517
1751013700593985500,1.107985595703125,0.0027089675422757864,0.015108911320567131,-0.012910472229123116
1751013700603930000,1.11793017578125,0.0049460227601230145,0.012651612982153893,-0.016776317730545998
1751013700613873000,1.127872802734375,0.009353553876280785,0.019238142296671867,-0.013058011420071125
1751013700623817000,1.13781689453125,0.01733984239399433,0.02353355474770069,-0.009021724574267864
1751013700633760000,1.147760009765625,0.02707023359835148,0.028477713465690613,-0.016929714009165764
1751013700643704000,1.1577041015625,0.037389982491731644,0.04357916861772537,-0.018095646053552628
1751013700653646800,1.167646728515625,0.04128032922744751,0.04634459689259529,-0.03171292319893837
1751013700663590000,1.17758984375,0.034321486949920654,0.033424802124500275,-0.04267768934369087
1751013700673534000,1.187533935546875,0.023126358166337013,0.027538416907191277,-0.04855049028992653
1751013700683477000,1.19747705078125,0.014177338220179081,0.017914019525051117,-0.04704740270972252
1751013700693420800,1.2074208984375,0.0014913701452314854,0.0030360035598278046,-0.029630063101649284
1751013700703363800,1.21736376953125,-0.0030391993932425976,-0.004400340840220451,-0.006219812668859959
1751013700713308200,1.22730810546875,-0.004370513837784529,0.000713993504177779,0.021991850808262825
1751013700723251200,1.237251220703125,-0.00236222380772233,0.011539476923644543,0.03814791887998581
1751013700733194200,1.2471943359375,0.007821171544492245,0.029466278851032257,0.04447345808148384
1751013700743138000,1.257137939453125,0.010655573569238186,0.0420776791870594,0.03242158889770508
1751013700753081000,1.2670810546875,0.01309156697243452,0.04422818124294281,0.014142983593046665
1751013700763025200,1.277025146484375,0.006953513715416193,0.046784549951553345,-0.010177535936236382
1751013700772968000,1.286968017578125,0.008716792799532413,0.032636504620313644,-0.0330924391746521
1751013700782912000,1.296912109375,0.0034527883399277925,0.009341570548713207,-0.037574272602796555
1751013700792855000,1.30685498046875,-0.0049617355689406395,-0.006731405854225159,-0.031138744205236435
1751013700802798000,1.316798095703125,-0.011579157784581184,-0.012658271007239819,-0.01453100610524416
1751013700812742000,1.326741943359375,-0.016698285937309265,-0.014911038801074028,0.013103284873068333
1751013700822685000,1.336684814453125,-0.01386947650462389,-0.006609433330595493,0.03868507593870163
1751013700832629000,1.34662890625,-0.009555688127875328,-0.0001805623178370297,0.05552690848708153
1751013700842572000,1.356572021484375,-0.0007744472241029143,0.0029979203827679157,0.05573569983243942
1751013700852515800,1.366515869140625,0.0005478122038766742,0.010536263696849346,0.039440084248781204
1751013700862459000,1.376458984375,0.004010454285889864,0.01968342438340187,0.015895076096057892
1751013700872403000,1.38640283203125,0.00768854608759284,0.0212435033172369,-0.007607053499668837
1751013700882346000,1.396345947265625,0.012509666383266449,0.014051103964447975,-0.025525333359837532
1751013700892289000,1.4062890625,0.016698285937309265,0.007546599488705397,-0.029988259077072144
1751013700902233000,1.416233154296875,0.02033722959458828,-0.001321194227784872,-0.03195127472281456
1751013700912175900,1.42617578125,0.02371624857187271,-0.013142700307071209,-0.024400681257247925
1751013700922120200,1.4361201171875,0.019649067893624306,-0.017888985574245453,-0.01780456304550171
1751013700932063000,1.44606298828125,0.014223144389688969,-0.015124358236789703,-0.005243764258921146
1751013700942007000,1.456007080078125,0.0073505910113453865,-0.018275143578648567,-0.0032051142770797014
1751013700951950000,1.4659501953125,0.00202267081476748,-0.023670708760619164,-0.0054182009771466255
1751013700961893000,1.47589306640625,-0.00007323692989302799,-0.023846477270126343,-0.006951382849365473
1751013700971837000,1.4858369140625,-0.0014343785587698221,-0.022909576073288918,-0.019274894148111343
1751013700981780000,1.495780029296875,0.006740194279700518,-0.01732625998556614,-0.029409820213913918
1751013700991724000,1.50572412109375,0.018617892637848854,-0.026884078979492188,-0.038056839257478714
1751013701001667000,1.5156669921875,0.014465758576989174,-0.020801419392228127,-0.04399089515209198
1751013701011611000,1.52561083984375,0.01938035525381565,0.006292783189564943,-0.04301271587610245
1751013701021554000,1.535553955078125,0.024042485281825066,-0.004510862287133932,-0.032828252762556076
1751013701031497000,1.5454970703125,0.017370734363794327,-0.019050655886530876,-0.007071491796523333
1751013701041441000,1.55544091796875,0.010609767399728298,-0.016870858147740364,0.013916081748902798
1751013701051384000,1.565384033203125,0.00577852688729763,0.0004958806093782187,0.027288611978292465
1751013701061328000,1.575327880859375,0.009042763151228428,0.003929493948817253,0.027045466005802155
1751013701071271000,1.58527099609375,0.001392566948197782,0.0012815131340175867,0.027718713507056236
1751013701081215000,1.595215087890625,-0.003028546692803502,0.005480252671986818,0.024880582466721535
1751013701091158000,1.605157958984375,-0.008717059157788754,0.015180284157395363,0.012749883346259594
1751013701101100800,1.615100830078125,-0.012675847858190536,0.02141554281115532,0.008235293440520763
1751013701111045000,1.625045166015625,-0.01139966119080782,0.015784822404384613,0.008745288476347923
1751013701120988000,1.63498779296875,-0.009350358508527279,0.014551778323948383,0.017609087750315666
1751013701130932000,1.644931884765625,-0.0054490938782691956,0.008841960690915585,0.023438746109604836
1751013701140875000,1.654875,0.00361683894880116,0.007705323863774538,0.022189458832144737
1751013701150819000,1.664819091796875,0.00618279492482543,0.010792193934321404,0.01528867520391941
1751013701160762000,1.67476220703125,0.006746585946530104,0.01270114816725254,-0.0017619474092498422
1751013701170705200,1.684705078125,0.004787564743310213,0.013706757687032223,-0.019107380881905556
1751013701180649000,1.69464892578125,0.001062068622559309,0.00788588635623455,-0.03092223033308983
1751013701190592000,1.704592041015625,-0.004975583869963884,-0.0011478224769234657,-0.02851899340748787
1751013701200536000,1.7145361328125,-0.010902448557317257,-0.009896039962768555,-0.010753843933343887
1751013701210479000,1.72447900390625,-0.011120295152068138,-0.010221478529274464,0.011876367032527924
1751013701220423000,1.7344228515625,-0.005138303153216839,-0.0012599414912983775,0.035111114382743835
1751013701230366000,1.744365966796875,0.0016729978378862143,0.008865929208695889,0.046189598739147186
1751013701240310000,1.75431005859375,0.010432933457195759,0.021618742495775223,0.04487133398652077
1751013701250253000,1.764253173828125,0.010231331922113895,0.03380856290459633,0.03351721540093422
1751013701260196000,1.774196044921875,0.013850301504135132,0.045290250331163406,0.013528591953217983
1751013701270140000,1.784139892578125,0.016104402020573616,0.052675727754831314,-0.008498946204781532
1751013701280083000,1.7940830078125,0.01775875687599182,0.05431570112705231,-0.02304140292108059
1751013701290027000,1.804027099609375,0.011832424439489841,0.044861480593681335,-0.02552107162773609
1751013701299969800,1.8139697265625,0.003756654914468527,0.02846626192331314,-0.02485155314207077
1751013701309914000,1.8239140625,-0.007287473883479834,0.009917079471051693,-0.01251259632408619
1751013701319857200,1.833857177734375,-0.011779427528381348,0.0004966795677319169,0.0024780714884400368
1751013701329800000,1.843800048828125,-0.011967446655035019,-0.000290018244413659,0.017730260267853737
1751013701339744000,1.853743896484375,-0.005590241402387619,0.004466653801500797,0.026976490393280983
1751013701349687000,1.86368701171875,-0.0013161342358216643,0.017476728186011314,0.0297259371727705
1751013701359631000,1.873631103515625,0.0015329155139625072,0.026572754606604576,0.0254579558968544
1751013701369574100,1.88357421875,0.0027294738683849573,0.03227058798074722,0.021208349615335464
1751013701379518000,1.89351806640625,0.007681088987737894,0.02774561010301113,0.014434332959353924
1751013701389461000,1.9034609375,0.006776679772883654,0.023436883464455605,0.012960805557668209
1751013701399404000,1.913404052734375,0.00839588139206171,0.02231515944004059,0.0009084042394533753
1751013701409348000,1.92334814453125,0.009801231324672699,0.020411266013979912,-0.0018927085911855102
1751013701419291100,1.933291015625,0.007014499977231026,0.02564091421663761,-0.005868807900696993
1751013701429235000,1.94323486328125,0.004546815063804388,0.029957367107272148,0.0006048039067536592
1751013701439178000,1.953177978515625,0.0008918926469050348,0.014786136336624622,0.005834186915308237
1751013701449122000,1.9631220703125,0.00035233621019870043,0.010292585007846355,0.018138257786631584
1751013701459065000,1.973065185546875,-0.0035481294617056847,0.011182880029082298,0.03683631122112274
1751013701469008000,1.9830078125,-0.0005568669876083732,0.0114369448274374,0.043661195784807205
1751013701478952000,1.992951904296875,-0.0012772521004080772,0.013263607397675514,0.036849625408649445
1751013701488895000,2.00289501953125,0.0013233247445896268,0.010940532200038433,0.026816166937351227
1751013701498838800,2.0128388671875,-0.003602724289521575,0.007482151035219431,0.011130415834486485
1751013701508781800,2.02278173828125,-0.0008175904513336718,0.014300109818577766,-0.0017947042360901833
1751013701518726100,2.03272607421875,0.001014398061670363,0.017045030370354652,-0.012356800958514214
1751013701528669200,2.042669189453125,0.001041562296450138,0.01224574726074934,-0.018087657168507576
1751013701538612000,2.052612060546875,0.0010508833220228553,0.011725897900760174,-0.02508617751300335
1751013701548556000,2.06255615234375,0.0006964165950194001,0.009699499234557152,-0.026129871606826782
1751013701558499000,2.0724990234375,-0.002103098202496767,0.003567836945876479,-0.01727006770670414
1751013701568443100,2.082443115234375,-0.000969656917732209,0.003746002446860075,-0.008101069368422031
1751013701578386200,2.09238623046875,-0.002459961920976639,-0.001865011639893055,0.006455768831074238
1751013701588330000,2.102330078125,0.003201652318239212,-0.00030866035376675427,0.011464376002550125
1751013701598272500,2.1122724609375,0.011300591751933098,0.0037878139410167933,0.015294267795979977
1751013701608215600,2.122215576171875,0.01263723149895668,0.009237173944711685,0.015210377983748913
1751013701618159600,2.13215966796875,0.013585316948592663,0.015909990295767784,0.009101086296141148
1751013701628102700,2.1421025390625,0.011378888040781021,0.007700796704739332,0.0026546388398855925
1751013701638046700,2.152046630859375,0.01080018375068903,0.0001155811914941296,-0.0023640880826860666
1751013701647989500,2.161989501953125,0.004325239919126034,-0.0018485001055523753,-0.007668306119740009
1751013701657933800,2.171933837890625,0.005307946354150772,0.0038045919500291348,-0.007996940053999424
1751013701667876600,2.181876708984375,0.006384395994246006,0.017253821715712547,-0.008423312567174435
1751013701677819600,2.191819580078125,0.009798835031688213,0.024939171969890594,-0.0033390712924301624
1751013701687763700,2.201763671875,0.0070403325371444225,0.020603278651833534,0.002784867538139224
1751013701697706800,2.211706787109375,0.008348477073013783,0.011560249142348766,0.01486656442284584
1751013701707650600,2.221650634765625,0.005544168874621391,0.0015510249650105834,0.018515095114707947
1751013701717593600,2.231593505859375,0.00024048343766480684,-0.013302755542099476,0.016138490289449692
1751013701727537700,2.24153759765625,-0.004662129562348127,-0.01829458586871624,0.011454255320131779
1751013701737480700,2.251480712890625,-0.00115421402733773,-0.014030065387487411,0.002478870330378413
1751013701747423700,2.261423828125,0.0015582155901938677,-0.0037939392495900393,-0.008384429849684238
1751013701757367600,2.271367431640625,0.0026581010315567255,0.010548514313995838,-0.019241871312260628
1751013701767310600,2.281310546875,0.005518868565559387,0.018801383674144745,-0.02087572030723095
1751013701777254700,2.291254638671875,0.007217965554445982,0.026755981147289276,-0.02046532742679119
1751013701787197700,2.30119775390625,0.00848296657204628,0.012739497236907482,-0.014221546240150928
1751013701797141500,2.3111416015625,0.00436065997928381,-0.0020839234348386526,-0.009440906345844269
1751013701807084500,2.32108447265625,-0.003376355627551675,-0.013715279288589954,-0.0005438174703158438
1751013701817027600,2.331027587890625,-0.013054815120995045,-0.008717059157788754,0.004036286845803261
1751013701826971600,2.3409716796875,-0.01714782789349556,-0.0007909588166512549,0.00984224397689104
1751013701836914400,2.35091455078125,-0.0163589995354414,0.002912965603172779,0.011386078782379627
1751013701846858800,2.360858642578125,-0.014429539442062378,0.004483697935938835,-0.00005805691034765914
1751013701856801800,2.3708017578125,-0.011021225713193417,0.008043012581765652,-0.01350622158497572
1751013701866745600,2.38074560546875,-0.004052266012877226,0.008876582607626915,-0.015778163447976112
1751013701876688600,2.390688720703125,0.000499875342939049,0.008670985698699951,-0.0217758696526289
1751013701886631700,2.400631591796875,0.0029414615128189325,0.005588909611105919,-0.022466160356998444
1751013701896575700,2.41057568359375,0.0015883093001320958,0.006649114191532135,-0.021395836025476456
1751013701906518800,2.420518798828125,0.0029055087361484766,0.004393683280795813,-0.018821092322468758
1751013701916462600,2.430462646484375,0.0006375607335940003,0.003206712193787098,-0.009881659410893917
1751013701926405600,2.440405517578125,0.0032376048620790243,0.01495524775236845,-0.003028813051059842
1751013701936349700,2.450349609375,0.00039547940832562745,0.011801797896623611,0.0033159018494188786
1751013701946292700,2.460292724609375,-0.0004516721237450838,0.011273959651589394,0.008976982906460762
1751013701956235500,2.470235595703125,-0.0005558017292059958,0.012545885518193245,0.008187622763216496
1751013701966179600,2.4801796875,-0.003802461316809058,0.011384480632841587,0.009986055083572865
1751013701976122600,2.49012255859375,-0.00213532242923975,0.00826991442590952,0.004564125556498766
1751013701986066700,2.500066650390625,0.0004719121498055756,0.008345015347003937,-0.013375992886722088
1751013701996009500,2.510009521484375,-0.004037884995341301,0.011749866418540478,-0.02737676352262497
1751013702005953500,2.51995361328125,-0.007764446083456278,0.010567955672740936,-0.03869839385151863
1751013702015896600,2.529896484375,-0.010981544852256775,-0.0012711267918348312,-0.04116075113415718
1751013702025839600,2.539839599609375,-0.008599613793194294,-0.01083027757704258,-0.0338173508644104
1751013702035783400,2.549783447265625,-0.0052232579328119755,-0.015296398662030697,-0.01932656019926071
1751013702045726500,2.5597265625,-0.008868060074746609,-0.005399559158831835,-0.001648496720008552
1751013702055670800,2.5696708984375,-0.002752909669652581,0.010841995477676392,0.008918393403291702
1751013702065613800,2.57961376953125,0.0005041363765485585,0.014079865999519825,0.01589321345090866
1751013702075557600,2.5895576171875,-0.003394731320440769,0.011474495753645897,0.008901349268853664
1751013702085500700,2.599500732421875,-0.001811748486943543,0.010804977267980576,-0.002007757080718875
1751013702095443700,2.609443603515625,-0.0036791570018976927,0.002360359765589237,-0.018426410853862762
1751013702105387800,2.6193876953125,-0.004293015692383051,-0.005774265620857477,-0.02225976623594761
1751013702115330800,2.629330810546875,-0.00250603468157351,-0.011113637126982212,-0.022842997685074806
1751013702125274600,2.639274658203125,0.002065015025436878,-0.01065024733543396,-0.01010802760720253
1751013702135217700,2.6492177734375,0.0032690302468836308,-0.004259459674358368,0.002597647253423929
1751013702145161700,2.65916162109375,0.007526093162596226,0.0027457191608846188,0.019885556772351265
1751013702155104500,2.6691044921875,0.00872078724205494,0.008317850530147552,0.022762037813663483
1751013702165047600,2.679047607421875,0.011289405636489391,0.01155678741633892,0.020320450887084007
1751013702174991600,2.68899169921875,0.012413259595632553,0.007873902097344398,0.01091816183179617
1751013702184934700,2.6989345703125,0.007759918924421072,0.0036658411845564842,-0.004745753016322851
1751013702194878500,2.70887841796875,0.002968092914670706,0.007637413218617439,-0.0157089214771986
1751013702204821500,2.718821533203125,-0.0030181603506207466,0.016319317743182182,-0.013983992859721184
1751013702214765600,2.728765625,-0.004601942375302315,0.023189742118120193,-0.012954414822161198
1751013702224708600,2.73870849609375,-0.003748132847249508,0.015903066843748093,-0.008917062543332577
1751013702234651600,2.748651611328125,-0.006386526394635439,0.005690908990800381,-0.007859254255890846
1751013702244595500,2.758595458984375,-0.0031755531672388315,-0.006779875606298447,-0.010471283458173275
1751013702254538500,2.76853857421875,-0.0005842975224368274,-0.005572131834924221,-0.01317918486893177
1751013702264482800,2.77848291015625,0.000853809411637485,-0.001698830397799611,-0.012997024692595005
1751013702274425900,2.78842578125,0.00022610237647313625,-0.0039292280562222,-0.012868394143879414
1751013702284368600,2.79836865234375,0.0023007048293948174,-0.0041100564412772655,-0.007748466916382313
1751013702294312700,2.808312744140625,-0.0021164140198379755,0.0020005665719509125,-0.002095108851790428
1751013702304255700,2.818255859375,-0.0011257182341068983,0.008683236315846443,0.003709783311933279
1751013702314199800,2.82819970703125,0.002372077666223049,0.017712417989969254,0.007619303651154041
1751013702324142600,2.838142578125,0.005937517620623112,0.024464862421154976,0.012228703126311302
1751013702334086700,2.848086669921875,0.013921141624450684,0.028737638145685196,0.007408381439745426
1751013702344029700,2.85802978515625,0.01932629384100437,0.03230920433998108,0.007416637148708105
1751013702353972700,2.86797265625,0.023851536214351654,0.022650983184576035,0.00004820321555598639
1751013702363916500,2.87791650390625,0.01960805617272854,0.009817743673920631,-0.007860053330659866
1751013702373859600,2.887859619140625,0.009928531013429165,-0.0006657902849838138,-0.010486463084816933
1751013702383803600,2.8978037109375,0.0019835224375128746,-0.015366972424089909,-0.015545403584837914
1751013702393746700,2.90774658203125,-0.0057412427850067616,-0.026576217263936996,-0.014446849934756756
1751013702403690500,2.9176904296875,-0.016031164675951004,-0.03277792036533356,-0.010435863398015499
1751013702413633500,2.927633544921875,-0.01828792691230774,-0.017178719863295555,-0.004618453793227673
1751013702423576600,2.93757666015625,-0.020606474950909615,0.000978711643256247,0.0003605920064728707
1751013702433520600,2.947520751953125,-0.014694257639348507,0.012310994789004326,0.0033007217571139336
1751013702443463700,2.957463623046875,-0.012196478433907032,0.025182850658893585,0.0035137746017426252
1751013702453407500,2.967407470703125,0.00012303804396651685,0.02731337957084179,-0.006059756502509117
1751013702463350500,2.9773505859375,0.003406981937587261,0.020533503964543343,-0.011214304715394974
1751013702473294800,2.987294921875,0.006204099860042334,0.012734970077872276,-0.016753945499658585
1751013702483237600,2.997237548828125,-0.003212837502360344,-0.0030956584960222244,-0.020228838548064232
1751013702493180400,3.007180419921875,-0.010113886557519436,-0.004632036201655865,-0.015684952959418297
1751013702503124700,3.017124755859375,-0.01249022502452135,-0.0034914042335003614,-0.011610583402216434
1751013702513067800,3.02706787109375,-0.013735786080360413,0.00245143985375762,-0.007734618615359068
1751013702523011600,3.037011474609375,-0.018928417935967445,0.006930876523256302,-0.004996622912585735
1751013702532954600,3.04695458984375,-0.01666126772761345,0.01098660472780466,0.0012841762509196997
1751013702542897700,3.056897705078125,-0.009734652936458588,0.015246863476932049,0.01264122687280178
1751013702552841700,3.066841796875,-0.003920705523341894,0.01104679238051176,0.02064349316060543
1751013702562784800,3.07678466796875,0.0023462448734790087,0.003368099918588996,0.023152457550168037
1751013702572728600,3.086728515625,0.006077599711716175,0.0003203782835043967,0.016281768679618835
1751013702582671600,3.096671630859375,0.006925017572939396,-0.0013177321525290608,0.005589975044131279
1751013702592615700,3.10661572265625,0.010613761842250824,0.0015068164793774486,0.0010343717876821756
1751013702602559200,3.116559326171875,0.008518386632204056,0.0049510826356709,-0.006482933182269335
1751013702612502300,3.126502197265625,0.00759906368330121,0.008202003315091133,-0.016414925456047058
1751013702622446300,3.1364462890625,0.009780725464224815,0.0126393623650074,-0.010588196106255054
1751013702632389400,3.146389404296875,0.006183859892189503,0.00944969430565834,-0.005889580585062504
1751013702642333200,3.156333251953125,0.009740245528519154,0.009836385026574135,0.002005360322073102
1751013702652276200,3.166276123046875,0.013342437334358692,0.012313125655055046,0.010291253216564655
1751013702662220300,3.17622021484375,0.015508386306464672,0.01369530614465475,0.015076687559485435
1751013702672163300,3.186163330078125,0.01774810440838337,0.00974423997104168,0.020001403987407684
1751013702682106400,3.1961064453125,0.01769377663731575,0.015717709437012672,0.01931031420826912
1751013702692050200,3.20605029296875,0.016880180686712265,0.02335379272699356,0.016594689339399338
1751013702701993200,3.2159931640625,0.010124007239937782,0.018867431208491325,0.0017986990278586745
1751013702711937300,3.225937255859375,0.005881591234356165,0.007518636528402567,-0.00842704065144062
1751013702721880300,3.23588037109375,0.002942260354757309,-0.0002516687090974301,-0.01744903065264225
1751013702731823000,3.245822998046875,0.005449360236525536,-0.004988100845366716,-0.025494441390037537
1751013702741767200,3.25576708984375,0.0016330503858625889,0.0018663433147594333,-0.0264824740588665
1751013702751710200,3.265710205078125,0.0014948323369026184,0.0015728629659861326,-0.01907063089311123
1751013702761654000,3.275654052734375,0.0001893507578643039,0.004875182639807463,-0.010962902568280697
1751013702771597000,3.28559716796875,0.003896737238392234,0.012651346623897552,0.005025118589401245
1751013702781541400,3.295541259765625,0.006331665441393852,0.016943829134106636,0.014364291913807392
1751013702791484400,3.305484375,0.009603625163435936,0.023265907540917397,0.02552133798599243
1751013702801427500,3.315427490234375,0.014627411961555481,0.026330141350626945,0.02966415137052536
1751013702811371300,3.325371337890625,0.009321862831711769,0.02810593694448471,0.022190257906913757
1751013702821314300,3.335314208984375,0.014155765995383263,0.02720632031559944,0.0018402442801743746
1751013702831258400,3.34525830078125,0.013785053975880146,0.015382684767246246,-0.020810207352042198
1751013702841201400,3.355201416015625,0.013526461087167263,0.004366252571344376,-0.03976791724562645
1751013702851145200,3.365145263671875,0.01116530317813158,-0.002118011936545372,-0.053285326808691025
1751013702861088300,3.375088134765625,0.006621949840337038,-0.005321794655174017,-0.053649380803108215
1751013702871031300,3.38503125,-0.000916393706575036,-0.004047738388180733,-0.052324723452329636
1751013702880975400,3.394975341796875,-0.006995059084147215,0.0020516992080956697,-0.04017937555909157
1751013702890918100,3.404918212890625,-0.006662430241703987,0.010348777286708355,-0.019573967903852463
1751013702900862200,3.4148623046875,-0.00869122613221407,0.015093998052179813,0.0049252500757575035
1751013702910805200,3.42480517578125,-0.005323126446455717,0.022536201402544975,0.01871509850025177
1751013702920748300,3.434748291015625,0.0014927018200978637,0.028363464400172234,0.027125360444188118
1751013702930692000,3.444692138671875,0.0010010822443291545,0.032346755266189575,0.022525548934936523
1751013702940635100,3.45463525390625,0.0016160061350092292,0.026819096878170967,0.01107235811650753
1751013702950579200,3.4645791015625,0.0024517059791833162,0.018372083082795143,-0.004050135146826506
1751013702960522200,3.474522216796875,0.0034434671979397535,0.01673770137131214,-0.018735870718955994
1751013702970466000,3.484466064453125,0.0010522148804739118,0.01834358647465706,-0.018548650667071342
1751013702980409000,3.4944091796875,-0.006222475785762072,0.014083328656852245,-0.009542904794216156
1751013702990352100,3.50435205078125,-0.008616125211119652,0.012176238931715488,0.0030804784037172794
1751013703000296400,3.51429638671875,-0.008218514733016491,0.00971441250294447,0.01683836802840233
1751013703010239500,3.524239501953125,-0.005919674411416054,0.015401859767735004,0.02665664441883564
1751013703020183300,3.534183349609375,-0.006744189187884331,0.02682841755449772,0.028627118095755577
1751013703030126300,3.544126220703125,-0.004819522611796856,0.03684696555137634,0.02208452858030796
1751013703040069400,3.5540693359375,-0.0025150892324745655,0.04078711196780205,0.012778379023075104
1751013703050013200,3.56401318359375,-0.0016173376934602857,0.0387340784072876,-0.0008649947121739388
1751013703059956200,3.573956298828125,-0.004024568945169449,0.02201768383383751,-0.008115450851619244
1751013703069900300,3.583900390625,-0.0033907366450875998,0.013739247806370258,-0.01176504697650671
1751013703079843300,3.59384326171875,-0.010637996718287468,0.01474698819220066,-0.00836818479001522
1751013703089787100,3.603787109375,-0.013933924958109856,0.014680408872663975,-0.002156361471861601
1751013703099730200,3.613730224609375,-0.014945659786462784,0.015918511897325516,0.0016506272368133068
1751013703109673200,3.623673095703125,-0.012521917000412941,0.015023424290120602,0.0017931063193827868
1751013703119617300,3.6336171875,-0.012284629046916962,0.01739763282239437,0.0030479878187179565
1751013703129560300,3.643560302734375,-0.006057359743863344,0.022846460342407227,0.0024080302100628614
1751013703139504000,3.653504150390625,-0.003207511268556118,0.020664798095822334,0.000258859246969223
1751013703149447200,3.663447265625,-0.002241050126031041,0.014069746248424053,-0.0036165728233754635
1751013703159391200,3.67339111328125,0.007237140089273453,0.022416092455387115,-0.00227886694483459
1751013703169334300,3.683334228515625,0.008561530150473118,0.03164314851164818,0.0032945964485406876
1751013703179277000,3.693277099609375,0.012911004945635796,0.038238465785980225,0.003450657706707716
1751013703189221000,3.70322119140625,0.008624646812677383,0.03670927882194519,0.007711981888860464
1751013703199164200,3.7131640625,0.008763131685554981,0.03268444165587425,0.005176386330276728
1751013703209108500,3.7231083984375,0.0027196200098842382,0.0200397539883852,0.007987619377672672
1751013703219051300,3.73305126953125,0.0027385284192860126,0.004595284350216389,0.01637284830212593
1751013703228994300,3.742994384765625,0.0007297061383724213,-0.00027084347675554454,0.014855644665658474
1751013703238938400,3.7529384765625,-0.0006788397440686822,-0.0012154667638242245,0.01840563863515854
1751013703248881400,3.76288134765625,0.001079911831766367,0.004049869254231453,0.013785586692392826
1751013703258825200,3.7728251953125,-0.0043864925391972065,0.01025583315640688,0.011032943613827229
1751013703268768300,3.782768310546875,-0.007278951816260815,0.01894412934780121,0.008531702682375908
1751013703278712300,3.79271240234375,-0.004997155629098415,0.017374463379383087,0.003291134489700198
1751013703288655400,3.8026552734375,-0.01092455256730318,0.016225308179855347,-0.0035244273021817207
1751013703298598400,3.812598388671875,-0.001526257605291903,0.010405236855149269,-0.009867011569440365
1751013703308542200,3.822542236328125,0.005803560372442007,0.010834272019565105,-0.012487828731536865
1751013703318485200,3.8324853515625,0.008922122418880463,0.013252688571810722,-0.00878976285457611
1751013703328429300,3.84242919921875,0.007547664921730757,0.01471742708235979,-0.010271013714373112
1751013703338372400,3.852372314453125,0.004255198873579502,0.0032775523141026497,-0.010702445171773434
1751013703348315100,3.862315185546875,0.006207029335200787,-0.00370072852820158,-0.012011389248073101
1751013703358259200,3.87225927734375,0.007823036052286625,-0.0057444386184215546,-0.013629525899887085
1751013703368202200,3.8822021484375,0.01101350225508213,0.0019406455103307962,-0.012530173175036907
1751013703378146000,3.89214599609375,0.01182390283793211,0.01715022511780262,-0.017233049497008324
1751013703388089000,3.902089111328125,0.014224209822714329,0.026580210775136948,-0.013626329600811005
1751013703398033200,3.912033203125,0.011589810252189636,0.027163177728652954,-0.01455896906554699
1751013703407976200,3.92197607421875,0.00806245394051075,0.019903933629393578,-0.016684437170624733
1751013703417919200,3.931919189453125,0.00443922309204936,0.01143028773367405,-0.020806478336453438
1751013703427863300,3.94186328125,-0.000316916179144755,-0.005689577199518681,-0.02064722217619419
1751013703437806300,3.951806396484375,-0.0030069751664996147,-0.018551047891378403,-0.01986798085272312
1751013703447750400,3.96175048828125,-0.005650694947689772,-0.02580922655761242,-0.014679876156151295
1751013703457693400,3.971693359375,-0.0004601942200679332,-0.012468121014535427,-0.008218248374760151
1751013703467636200,3.98163623046875,0.0036767602432519197,-0.0011848403373733163,0.0007131945458240807
1751013703477580300,3.991580322265625,0.005626993253827095,0.01176451425999403,0.005271194502711296
1751013703487523300,4.0015234375,0.007752461824566126,0.020261328667402267,0.0020503676496446133
1751013703497467400,4.01146728515625,0.007783088367432356,0.023088274523615837,-0.007129282224923372
1751013703507410200,4.02141015625,0.012347480282187462,0.022997993975877762,-0.016401343047618866
1751013703517354200,4.031354248046875,0.009528257884085178,0.01810550130903721,-0.02924550324678421
1751013703527297300,4.04129736328125,0.011550395749509335,0.013884389773011208,-0.03377314284443855
1751013703537240300,4.051240234375,0.011018296703696251,0.006128199864178896,-0.031993087381124496
1751013703547184000,4.06118408203125,0.006613694131374359,0.003153981640934944,-0.020195282995700836
1751013703557127200,4.071127197265625,0.0014287859667092562,-0.00509808911010623,-0.0028189560398459435
1751013703567071200,4.0810712890625,0.000041278995922766626,-0.011041199788451195,0.010440923273563385
1751013703577014300,4.09101416015625,0.0030338731594383717,-0.00851465854793787,0.024047013372182846
1751013703586957300,4.100957275390625,0.00863396842032671,0.00443922309204936,0.028134964406490326
1751013703596901000,4.110901123046875,0.015903865918517113,0.016531305387616158,0.024566596373915672
1751013703606843600,4.12084375,0.019240539520978928,0.02889236807823181,0.013055614195764065
1751013703616787700,4.13078759765625,0.019586218520998955,0.03888721019029617,-0.003680488560348749
1751013703626730800,4.140730712890625,0.019632291048765182,0.03621552884578705,-0.015448198653757572
1751013703636674600,4.150674560546875,0.014611965976655483,0.03050251491367817,-0.032034099102020264
1751013703646617600,4.16061767578125,0.011320032179355621,0.0211886428296566,-0.03656839579343796
1751013703656560600,4.170560546875,0.0023212111555039883,0.006428071763366461,-0.029754167422652245
1751013703666505000,4.1805048828125,-0.007230748422443867,-0.006637129932641983,-0.020577447488904
1751013703676447700,4.19044775390625,-0.009019593708217144,-0.006140716839581728,-0.005134308245033026
1751013703686391800,4.200391845703125,-0.011152786202728748,-0.0024256070610135794,0.002228266792371869
1751013703696334800,4.2103349609375,-0.004195810295641422,0.009854228235781193,0.003108441596850753
1751013703706278000,4.22027783203125,0.002040247665718198,0.015803463757038116,0.001493500778451562
1751013703716221700,4.2302216796875,0.0065567027777433395,0.024470722302794456,-0.006287190597504377
1751013703726164700,4.240164794921875,0.007929828017950058,0.02477964758872986,-0.018929483368992805
1751013703736108800,4.25010888671875,0.009721336886286736,0.018796324729919434,-0.02534130960702896
1751013703746051800,4.2600517578125,0.009620402939617634,0.020658407360315323,-0.021824872121214867
1751013703755995000,4.269994873046875,0.00506799528375268,0.018504442647099495,-0.017195232212543488
1751013703765938700,4.279938720703125,0.0080336919054389,0.01504259929060936,-0.005319664254784584
1751013703775881700,4.2898818359375,0.007625695317983627,0.010810569860041142,0.0029111013282090425
1751013703785825800,4.29982568359375,0.006259227637201548,0.009561813436448574,0.007276821415871382
1751013703795768800,4.309768798828125,0.000003994741746282671,0.0038567897863686085,0.007537011988461018
1751013703805712600,4.319712646484375,0.0011342403013259172,0.004388889297842979,0.002811765531077981
1751013703815655700,4.32965576171875,0.0008607336785644293,0.008658469654619694,-0.0057553574442863464
1751013703825598700,4.3395986328125,-0.0006780407857149839,0.018447982147336006,-0.0123056685552001
1751013703835542800,4.349542724609375,0.003953728824853897,0.023088274523615837,-0.016833841800689697
1751013703845485600,4.359485595703125,0.0021638183388859034,0.028727252036333084,-0.017408285290002823
1751013703855429600,4.3694296875,-0.00273693073540926,0.032036494463682175,-0.01449691690504551
1751013703865372700,4.37937255859375,-0.004086620640009642,0.02630164474248886,-0.00938870757818222
1751013703875316700,4.389316650390625,-0.0043683829717338085,0.020082099363207817,-0.000556600687559694
1751013703885259800,4.399259765625,-0.001487109111621976,0.01679575815796852,0.0032495891209691763
1751013703895202600,4.40920263671875,-0.0032264196779578924,0.012168781831860542,0.00899775605648756
1751013703905147000,4.41914697265625,-0.001347825862467289,0.010273410007357597,0.0060051619075238705
1751013703915090000,4.42908984375,0.00236249016597867,0.014613830484449863,-0.0005584649043157697
1751013703925033700,4.43903369140625,0.003979561384767294,0.020595289766788483,-0.006874950136989355
1751013703934976800,4.448976806640625,0.0026993800420314074,0.023682160302996635,-0.009043828584253788
1751013703944919800,4.458919921875,0.0015704660909250379,0.021891716867685318,-0.009156480431556702
1751013703954863900,4.46886376953125,-0.0008825715631246567,0.01696939580142498,-0.005322593729943037
1751013703964807000,4.478806884765625,-0.00009480853623244911,0.021749237552285194,-0.00063356600003317
1751013703974750700,4.488750732421875,-0.002575543010607362,0.027054253965616226,0.0062214103527367115
1751013703984693800,4.49869384765625,-0.008476841263473034,0.022242987528443336,0.007882158271968365
1751013703994637800,4.508637939453125,-0.01101430132985115,0.021888254210352898,0.002545981900766492
1751013704004580900,4.518580810546875,-0.006667756475508213,0.02250158041715622,0.0003587277897167951
1751013704014523600,4.528523681640625,-0.0037015276029706,0.021203022450208664,0.001008272753097117
1751013704024467700,4.5384677734375,-0.0013219931861385703,0.018637865781784058,0.00009187905379803851
1751013704034410800,4.54841064453125,0.005782255437225103,0.016522251069545746,-0.0017275925492867827
1751013704044354600,4.5583544921875,0.00888110976666212,0.017109211534261703,-0.004795554094016552
1751013704054297600,4.568297607421875,0.009580189362168312,0.011125355027616024,-0.013685718178749084
1751013704064240600,4.57824072265625,0.0057444386184215546,0.0023606258910149336,-0.02420174330472946
1751013704074184700,4.588184814453125,0.006795055698603392,0.003355582943186164,-0.03274116665124893
1751013704084127700,4.598127685546875,0.007364172954112291,0.008108260110020638,-0.029874809086322784
1751013704094071800,4.60807177734375,0.007543403655290604,0.01341514103114605,-0.027890753000974655
1751013704104014800,4.618014892578125,0.009191900491714478,0.01360262744128704,-0.019175026565790176
1751013704113957600,4.62795751953125,0.0062493737787008286,0.014517157338559628,-0.011664645746350288
1751013704123902000,4.63790185546875,0.008523447439074516,0.01255067903548479,0.0005550027708522975
1751013704133844700,4.6478447265625,0.00905661191791296,-0.0028453213162720203,0.016623983159661293
1751013704143788800,4.657788818359375,0.01769084669649601,0.013263873755931854,0.03494573384523392
1751013704153731800,4.66773193359375,0.022008629515767097,0.03236113488674164,0.03782940283417702
1751013704163676000,4.677676025390625,0.026521354913711548,0.04567693918943405,0.029807429760694504
1751013704173618700,4.68761865234375,0.03483600914478302,0.06293129175901413,0.01227717287838459
1751013704183561700,4.697561767578125,0.039150066673755646,0.062059640884399414,-0.009288573637604713
1751013704193505800,4.707505859375,0.03758998587727547,0.05104507505893707,-0.025787655264139175
1751013704203448800,4.71744873046875,0.029700903221964836,0.0371369831264019,-0.03290548548102379
1751013704213392600,4.727392578125,0.017200026661157608,0.013127519749104977,-0.033606428653001785
1751013704223335700,4.737335693359375,0.01025716494768858,0.0022415826097130775,-0.027817515656352043
1751013704233278700,4.74727880859375,0.004942027851939201,-0.004728708881884813,-0.016281235963106155
1751013704243222800,4.757222900390625,0.0008066715090535581,0.00004474110755836591,0.0035177695099264383
1751013704253165800,4.767165771484375,-0.0016548882704228163,0.004041879437863827,0.023421702906489372
1751013704263109600,4.777109619140625,-0.00875061471015215,0.008448878303170204,0.029452696442604065
1751013704273052700,4.787052734375,-0.005556153133511543,0.008961004205048084,0.02280518040060997
1751013704282995700,4.79699560546875,0.000022370553779182956,0.011671303771436214,0.006268548313528299
1751013704292939800,4.806939697265625,0.004855209030210972,0.019711120054125786,-0.011271828785538673
1751013704302882600,4.816882568359375,0.010819890536367893,0.021251758560538292,-0.03157150745391846
1751013704312827000,4.826826904296875,0.015593873336911201,0.0280366949737072,-0.04054822400212288
1751013704322769700,4.836769775390625,0.0204544086009264,0.024638766422867775,-0.043181825429201126
1751013704332713700,4.846713623046875,0.01968448795378208,0.020556407049298286,-0.040101081132888794
1751013704342656800,4.85665673828125,0.01570679061114788,0.020435500890016556,-0.02285951003432274
1751013704352599800,4.866599853515625,0.008755940943956375,0.01629987731575966,-0.013003682717680931
1751013704362543900,4.8765439453125,-0.003712446428835392,0.011931493878364563,-0.006097307428717613
1751013704372487000,4.88648681640625,-0.0023102923296391964,0.01954733580350876,-0.004789162427186966
1751013704382430700,4.8964306640625,0.0034266894217580557,0.030779218301177025,-0.0020357202738523483
1751013704392373800,4.906373779296875,0.0026847326662391424,0.03719823434948921,-0.0037681066896766424
1751013704402316800,4.91631689453125,0.00675351032987237,0.04015247896313667,-0.0008282430935651064
1751013704412260900,4.9262607421875,0.007132211700081825,0.03247698396444321,0.0036421390250325203
1751013704422204000,4.936203857421875,0.006481601390987635,0.02310665138065815,0.001986984396353364
1751013704432147700,4.946147705078125,0.0007198524544946849,0.013800767250359058,-0.0049279131926596165
1751013704442090800,4.9560908203125,-0.0024839304387569427,0.002698581200093031,-0.011828696355223656
1751013704452034800,4.966034912109375,-0.003323358716443181,-0.0034493261482566595,-0.029513683170080185
1751013704461977600,4.9759775390625,-0.007215302437543869,-0.000461259507574141,-0.043533626943826675
1751013704471920600,4.985920654296875,-0.01149766519665718,0.010032660327851772,-0.056954894214868546
1751013704481864700,4.99586474609375,-0.013068131171166897,0.01672731526196003,-0.06573347002267838
1751013704491807700,5.005807861328125,-0.016459399834275246,0.013215936720371246,-0.06597954779863358
1751013704501751600,5.01575146484375,-0.015303854830563068,0.015502527356147766,-0.05275855213403702
1751013704511694600,5.025694580078125,-0.009466738440096378,0.0237071942538023,-0.024540230631828308
1751013704521637600,5.0356376953125,-0.0003110571997240186,0.038664039224386215,0.0018168084789067507
1751013704531581700,5.045581787109375,0.0073135728016495705,0.045279063284397125,0.02341238223016262
1751013704541524700,5.055524658203125,0.013745639473199844,0.05230528116226196,0.03472895175218582
1751013704551468800,5.06546875,0.01284682285040617,0.04621729627251625,0.04048297926783562
1751013704561411800,5.075411865234375,0.006766825914382935,0.02863803692162037,0.026139991357922554
1751013704571356000,5.08535595703125,0.00392762990668416,0.016321182250976562,-0.0054941014386713505
1751013704581299000,5.095298828125,0.009351956658065319,0.011966647580265999,-0.040338367223739624
1751013704591241700,5.10524169921875,0.011086206883192062,0.011158911511301994,-0.05482516437768936
1751013704601186000,5.11518603515625,0.014729944057762623,0.012104599736630917,-0.05756262689828873
1751013704611129000,5.125129150390625,0.01926131173968315,0.00936154369264841,-0.03789838030934334
1751013704621073000,5.135072998046875,0.02196868136525154,0.006046707276254892,-0.012674249708652496
1751013704631016000,5.145015869140625,0.025352494791150093,-0.007613444700837135,0.008074970915913582
1751013704640959000,5.154958984375,0.024379907175898552,-0.013424728997051716,0.022472552955150604
1751013704650903000,5.164903076171875,0.02159770391881466,-0.0147445909678936,0.018039187416434288
1751013704660846000,5.17484619140625,0.013401559554040432,-0.016764067113399506,0.012460397556424141
1751013704670790000,5.184789794921875,0.0033214944414794445,-0.014300109818577766,-0.006779076531529427
1751013704680733000,5.19473291015625,-0.003370496677234769,0.0014594122767448425,-0.02111673727631569
1751013704690677000,5.204677001953125,-0.012292352505028248,0.006673349067568779,-0.029377330094575882
1751013704700620000,5.2146201171875,-0.015023157931864262,0.009199890308082104,-0.027760524302721024
1751013704710563000,5.22456298828125,-0.019471436738967896,0.006996390409767628,-0.015894277021288872
1751013704720507000,5.2345068359375,-0.025476330891251564,0.008783104829490185,-0.003227751236408949
1751013704730450000,5.244449951171875,-0.024472320452332497,0.004535629414021969,0.009067797102034092
1751013704740394200,5.254394287109375,-0.016524648293852806,0.008942894637584686,0.0178194772452116
1751013704750337000,5.2643369140625,-0.015873504802584648,0.019700733944773674,0.01732359640300274
1751013704760279800,5.27427978515625,-0.009363141842186451,0.03245408087968826,0.01076982356607914
1751013704770224000,5.28422412109375,-0.001800030586309731,0.033489782363176346,0.005272259935736656
1751013704780167200,5.294167236328125,0.003424558788537979,0.025104288011789322,-0.0005661880713887513
1751013704790111000,5.304111083984375,0.006253900937736034,0.014772821217775345,-0.010323477908968925
1751013704800054000,5.314053955078125,0.010794324800372124,0.00567040266469121,-0.016559269279241562
1751013704809998000,5.323998046875,0.006327404174953699,-0.0009614011505618691,-0.023379623889923096
1751013704819941000,5.333941162109375,0.004185690078884363,-0.00430047232657671,-0.02786518633365631
1751013704829884200,5.34388427734375,-0.001038632821291685,-0.011356517672538757,-0.02839542180299759
1751013704839828000,5.353827880859375,-0.0022130869328975677,-0.006012352649122477,-0.01918940618634224
1751013704849771000,5.36377099609375,0.0012570120161399245,-0.000535561703145504,-0.008279501460492611
1751013704859715000,5.373715087890625,0.005615541245788336,0.006477074231952429,0.0014777880860492587
1751013704869658000,5.383658203125,0.01146677229553461,0.01720774918794632,-0.004004062619060278
1751013704879601000,5.393600830078125,0.013454023748636246,0.02761325240135193,-0.011404188349843025
1751013704889545000,5.403544921875,0.014006629586219788,0.036201946437358856,-0.024892833083868027
1751013704899488000,5.413488037109375,0.008859005756676197,0.03917563334107399,-0.03754710778594017
1751013704909431800,5.423431884765625,0.005246693734079599,0.028352811932563782,-0.04080069437623024
1751013704919374800,5.433374755859375,-0.0036671727430075407,0.019093533977866173,-0.0346948616206646
1751013704929319000,5.44331884765625,-0.005308745428919792,0.010290454141795635,-0.012618323788046837
1751013704939262000,5.453261962890625,-0.00686269998550415,0.01130698248744011,0.009922672063112259
1751013704949205000,5.463205078125,-0.005233644042164087,0.012133361771702766,0.03140053153038025
1751013704959149000,5.473149169921875,-0.0021944446489214897,0.014345915988087654,0.03791861981153488
1751013704969091800,5.483091796875,0.0016974988393485546,0.018762769177556038,0.03230494260787964
1751013704979036200,5.4930361328125,0.0059684100560843945,0.020535102114081383,0.016760071739554405
1751013704988979200,5.502979248046875,0.009682188741862774,0.022517293691635132,-0.00105301383882761
1751013704998922000,5.512921875,0.008628109470009804,0.021209947764873505,-0.021201159805059433
1751013705008866000,5.522865966796875,0.006428604479879141,0.005257346201688051,-0.03015337511897087
1751013705018809000,5.53280908203125,0.0027055053506046534,-0.0008868326549418271,-0.02539430558681488
1751013705028753200,5.542753173828125,0.0013102752855047584,-0.002912699244916439,-0.01516776718199253
1751013705038696000,5.552696044921875,-0.004116714466363192,0.0014223942998796701,-0.010087521746754646
1751013705048640000,5.562639892578125,-0.010044378228485584,0.00498091010376811,-0.00845526996999979
1751013705058583000,5.5725830078125,-0.010548514313995838,0.01158741395920515,-0.008960205130279064
1751013705068526000,5.582526123046875,-0.010367685928940773,0.01315282005816698,-0.010489924810826778
1751013705078470000,5.592469970703125,-0.007053382229059935,0.011813249439001083,-0.008204666897654533
1751013705088413000,5.602412841796875,0.002514024032279849,0.00595509447157383,-0.003173955250531435
1751013705098357000,5.61235693359375,0.014300109818577766,0.0059846555814146996,-0.0014335796004161239
1751013705108300000,5.622300048828125,0.01949673518538475,0.005116731394082308,-0.0018322548130527139
1751013705118243000,5.6322431640625,0.019052786752581596,0.00398595305159688,-0.008678975515067577
1751013705128187000,5.642186767578125,0.011412710882723331,0.008640892803668976,-0.02123258449137211
1751013705138130000,5.6521298828125,-0.00007243797881528735,0.008954878896474838,-0.02748781628906727
1751013705148074000,5.662073974609375,-0.003632285399362445,0.009808155708014965,-0.0341063030064106
1751013705158017000,5.67201708984375,-0.00535588338971138,0.011827364563941956,-0.01998702436685562
1751013705167961000,5.681961181640625,-0.0010197244118899107,0.008310394361615181,-0.002775812754407525
1751013705177903900,5.69190380859375,0.003543868428096175,0.008894424885511398,0.015066834166646004
1751013705187847000,5.701846923828125,0.003969441633671522,0.009066998027265072,0.03260268270969391
1751013705197791000,5.711791015625,0.005733252968639135,0.004420847166329622,0.03828773275017738
1751013705207734000,5.721734130859375,0.008007326163351536,0.003920439630746841,0.031376030296087265
1751013705217678000,5.731677978515625,0.009661149233579636,0.0140183474868536,0.012292086146771908
1751013705227621000,5.74162109375,0.010481136851012707,0.018015218898653984,-0.014914234168827534
1751013705237565000,5.75156494140625,0.009575129486620426,0.020291956141591072,-0.032669797539711
1751013705247508000,5.761508056640625,0.0046517434529960155,0.02539297379553318,-0.046959251165390015
1751013705257451000,5.771450927734375,0.007408381439745426,0.02383502572774887,-0.045578669756650925
1751013705267395000,5.78139501953125,0.00401737866923213,0.02040966786444187,-0.03395157679915428
1751013705277338000,5.791338134765625,0.00430180411785841,0.005830724723637104,-0.015897739678621292
1751013705287282000,5.801281982421875,0.00589490681886673,-0.005796370096504688,0.003313771216198802
1751013705297225000,5.811224853515625,0.005418733693659306,-0.0046213832683861256,0.017617342993617058
1751013705307168000,5.82116796875,0.012073706835508347,0.006555104628205299,0.02912566065788269
1751013705317112000,5.831112060546875,0.011082745157182217,0.019726566970348358,0.03984382003545761
1751013705327055000,5.84105517578125,0.015272962860763073,0.01829112321138382,0.03219228982925415
1751013705336999000,5.8509990234375,0.0177539624273777,0.014478807337582111,0.02105095610022545
1751013705346942000,5.86094189453125,0.02027544379234314,0.00708640506491065,-0.005739910993725061
1751013705356886000,5.870885986328125,0.019424298778176308,0.005709284916520119,-0.03223889693617821
1751013705366828800,5.880828857421875,0.014791196212172508,0.003073820611461997,-0.05325976014137268
1751013705376771800,5.890771728515625,0.006594519596546888,-0.0009595369338057935,-0.05982125550508499
1751013705386716000,5.9007158203125,0.0006974819116294384,-0.010147443041205406,-0.050090331584215164
1751013705396659000,5.910658935546875,-0.006262157112360001,-0.01655181311070919,-0.029500633478164673
1751013705406603000,5.92060302734375,-0.01181990746408701,-0.011899536475539207,-0.00020346550445538014
1751013705416546000,5.930546142578125,-0.008356999605894089,0.0033047166652977467,0.01882748305797577
1751013705426489000,5.940489013671875,-0.0041276332922279835,0.01667911186814308,0.031444475054740906
1751013705436433200,5.95043310546875,0.0004106594424229115,0.024764735251665115,0.028594626113772392
1751013705446376200,5.960376220703125,0.007930360734462738,0.019964653998613358,0.014808240346610546
1751013705456320000,5.970320068359375,0.009128517471253872,0.01582370325922966,-0.005153216887265444
1751013705466263000,5.980262939453125,0.010485397651791573,0.015051120892167091,-0.019810723140835762
1751013705476207000,5.99020703125,0.009550095535814762,0.00968458503484726,-0.02636396326124668
1751013705486150100,6.000150146484375,0.0015281217638403177,0.003031476167961955,-0.021616078913211823
1751013705496093000,6.010093017578125,-0.005270928610116243,0.0010713896481320262,-0.008231830783188343
1751013705506037000,6.020037109375,-0.009016131982207298,-0.006551908794790506,0.0007640608819201589
1751013705515980000,6.02997998046875,-0.02064748853445053,-0.009042230434715748,0.005890646018087864
1751013705525923800,6.039923828125,-0.02334793284535408,-0.009030778892338276,0.011836951598525047
1751013705535867000,6.049866943359375,-0.021564947441220284,0.0002324939559912309,0.020773189142346382
1751013705545810000,6.059809814453125,-0.015629027038812637,0.013099556788802147,0.018278073519468307
1751013705555754000,6.06975390625,-0.011051053181290627,0.021198229864239693,0.01673663593828678
1751013705565697000,6.079697021484375,-0.005937517620623112,0.02695412002503872,0.02027091756463051
1751013705575640800,6.089640869140625,-0.00008202536264434457,0.021866682916879654,0.022948991507291794
1751013705585583900,6.099583984375,0.003888215171173215,0.01056396123021841,0.027029220014810562
1751013705595528000,6.10952783203125,0.00703846849501133,0.0026296053547412157,0.020562533289194107
1751013705605470700,6.119470703125,-0.0004194478678982705,0.0024762072134763002,0.014496118761599064
1751013705615413800,6.129413818359375,-0.0031790153589099646,-0.004525509662926197,0.0023555660154670477
1751013705625357600,6.139357666015625,-0.004822718445211649,-0.005102084018290043,-0.006896255537867546
1751013705635300600,6.149300537109375,-0.006309028714895248,-0.0031103058718144894,-0.01068247202783823
1751013705645244700,6.15924462890625,-0.0041089910082519054,0.002496979897841811,-0.016502810642123222
1751013705655187700,6.169187744140625,-0.008108260110020638,0.0046906257048249245,-0.01401914656162262
1751013705665130500,6.179130615234375,-0.009591640904545784,0.012591958045959473,-0.008267250843346119
1751013705675074600,6.189074462890625,-0.006405168678611517,0.01649002730846405,0.0013278521364554763
1751013705685017600,6.199017578125,-0.006877081003040075,0.018250642344355583,0.009588179178535938
1751013705694961700,6.208961669921875,-0.002925216220319271,0.019244268536567688,0.00881133507937193
1751013705704904400,6.218904541015625,-0.0012359730899333954,0.005569735076278448,0.006228867452591658
1751013705714848500,6.2288486328125,0.0031374699901789427,0.000028762138754245825,-0.001032507512718439
1751013705724791600,6.23879150390625,0.008772985078394413,-0.005339904222637415,-0.002025600289925933
1751013705734734600,6.248734619140625,0.01504073478281498,-0.006486927624791861,-0.0011371697764843702
1751013705744678400,6.258678466796875,0.019514312967658043,-0.0009496832499280572,-0.004664526786655188
1751013705754621400,6.268621337890625,0.017420535907149315,0.0008482168195769191,-0.009674731642007828
1751013705764565500,6.2785654296875,0.01744343899190426,-0.004400607198476791,-0.014758706092834473
1751013705774508500,6.288508544921875,0.01570519432425499,-0.00920361839234829,-0.0212970320135355
1751013705784452400,6.298452392578125,0.006474144756793976,-0.007802262902259827,-0.026559172198176384
1751013705794395400,6.3083955078125,0.0041670482605695724,-0.004664793144911528,-0.026575684547424316
1751013705804338400,6.31833837890625,0.001085770782083273,-0.005387042183429003,-0.023327160626649857
1751013705814282800,6.32828271484375,0.00541394017636776,-0.004008590243756771,-0.00923131499439478
1751013705824225800,6.338225830078125,0.005148689262568951,-0.005459479987621307,0.001088700257241726
1751013705834169600,6.348169677734375,0.013110741972923279,0.0015267902053892612,0.015221829526126385
1751013705844112600,6.358112548828125,0.011423096992075443,0.0008524778531864285,0.02293168194591999
1751013705854055700,6.3680556640625,0.01034718006849289,-0.0012905678013339639,0.01866289973258972
1751013705863999500,6.37799951171875,0.00823982059955597,-0.0027172232512384653,0.008804677054286003
1751013705873942500,6.387942626953125,0.0059838565066456795,-0.005144960712641478,0.0039007319137454033
1751013705883886600,6.397886474609375,0.000758734589908272,-0.0016375777777284384,-0.004336957819759846
1751013705893829600,6.40782958984375,0.0012394351651892066,0.002371278591454029,-0.011300858110189438
1751013705903773400,6.4177734375,-0.003771835006773472,0.008271511644124985,-0.012440424412488937
1751013705913716500,6.427716552734375,-0.006171875633299351,0.007694405037909746,-0.013777597807347775
1751013705923659500,6.437659423828125,-0.008047806099057198,0.006630206014961004,-0.013953632675111294
1751013705933603600,6.447603515625,-0.007416637148708105,0.0005070658517070115,-0.016263125464320183
1751013705943546600,6.457546630859375,-0.004971855320036411,-0.0052208611741662025,-0.015381885692477226
1751013705953490400,6.467490478515625,-0.006702910177409649,-0.00021651499264407903,-0.011600996367633343
1751013705963433500,6.47743359375,-0.00851279404014349,0.0006503439508378506,-0.005840312223881483
1751013705973376500,6.48737646484375,-0.008443285711109638,0.004592887591570616,0.003120692213997245
1751013705983320600,6.497320556640625,-0.00848563015460968,0.007728226948529482,0.0007560714147984982
1751013705993263400,6.507263427734375,-0.0070824106223881245,0.01516803354024887,0.0005547364708036184
1751013706003207400,6.51720751953125,-0.0033923345617949963,0.017934525385499,0.000734766130335629
1751013706013150500,6.527150390625,-0.0010135991033166647,0.013590643182396889,-0.007693073246628046
1751013706023094500,6.537094482421875,0.0019142802339047194,0.015535283833742142,-0.018641861155629158
1751013706033037600,6.54703759765625,0.0070792147889733315,0.005287706386297941,-0.02101260796189308
1751013706042980400,6.55698046875,0.005380384158343077,0.003400856629014015,-0.025844912976026535
1751013706052924700,6.566924560546875,0.004452805500477552,0.004131894558668137,-0.02864735759794712
1751013706062867700,6.57686767578125,0.002341451123356819,0.00016351809608750045,-0.016859406605362892
1751013706072811500,6.5868115234375,0.0005973470397293568,0.0020359866321086884,-0.003756654914468527
1751013706082754600,6.596754638671875,-0.00028575718170031905,0.00944889523088932,0.009951700456440449
1751013706092698600,6.60669873046875,-0.005664810072630644,0.014223943464457989,0.01822720654308796
1751013706102641700,6.6166416015625,-0.00436119269579649,0.017486581578850746,0.02280118688941002
1751013706112584700,6.626584716796875,-0.00526693370193243,0.01702718622982502,0.026006300002336502
1751013706122528500,6.636528564453125,-0.0038392129354178905,0.02190609835088253,0.014633803628385067
1751013706132471600,6.646471435546875,-0.0015630092239007354,0.02154896780848503,0.008459530770778656
1751013706142415600,6.65641552734375,-0.0016796556301414967,0.013836187310516834,0.0003336940717417747
1751013706152358700,6.666358642578125,0.0033862092532217503,0.012652944773435593,-0.016221048310399055
1751013706162301400,6.676301513671875,0.005131112411618233,0.017784589901566505,-0.023564448580145836
1751013706172245500,6.68624560546875,0.004058923572301865,0.026133865118026733,-0.026746658608317375
1751013706182188500,6.6961884765625,-0.005587045568972826,0.027049195021390915,-0.03142929449677467
1751013706192132400,6.70613232421875,-0.007473895326256752,0.017668476328253746,-0.02696450613439083
1751013706202075400,6.716075439453125,-0.008473645895719528,0.005757487844675779,-0.021821143105626106
1751013706212019500,6.72601953125,-0.007698932196944952,-0.004256796557456255,-0.018081266433000565
1751013706221962500,6.73596240234375,-0.003846403444185853,-0.0023875238839536905,-0.013007411733269691
1751013706231905500,6.745905517578125,0.004151601810008287,0.012087821960449219,-0.0033571808598935604
1751013706241849600,6.755849609375,0.011388742364943027,0.0295467060059309,-0.0021552962716668844
1751013706251792400,6.76579248046875,0.014062289148569107,0.037944719195365906,0.0011108045000582933
1751013706261736700,6.77573681640625,0.013511814177036285,0.037454165518283844,-0.005397162400186062
1751013706271679700,6.7856796875,0.01546337828040123,0.029210349544882774,-0.016923056915402412
1751013706281623600,6.79562353515625,0.011876100674271584,0.013144830241799355,-0.027215640991926193
1751013706291566600,6.805566650390625,0.008786301128566265,-0.002579271560534835,-0.03978735953569412
1751013706301509600,6.815509521484375,0.0025688852183520794,-0.006367884576320648,-0.03977830708026886
1751013706311453700,6.82545361328125,0.0007811051327735186,-0.0049470881931483746,-0.031379226595163345
1751013706321396500,6.835396484375,-0.003531085327267647,-0.0005286374944262207,-0.010896323248744011
1751013706331340500,6.845340576171875,-0.005566272884607315,0.006458165589720011,0.009561280719935894
1751013706341283600,6.85528369140625,0.001636246219277382,0.01744690164923668,0.025462482124567032
1751013706351226600,6.8652265625,0.007564442697912455,0.026522686704993248,0.02646995708346367
1751013706361170400,6.87517041015625,0.012518721632659435,0.035042405128479004,0.020176108926534653
1751013706371113500,6.885113525390625,0.01828419789671898,0.03503388538956642,0.005870672408491373
1751013706381057500,6.8950576171875,0.021224329248070717,0.025367939844727516,-0.014533668756484985
1751013706391000600,6.90500048828125,0.011471034027636051,0.00860440731048584,-0.030831947922706604
1751013706400944400,6.9149443359375,0.009909622371196747,-0.006079464219510555,-0.03515292704105377
1751013706410887400,6.924887451171875,-0.00043569316039793193,-0.015251124277710915,-0.02803296595811844
1751013706420830500,6.93483056640625,0.0006399576086550951,-0.013305152766406536,-0.007940747775137424
1751013706430774500,6.9447744140625,0.007190534844994545,-0.00034647725988179445,0.019348664209246635
1751013706440717600,6.954717529296875,0.007507717236876488,0.021942051127552986,0.036925528198480606
1751013706450661600,6.96466162109375,0.014336062595248222,0.03668637573719025,0.04129071533679962
1751013706460604400,6.9746044921875,0.01314935740083456,0.045160554349422455,0.030879085883498192
1751013706470547500,6.98454736328125,0.009828662499785423,0.033538252115249634,0.010447048582136631
1751013706480491500,6.994491455078125,0.0005640574963763356,0.01575446128845215,-0.015121961012482643
1751013706490434600,7.0044345703125,-0.003600061172619462,-0.0041617220267653465,-0.028842300176620483
1751013706500378600,7.014378662109375,-0.005936984904110432,-0.011461446061730385,-0.0324530154466629
1751013706510321700,7.02432177734375,-0.0010301107540726662,-0.009070460684597492,-0.022467492148280144
1751013706520265500,7.034265380859375,0.004346278961747885,0.003905792022123933,-0.005161738954484463
1751013706530208500,7.04420849609375,0.006176403257995844,0.022291190922260284,0.013103817589581013
1751013706540151600,7.054151611328125,0.012385562993586063,0.023804131895303726,0.017798971384763718
1751013706550095600,7.064095703125,0.008123706094920635,0.02117958664894104,0.010842260904610157
1751013706560038700,7.07403857421875,0.006873352453112602,0.007327155210077763,-0.0003182477375958115
1751013706569982500,7.083982421875,-0.0025070998817682266,-0.003936951048672199,-0.01690574735403061
1751013706579925500,7.093925537109375,-0.0006508765509352088,-0.007954062893986702,-0.027803935110569
1751013706589869600,7.10386962890625,0.0026296053547412157,-0.004619252867996693,-0.026670759543776512
1751013706599812600,7.1138125,-0.0012293151812627912,-0.006016879808157682,-0.018813900649547577
1751013706609756200,7.123756103515625,0.0018823222490027547,-0.00008442220860160887,-0.0037084517534822226
1751013706619700200,7.1337001953125,0.0030945930629968643,0.008448611944913864,0.010940532200038433
1751013706629643300,7.143643310546875,0.005201153457164764,0.018275676295161247,0.014740330167114735
1751013706639587000,7.153587158203125,0.003868241561576724,0.02437484823167324,0.00774553744122386
1751013706649530000,7.163530029296875,0.005399292800575495,0.023635555058717728,-0.0043308325111866
1751013706659473200,7.17347314453125,0.0038714371621608734,0.01564553938806057,-0.022119682282209396
1751013706669417200,7.183417236328125,0.0018426411552354693,0.0014109427575021982,-0.03411881998181343
1751013706679360300,7.1933603515625,-0.004339354578405619,-0.005274923052638769,-0.038240596652030945
1751013706689304300,7.20330419921875,-0.006206497084349394,-0.009370598942041397,-0.03361468389630318
1751013706699247400,7.213247314453125,-0.001970472978428006,0.00035180358099751174,-0.01534859649837017
1751013706709191400,7.22319140625,0.005787315312772989,0.0023121563717722893,-0.0012458267156034708
1751013706719134200,7.23313427734375,0.005630721338093281,0.007407848723232746,0.012891030870378017
1751013706729077200,7.2430771484375,0.009119462221860886,0.011373029090464115,0.015217835083603859
1751013706739021300,7.253021240234375,0.0038746329955756664,0.012531504034996033,0.00509968725964427
1751013706748964400,7.26296435546875,-0.0005629922379739583,0.003591272747144103,-0.008495749905705452
1751013706758908200,7.272908203125,-0.003489007242023945,-0.005627791862934828,-0.019575299695134163
1751013706768851200,7.282851318359375,-0.007860586047172546,-0.008176437579095364,-0.02827265113592148
1751013706778795300,7.292795166015625,-0.006327138282358646,-0.006720220670104027,-0.03341548144817352
1751013706788738300,7.30273828125,-0.005251753609627485,0.002662095706909895,-0.029758693650364876
1751013706798681300,7.312681396484375,-0.0034314829390496016,0.015392538160085678,-0.02172580175101757
1751013706808625200,7.322625244140625,0.0011611381778493524,0.02281237207353115,-0.02124590054154396
1751013706818568200,7.332568115234375,0.001689775730483234,0.019275160506367683,-0.024116788059473038
1751013706828512300,7.34251220703125,0.0031790153589099646,0.009533051401376724,-0.02971635013818741
1751013706838455300,7.352455322265625,0.004759068600833416,-0.003620567498728633,-0.03447728231549263
1751013706848398300,7.3623984375,0.009669938124716282,-0.008931975811719894,-0.036265596747398376
1751013706858342100,7.372342041015625,0.012087555602192879,-0.0025065671652555466,-0.03217205032706261
1751013706868285200,7.38228515625,0.012203669175505638,0.005024852231144905,-0.02281370386481285
1751013706878229200,7.392229248046875,0.010659568943083286,0.0015329155139625072,-0.011006578803062439
1751013706888172000,7.402172119140625,0.00755032803863287,-0.0025220136158168316,-0.005315402988344431
1751013706898116400,7.412116455078125,0.0041153826750814915,-0.004381699021905661,-0.0007600661483593285
1751013706908059400,7.422059326171875,0.0052024852484464645,-0.00020905814017169178,-0.008125037886202335
1751013706918002400,7.43200244140625,0.006946322973817587,0.011569038033485413,-0.011079016141593456
1751013706927946200,7.4419462890625,0.007312507834285498,0.01763598434627056,-0.013997840695083141
1751013706937889300,7.45188916015625,0.011381817981600761,0.020725252106785774,-0.019026421010494232
1751013706947833300,7.461833251953125,0.016215188428759575,0.01581997610628605,-0.018666628748178482
1751013706957776400,7.4717763671875,0.012722186744213104,0.004825115203857422,-0.025684857740998268
1751013706967719400,7.481719482421875,0.011303254403173923,0.007604922633618116,-0.023389479145407677
1751013706977663200,7.491663330078125,0.008303469978272915,0.005238703917711973,-0.025896312668919563
1751013706987606300,7.501606201171875,0.009376191534101963,0.00504056503996253,-0.021763619035482407
1751013706997550300,7.51155029296875,0.012375443242490292,0.006706638727337122,-0.022098643705248833
1751013707007493400,7.521493408203125,0.013001818209886551,0.013438576832413673,-0.019701000303030014
1751013707017437200,7.531437255859375,0.015447932295501232,0.012120844796299934,-0.01503966934978962
1751013707027380200,7.541380126953125,0.014873221516609192,0.014158695936203003,-0.012161591090261936
1751013707037323300,7.5513232421875,0.013757623732089996,0.007301056291908026,-0.015779228881001472
1751013707047267000,7.56126708984375,0.012576512061059475,-0.00037736992817372084,-0.01751507818698883
1751013707057210000,7.571210205078125,0.010303770191967487,-0.0007121292874217033,-0.022879216820001602
1751013707067154200,7.581154296875,0.010958641767501831,0.010432134382426739,-0.02155003324151039
1751013707077097200,7.59109716796875,0.008563394658267498,0.019773971289396286,-0.016642626374959946
1751013707087041000,7.601041015625,0.005230448208749294,0.019157981500029564,-0.017538247630000114
1751013707096984000,7.610984130859375,0.005599029827862978,0.012312326580286026,-0.0075841499492526054
1751013707106927000,7.620927001953125,0.0044320328161120415,0.012151471339166164,-0.0017994979862123728
1751013707116871400,7.630871337890625,0.0064962487667799,0.00398621940985322,0.003998736385256052
1751013707126814500,7.640814453125,0.007162305526435375,0.004311125259846449,0.005008074454963207
1751013707136758300,7.65075830078125,0.007152185309678316,0.014149640686810017,0.0005142564186826348
1751013707146701300,7.660701416015625,0.012130964547395706,0.01588176190853119,-0.004653075244277716
1751013707156644400,7.670644287109375,0.018976621329784393,0.013499829918146133,-0.013850035145878792
1751013707166588400,7.68058837890625,0.01601145789027214,0.011593539267778397,-0.017833326011896133
1751013707176531200,7.69053125,0.018487663939595222,0.0037446708884090185,-0.017533719539642334
1751013707186475300,7.700475341796875,0.01227690652012825,0.005739910993725061,-0.012318451888859272
1751013707196418300,7.710418212890625,0.0115559883415699,0.010017747059464455,-0.0014721954939886928
1751013707206362400,7.7203623046875,0.007860053330659866,0.006086654495447874,0.007279750891029835
1751013707216305200,7.73030517578125,0.0043739755637943745,0.011507784947752953,0.0059937103651463985
1751013707226248200,7.740248291015625,0.003162770066410303,0.006963367108255625,0.009017197415232658
1751013707236192300,7.750192138671875,0.004542553797364235,0.0029119004029780626,0.00884888507425785
1751013707246135300,7.76013525390625,0.004351072479039431,0.0008245146600529552,0.005053347907960415
1751013707256079000,7.7700791015625,0.0016253271605819464,-0.0004679173871409148,0.0017907095607370138
1751013707266022100,7.780022216796875,0.007410511840134859,0.005760150961577892,0.001445830101147294
1751013707275966200,7.78996630859375,0.011354653164744377,0.011549863032996655,0.003522296901792288
1751013707285909200,7.7999091796875,0.015475362539291382,0.01369131077080965,0.005365204066038132
1751013707295852300,7.809852294921875,0.007127684075385332,0.017363544553518295,0.009884055703878403
1751013707305796000,7.819796142578125,0.0066062374971807,0.008417719043791294,0.009430785663425922
1751013707315739100,7.8297392578125,-0.00017789915727917105,0.00035712990211322904,0.008732505142688751
1751013707325683500,7.839683349609375,-0.00030892668291926384,-0.006136189214885235,0.0033159018494188786
1751013707335626200,7.849626220703125,0.00159443449229002,-0.003447728231549263,0.0001757686259225011
1751013707345570300,7.8595703125,0.006893858779221773,0.005544701125472784,-0.0017033577896654606
1751013707355513300,7.869513427734375,0.01560985203832388,0.02166215144097805,-0.0016524913953617215
1751013707365456400,7.879456298828125,0.01595127023756504,0.026005500927567482,-0.007649131119251251
1751013707375400200,7.889400146484375,0.015060708858072758,0.004225105047225952,-0.009607086889445782
1751013707385343200,7.89934326171875,0.008757006376981735,0.008700015023350716,-0.008702677674591541
1751013707395287300,7.909287353515625,0.0013286510948091745,0.012449212372303009,-0.007803594693541527
1751013707405230300,7.919230224609375,0.003692472819238901,0.00911546777933836,-0.014778945595026016
1751013707415173400,7.92917333984375,0.00404534162953496,0.005450159311294556,-0.019028551876544952
1751013707425117200,7.9391171875,-0.000028762138754245825,-0.00021891183860134333,-0.016455139964818954
1751013707435060200,7.949060302734375,-0.0016192019684240222,0.0017584852175787091,-0.008069111965596676
1751013707445004300,7.95900439453125,-0.0057590859942138195,0.009044361300766468,-0.0007965514669194818
1751013707454947300,7.968947265625,-0.005555620416998863,0.03544853627681732,0.00436012726277113
1751013707464891100,7.97889111328125,0.003430417738854885,0.02991289086639881,-0.0009898969437927008
1751013707474834200,7.988834228515625,0.004613926634192467,0.02413436397910118,-0.005417402368038893
1751013707484777200,7.998777099609375,0.006942328065633774,0.02273673750460148,-0.008473113179206848
1751013707494721300,8.00872119140625,0.005390504375100136,0.016331035643815994,-0.01985093578696251
1751013707504664000,8.0186640625,0.0032170985359698534,0.01732705906033516,-0.02310185693204403
1751013707514608000,8.028608154296874,0.002291117561981082,0.007302920334041119,-0.031920913606882095
1751013707524551200,8.03855126953125,-0.0031377363484352827,0.0015310513554140925,-0.0319368951022625
1751013707534495200,8.0484951171875,-0.007517038378864527,0.0002713761059567332,-0.024509869515895844
1751013707544438300,8.058438232421874,-0.013353622518479824,0.003948668949306011,-0.011948272585868835
1751013707554381300,8.06838134765625,-0.012073706835508347,0.005067463032901287,0.0021824603900313377
1751013707564325400,8.078325439453126,-0.009154615923762321,0.017774470150470734,0.017656225711107254
1751013707574268400,8.088268310546875,-0.003628556849434972,0.035112179815769196,0.020108729600906372
1751013707584212200,8.098212158203125,0.0031590417493134737,0.051357995718717575,0.01606099121272564
1751013707594155300,8.1081552734375,0.008555404841899872,0.05016090348362923,-0.00008974852971732616
1751013707604098000,8.11809814453125,0.008310927078127861,0.029698507860302925,-0.011142133735120296
1751013707614042000,8.1280419921875,0.007524761371314526,0.013125921599566936,-0.02101127617061138
1751013707623985200,8.137985107421875,0.0010306433541700244,0.0006064017652533948,-0.02429948002099991
1751013707633929000,8.147928955078125,-0.005851763766258955,-0.004071174189448357,-0.02002830244600773
1751013707643872000,8.1578720703125,-0.006644587032496929,-0.00019574233738239855,-0.010220413096249104
1751013707653816300,8.16781640625,-0.012403139844536781,0.0096861831843853,-0.006644853390753269
1751013707663759000,8.177759033203126,-0.008142881095409393,0.019642943516373634,0.001365402713418007
1751013707673702100,8.1877021484375,-0.0033334787003695965,0.02810567058622837,-0.0059873186983168125
1751013707683646200,8.197646240234375,-0.0027475832030177116,0.03855138644576073,-0.0057553574442863464
1751013707693589200,8.20758935546875,-0.000007723167072981596,0.03898042067885399,-0.006262423470616341
1751013707703533000,8.217532958984375,-0.003239202778786421,0.02899463288486004,-0.006412093061953783
1751013707713476000,8.22747607421875,-0.005666141398251057,0.022105569019913673,-0.005856823641806841
1751013707723419100,8.237419189453124,-0.006013683974742889,0.022845394909381866,-0.0014554174849763513
1751013707733363200,8.24736328125,-0.00965822022408247,0.019592875614762306,0.00942013319581747
1751013707743306200,8.25730615234375,-0.011709120124578476,0.020959876477718353,0.017372332513332367
1751013707753250000,8.26725,-0.009476592764258385,0.024637702852487564,0.02762230671942234
1751013707763193000,8.277193115234375,-0.010674482211470604,0.02888251468539238,0.027778102084994316
1751013707773137200,8.28713720703125,-0.005149754695594311,0.033066075295209885,0.021983861923217773
1751013707783080200,8.297080078125,-0.002620816696435213,0.03529753535985947,0.008100003935396671
1751013707793023200,8.307023193359376,0.00023169501218944788,0.03069346398115158,-0.010308297351002693
1751013707802967000,8.316967041015625,0.0011001517996191978,0.024992434307932854,-0.0215324554592371
1751013707812910000,8.32691015625,0.0009701895760372281,0.013044429011642933,-0.027545873075723648
1751013707822854100,8.336854248046874,0.0027108315844088793,-0.0008719189208932221,-0.023204920813441277
1751013707832797000,8.346796875,0.00780519237741828,-0.0073287528939545155,-0.011629758402705193
1751013707842741000,8.356740966796876,0.005012335255742073,-0.004838697146624327,-0.005148689262568951
1751013707852684000,8.36668408203125,0.0089993542060256,-0.0016106797847896814,0.0026498453225940466
1751013707862627000,8.376626953125,0.004705006722360849,0.009802030399441719,0.0012500877492129803
1751013707872571100,8.386571044921874,0.00293320557102561,0.021346300840377808,-0.0032977922819554806
1751013707882514200,8.39651416015625,0.00009347695595351979,0.01991698332130909,-0.00809361319988966
1751013707892458200,8.406458251953126,0.0025965820532292128,0.014186925254762173,-0.01155891828238964
1751013707902401300,8.4164013671875,0.005353220272809267,0.0028003137558698654,-0.01859552226960659
1751013707912345000,8.426344970703125,0.005479720421135426,-0.0020959076937288046,-0.01780509576201439
1751013707922288000,8.4362880859375,0.003400590270757675,-0.0013201289111748338,-0.022161761298775673
1751013707932231200,8.446231201171875,0.0032168321777135134,-0.00022690132027491927,-0.02431199699640274
1751013707942175200,8.45617529296875,0.00003302319601061754,-0.010964767076075077,-0.028918467462062836
1751013707952118300,8.4661181640625,-0.006843791343271732,-0.011349859647452831,-0.035402197390794754
1751013707962062000,8.47606201171875,-0.01227770559489727,-0.0026114957872778177,-0.03380057215690613
1751013707972005000,8.486005126953126,-0.009797503240406513,0.0031196267809718847,-0.026693662628531456
1751013707981948200,8.4959482421875,-0.01113307848572731,-0.018143316730856895,-0.012120045721530914
1751013707991892200,8.505892333984375,-0.013817012310028076,-0.024092020466923714,0.00800173357129097
1751013708001835000,8.5158349609375,-0.014786935411393642,-0.01371980644762516,0.02576635032892227
1751013708011779000,8.525779052734375,-0.015026353299617767,-0.038969770073890686,0.03124047815799713
1751013708021722000,8.53572216796875,-0.017284980043768883,-0.027383953332901,0.025428660213947296
1751013708031666000,8.545666015625,-0.014615427702665329,-0.024041153490543365,0.0012506204657256603
1751013708041609000,8.55560888671875,-0.00959643442183733,-0.026631876826286316,-0.026186862960457802
1751013708051552000,8.565552001953124,-0.0031105722300708294,-0.02605796605348587,-0.04159671068191528
1751013708061496000,8.57549609375,-0.00043809000635519624,-0.018639996647834778,-0.051063984632492065
1751013708071439000,8.585439208984376,0.003866909770295024,-0.0014106763992458582,-0.04632089287042618
1751013708081383200,8.595383056640625,0.008688828907907009,0.019114306196570396,-0.03819851949810982
1751013708091326200,8.605326171875,0.012654808349907398,0.035663455724716187,-0.024440893903374672
1751013708101270300,8.615270263671874,0.016833042725920677,0.03200880065560341,-0.01546257920563221
1751013708111213300,8.62521337890625,0.013639912009239197,0.02732989192008972,-0.0044168527238070965
1751013708121156000,8.635156005859375,0.012507003732025623,0.0310460664331913,-0.00007962851668708026
1751013708131100200,8.64510009765625,0.011405786499381065,0.03148815035820007,-0.0005526058957912028
1751013708141043200,8.655043212890625,0.005771602503955364,0.03085911273956299,0.0020511667244136333
1751013708150987300,8.6649873046875,0.003980360459536314,0.02522279880940914,0.006027798634022474
1751013708160930000,8.674929931640625,-0.001981658162549138,0.020960941910743713,0.007075486239045858
1751013708170873000,8.684873046875,-0.003084473079070449,0.02719620056450367,0.0060328589752316475
1751013708180817200,8.694817138671874,-0.0018378474051132798,0.029385052621364594,0.0071157002821564674
1751013708190760200,8.70476025390625,-0.003067961661145091,0.03454785794019699,0.0011590076610445976
1751013708200704000,8.7147041015625,-0.006966829299926758,0.04259166866540909,-0.007675762753933668
1751013708210647000,8.72464697265625,-0.009094162844121456,0.043656401336193085,-0.016144081950187683
1751013708220591000,8.734591064453125,-0.004875182639807463,0.0495116263628006,-0.01561358105391264
1751013708230534100,8.7445341796875,-0.003025350859388709,0.05282459780573845,-0.010420949198305607
1751013708240477200,8.754477294921875,-0.0008367652189917862,0.05052842199802399,0.0030221552588045597
1751013708250421000,8.7644208984375,-0.00039175100391730666,0.045100897550582886,0.020301809534430504
1751013708260364000,8.774364013671875,0.005723665934056044,0.045352835208177567,0.03537530079483986
1751013708270308000,8.78430810546875,0.009823069907724857,0.03933702036738396,0.034443195909261703
1751013708280251100,8.794251220703124,0.011225489899516106,0.03489912673830986,0.03385863080620766
1751013708290195200,8.8041953125,0.006117547396570444,0.012889167293906212,0.027583690360188484
1751013708300138200,8.81413818359375,0.0031827439088374376,0.01732892356812954,0.0264771468937397
1751013708310081300,8.824081298828125,-0.0002657834847923368,0.020488230511546135,0.021987590938806534
1751013708320025000,8.834025146484375,-0.0035145736765116453,0.023091204464435577,0.013583453372120857
1751013708329968000,8.843968017578124,-0.001969141187146306,0.026028404012322426,0.012501144781708717
1751013708339912200,8.853912109375,0.00036698358599096537,0.011953598819673061,0.014610900543630123
1751013708349855200,8.863855224609376,-0.0015124091878533363,0.0132111432030797,0.024168984964489937
1751013708359798300,8.87379833984375,-0.0030184267088770866,0.008531702682375908,0.029144303873181343
1751013708369742000,8.8837421875,0.0025217472575604916,0.008746353909373283,0.02780606411397457
1751013708379685000,8.89368505859375,0.009794574230909348,0.006614226847887039,0.02039502002298832
1751013708389629200,8.903629150390625,0.01203855313360691,-0.0017925737192854285,0.00586641114205122
1751013708399572200,8.913572265625,0.00782410055398941,-0.0010010822443291545,-0.017225591465830803
1751013708409516000,8.92351611328125,-0.0007954862085171044,0.0000655137628200464,-0.04608573764562607
1751013708419459000,8.933458984375,-0.0020815266761928797,0.004310059826821089,-0.06945284456014633
1751013708429403100,8.943403076171874,-0.008638761937618256,0.012327772565186024,-0.08350421488285065
1751013708439346200,8.95334619140625,-0.013169065117835999,0.014390923082828522,-0.07925353944301605
1751013708449289000,8.9632890625,-0.011942945420742035,0.016289224848151207,-0.05413620546460152
1751013708459233000,8.97323291015625,-0.012676913291215897,0.012823120690882206,-0.014845524914562702
1751013708469176000,8.983176025390625,-0.0052142031490802765,0.009288040921092033,0.01961311511695385
1751013708479120100,8.9931201171875,0.0019217369845137,0.018678879365324974,0.04343162849545479
1751013708489063000,9.00306298828125,0.013404222205281258,0.026733342558145523,0.050697531551122665
1751013708499006000,9.013005859375,0.014027135446667671,0.03038879856467247,0.03957777097821236
1751013708508950300,9.0229501953125,0.014364025555551052,0.03556252270936966,0.022181734442710876
1751013708518893300,9.032893310546875,0.01492009311914444,0.030352313071489334,0.005329518113285303
1751013708528837000,9.042837158203126,0.005685582756996155,0.01858753338456154,-0.0024445154704153538
1751013708538780200,9.0527802734375,-0.00304638990201056,0.015544338151812553,0.0018735338235273957
1751013708548724200,9.06272412109375,-0.015531822107732296,0.01534939557313919,0.00857271533459425
1751013708558667300,9.072667236328124,-0.018912704661488533,0.017967015504837036,0.02002670429646969
1751013708568610300,9.0826103515625,-0.013130982406437397,0.018454907462000847,0.026265691965818405
1751013708578554000,9.09255419921875,-0.005274123977869749,0.026567429304122925,0.03038320504128933
1751013708588497200,9.1024970703125,0.007835285738110542,0.045646313577890396,0.027409253641963005
1751013708598441200,9.112441162109375,0.010434265248477459,0.05102936178445816,0.019246399402618408
1751013708608384500,9.122384521484374,0.010400709696114063,0.04446893185377121,0.007444067858159542
1751013708618328600,9.13232861328125,0.016141418367624283,0.030468426644802094,0.001249555149115622
1751013708628271600,9.142271728515626,0.017789382487535477,0.021405955776572227,-0.004081294406205416
1751013708638214700,9.152214599609374,0.01852281764149666,0.016593623906373978,-0.004436293616890907
1751013708648158500,9.162158447265625,0.01461835764348507,0.01200925838202238,0.0008455536444671452
1751013708658101500,9.1721015625,0.011622834019362926,0.012402340769767761,0.010293650440871716
1751013708668045600,9.182045654296875,0.009860619902610779,0.013765613548457623,0.020624851807951927
1751013708677988600,9.191988525390625,0.005537510849535465,0.010968761518597603,0.026335733011364937
1751013708687931600,9.201931640625,0.002216548891738057,0.012065717950463295,0.028065456077456474
1751013708697875700,9.211875732421875,0.002916161436587572,0.010964500717818737,0.030105704441666603
1751013708707818800,9.22181884765625,0.0046762446872889996,0.018691662698984146,0.023875771090388298
1751013708717762800,9.2317626953125,0.01426522247493267,0.02418762817978859,0.009236641228199005
1751013708727705600,9.24170556640625,0.01877395436167717,0.027394073083996773,0.0003307645965833217
1751013708737649700,9.251649658203124,0.02653147652745247,0.03202025219798088,-0.008931709453463554
1751013708747592700,9.2615927734375,0.024092553183436394,0.02912166714668274,-0.011846539564430714
1751013708757535700,9.27153564453125,0.019995013251900673,0.031149663031101227,-0.009612147696316242
1751013708767479600,9.2814794921875,0.016711069270968437,0.007933024317026138,0.0075604477897286415
1751013708777422600,9.291422607421875,0.012577311135828495,-0.003285275539383292,0.02491200715303421
1751013708787366700,9.30136669921875,0.007953530177474022,-0.004567853640764952,0.03169907256960869
1751013708797309700,9.311309814453125,0.003832022426649928,0.0012753878254443407,0.024765267968177795
1751013708807253500,9.32125341796875,0.0023965786676853895,-0.0031902005430310965,0.013792244717478752
1751013708817196500,9.331196533203125,0.004237089306116104,-0.00863476749509573,0.007261374965310097
1751013708827139600,9.3411396484375,0.0027268105186522007,-0.02052178606390953,-0.0024652881547808647
1751013708837083600,9.351083740234374,0.007726096548140049,-0.018007762730121613,-0.014504640363156796
1751013708847026700,9.361026611328125,0.0017741979099810123,-0.009040633216500282,-0.02431892231106758
1751013708856970500,9.370970458984376,-0.0031289479229599237,-0.007387076038867235,-0.03351481631398201
1751013708866913500,9.38091357421875,-0.006105829495936632,0.0004391552647575736,-0.03983902558684349
1751013708876857600,9.390857666015625,-0.0036099147982895374,0.00941960047930479,-0.03815137967467308
1751013708886800600,9.400800537109374,-0.004480768460780382,0.016524381935596466,-0.022893065586686134
1751013708896743400,9.410743408203125,-0.006673615425825119,0.024403875693678856,-0.005560946650803089
1751013708906687700,9.420687744140626,-0.005927397403866053,0.025244103744626045,0.013383183628320694
1751013708916630800,9.430630859375,0.0019097528420388699,0.02773735485970974,0.020446153357625008
1751013708926574600,9.44057470703125,0.0036522590089589357,0.015724368393421173,0.013792244717478752
1751013708936517600,9.450517578125,0.006075202953070402,-0.001064731739461422,0.0012737899087369442
1751013708946461700,9.460461669921875,0.007160973735153675,-0.00006364954606397077,-0.01161457784473896
1751013708956404700,9.47040478515625,0.0026381274219602346,0.002085787709802389,-0.02834029495716095
1751013708966347800,9.48034765625,-0.005614742636680603,0.003013899317011237,-0.035899944603443146
1751013708976291600,9.49029150390625,-0.011570103466510773,0.007405984681099653,-0.03099972754716873
1751013708986234600,9.500234619140626,-0.011472897604107857,0.012627378106117249,-0.016821058467030525
1751013708996178700,9.5101787109375,-0.011100588366389275,0.020358534529805183,-0.002281796419993043
1751013709006121700,9.520121826171875,-0.007330084685236216,0.022011026740074158,0.012881976552307606
1751013709016065500,9.5300654296875,-0.0017121462151408195,0.028125643730163574,0.022459236904978752
1751013709026008600,9.540008544921875,0.007506918627768755,0.03839079663157463,0.018012290820479393
1751013709035951600,9.54995166015625,0.00905741099268198,0.03897988796234131,0.009240370243787766
1751013709045895700,9.559895751953125,0.011011905036866665,0.03149108216166496,-0.011210310272872448
1751013709055838500,9.56983837890625,0.008612662553787231,0.03140346333384514,-0.01871669664978981
1751013709065782500,9.579782470703124,0.0034317492973059416,0.026098977774381638,-0.026153840124607086
1751013709075725600,9.5897255859375,-0.0015795208746567369,0.014890000224113464,-0.02436419576406479
1751013709085669600,9.599669677734376,-0.0013899037148803473,0.00824008695781231,-0.012914733029901981
1751013709095612400,9.6096123046875,-0.008523447439074516,-0.005536445416510105,0.0034405377227813005
1751013709105555500,9.619555419921875,-0.007877363823354244,-0.006412891671061516,0.014727813191711903
1751013709115499800,9.629499755859374,-0.008142881095409393,0.0005153216770850122,0.021410483866930008
1751013709125442800,9.63944287109375,-0.006192648317664862,0.016394153237342834,0.024623587727546692
1751013709135386600,9.64938671875,-0.003352919826284051,0.027051057666540146,0.015385613776743412
1751013709145329700,9.65932958984375,0.0009353021741844714,0.04385986551642418,0.009038502350449562
1751013709155272700,9.669272705078125,0.005234443116933107,0.0516863651573658,0.0035302862524986267
1751013709165216800,9.679216796875,0.008672051131725311,0.04899284243583679,0.004188619554042816
1751013709175159800,9.689159912109375,0.007092796731740236,0.042334407567977905,0.0017555557424202561
1751013709185103600,9.699103515625,0.014241253957152367,0.03576012700796127,0.0024517059791833162
1751013709195046700,9.709046630859374,0.01618456281721592,0.018935341387987137,0.0075790900737047195
1751013709204990700,9.71899072265625,0.008401473984122276,0.005084773525595665,0.009335977025330067
1751013709214933800,9.728933837890626,0.005892776418477297,0.0027273432351648808,0.012732306495308876
1751013709224876500,9.73887646484375,0.011725897900760174,0.00866006687283516,0.016774453222751617
1751013709234820600,9.748820556640625,0.01091789547353983,0.018553709611296654,0.015810655429959297
1751013709244763600,9.758763671875,0.012337625958025455,0.018400313332676888,0.01696087419986725
1751013709254707500,9.76870751953125,0.013455620966851711,0.024899490177631378,0.01525804866105318
1751013709264650500,9.778650390625,0.014739531092345715,0.02731630951166153,0.009462743997573853
1751013709274594600,9.788594482421875,0.019162775948643684,0.031978439539670944,0.00012596751912496984
1751013709284537600,9.79853759765625,0.015844210982322693,0.033192042261362076,-0.012437760829925537
1751013709294480600,9.808480712890624,0.01438346691429615,0.03406049683690071,-0.023447003215551376
1751013709304424400,9.818424560546875,0.008346613496541977,0.027510453015565872,-0.021918615326285362
1751013709314367500,9.828367431640626,0.002095375210046768,0.022937007248401642,-0.013658021576702595
1751013709324311800,9.838311767578125,0.0015369103057309985,0.01489479374140501,-0.0032655680552124977
1751013709334254800,9.8482548828125,-0.0034288198221474886,0.01414564624428749,0.005593170877546072
1751013709344198700,9.85819873046875,-0.0003731088654603809,0.013204485177993774,0.016452210023999214
1751013709354141700,9.8681416015625,0.001252484624274075,0.011713380925357342,0.023991618305444717
1751013709364084700,9.878084716796875,0.007802795618772507,0.018502844497561455,0.02388482727110386
1751013709374028800,9.88802880859375,0.013042032718658447,0.027091538533568382,0.016475912183523178
1751013709383971600,9.8979716796875,0.018152905628085136,0.03748239576816559,0.0027198863681405783
1751013709393915600,9.90791552734375,0.02159424126148224,0.03646080568432808,-0.0003579288604669273
1751013709403858700,9.917858642578125,0.02093990333378315,0.03364744037389755,-0.008074704557657242
1751013709413802500,9.927802490234376,0.01703277975320816,0.02437671273946762,-0.010000436566770077
1751013709423745500,9.93774560546875,0.015304920263588428,0.02087731845676899,-0.0083085298538208
1751013709433688600,9.9476884765625,0.015211976133286953,0.015270831994712353,-0.007795072626322508
1751013709443632600,9.957632568359376,0.00820866134017706,0.01200126949697733,-0.006118612363934517
1751013709453575700,9.96757568359375,0.007903995923697948,0.009938384406268597,-0.0068174260668456554
1751013709463519500,9.97751953125,0.002793922321870923,0.00848589651286602,-0.010240653529763222
1751013709473462500,9.987462646484374,0.005784918554127216,0.010202569887042046,-0.01170459296554327
1751013709483405600,9.997405517578125,0.0023467775899916887,0.015513446182012558,-0.014827681705355644
1751013709493349600,10.007349609375,0.005934321787208319,0.0280955508351326,-0.019833892583847046
1751013709503292700,10.017292724609375,0.009981527924537659,0.02887638844549656,-0.021530060097575188
1751013709513236500,10.027236572265625,0.010601244866847992,0.015450062230229378,-0.025237180292606354
1751013709523179500,10.037179443359374,0.013229519128799438,0.00926300697028637,-0.028794629499316216
1751013709533123800,10.047123779296875,0.012353339232504368,0.008218781091272831,-0.025355158373713493
1751013709543066600,10.057066650390626,0.012488095089793205,0.013549364171922207,-0.02876213937997818
1751013709553009700,10.067009765625,0.014448714442551136,0.018086059018969536,-0.02894802764058113
1751013709562953700,10.07695361328125,0.013915815390646458,0.00962572917342186,-0.02852511778473854
1751013709572896800,10.086896728515624,0.005562544334679842,0.0038655782118439674,-0.026274213567376137
1751013709582840600,10.096840576171875,-0.0003326288133393973,0.0027451864443719387,-0.01546204648911953
1751013709592783600,10.10678369140625,0.000603738590143621,0.004969458561390638,-0.0095109473913908
1751013709602727700,10.116727783203125,0.003573695896193385,0.0035356127191334963,-0.0024772724136710167
1751013709612670700,10.126670654296875,0.0020594224333763123,0.007986021228134632,-0.0027537085115909576
1751013709622613800,10.13661376953125,-0.001508414396084845,0.015275891870260239,-0.007983890362083912
1751013709632557800,10.146557861328125,0.002977147698402405,0.017287643626332283,-0.02045254409313202
1751013709642500600,10.15650048828125,0.005130579695105553,0.017582988366484642,-0.03743232786655426
1751013709652445000,10.16644482421875,0.012589561752974987,0.01696300506591797,-0.052020058035850525
1751013709662388000,10.176387939453125,0.011426558718085289,0.011011372320353985,-0.06125669926404953
1751013709672331800,10.186331787109374,0.010349576361477375,-0.001782187377102673,-0.057671286165714264
1751013709682274800,10.19627490234375,0.008469917811453342,-0.007207312621176243,-0.05162910744547844
1751013709692217900,10.2062177734375,0.0037819549906998873,-0.007978031411767006,-0.0309336818754673
1751013709702161700,10.21616162109375,0.00010359696898376569,0.0000876179983606562,-0.008853146806359291
1751013709712104700,10.226104736328125,0.003596332622691989,0.012601279653608799,0.009309878572821617
1751013709722048800,10.236048828125,0.007670436520129442,0.02213299833238125,0.015850335359573364
1751013709731991800,10.24599169921875,0.014150972478091717,0.02821912057697773,0.008620918728411198
1751013709741935600,10.255935546875,0.01191285252571106,0.022820893675088882,-0.011198059655725956
1751013709751878700,10.265878662109374,0.010493653826415539,0.012419384904205799,-0.0328114777803421
1751013709761821700,10.27582177734375,0.009748500771820545,0.007440339308232069,-0.046057771891355515
1751013709771765800,10.285765869140626,0.005986253265291452,-0.0019678096286952496,-0.052374258637428284
1751013709781708800,10.295708740234375,0.003394198836758733,-0.009832124225795269,-0.039560992270708084
1751013709791652600,10.305652587890625,0.00205223192460835,-0.007802262902259827,-0.018033329397439957
1751013709801595600,10.315595703125,0.004760666750371456,-0.0009001484140753746,0.004040281753987074
1751013709811539700,10.325539794921875,0.00703926756978035,0.017955563962459564,0.020139090716838837
1751013709821482800,10.335482666015626,0.008885903283953667,0.03864220157265663,0.024440094828605652
1751013709831425800,10.34542578125,0.009671801701188087,0.04270938038825989,0.019238408654928207
1751013709841369900,10.355369873046875,0.013738182373344898,0.040885914117097855,0.005387042183429003
1751013709851312600,10.365312744140626,0.01375069934874773,0.031443145126104355,-0.011235610581934452
1751013709861257000,10.375257080078125,0.013072658330202103,0.02117639221251011,-0.02593093365430832
1751013709871199700,10.38519970703125,0.006370547693222761,0.007764446083456278,-0.0287040825933218
1751013709881143800,10.395143798828125,0.005624596029520035,0.00370099488645792,-0.024537833407521248
1751013709891086800,10.4050869140625,0.00032410668791271746,0.003090332029387355,-0.014337659813463688
1751013709901030000,10.41502978515625,-0.0070368703454732895,0.010289388708770275,-0.0068176924251019955
1751013709910973700,10.4249736328125,-0.004217648413032293,0.015027951449155807,-0.0004207794554531574
1751013709920916700,10.434916748046875,-0.00782543234527111,0.01666925847530365,0.004530569538474083
1751013709930860800,10.44486083984375,-0.003035471076145768,0.019541477784514427,0.002490854589268565
1751013709940803800,10.454803955078125,0.0070677632465958595,0.026013225317001343,0.0009321063989773393
1751013709950747000,10.464746826171876,0.011344799771904945,0.027998611330986023,-0.0038834214210510254
1751013709960690700,10.474690673828125,0.015116634778678417,0.02239026129245758,-0.005234443116933107
1751013709970633700,10.4846337890625,0.011302188970148563,0.025017734616994858,-0.0073625752702355385
1751013709980577800,10.494577880859374,0.003680488560348749,0.028622323647141457,-0.006630471907556057
1751013709990520800,10.504520751953125,-0.0054458980448544025,0.020845361053943634,0.0018932411912828684
1751013710000464600,10.514464599609376,-0.011873703449964523,0.011982893571257591,0.006972421891987324
1751013710010407700,10.52440771484375,-0.013575729914009571,0.004584631882607937,0.010834005661308765
1751013710020350700,10.534350830078125,-0.009440906345844269,0.010786068625748158,0.0187222883105278
1751013710030294800,10.544294677734374,-0.0013323795283213258,0.028148813173174858,0.019519105553627014
1751013710040237600,10.554237548828125,0.0020509003661572933,0.046240463852882385,0.018379805609583855
1751013710050182000,10.564181884765626,0.004346278961747885,0.08153533935546875,0.019050922244787216
1751013710060125000,10.574125,0.0070832096971571445,0.09734652936458588,0.022349514067173004
1751013710070068700,10.58406884765625,0.0023670175578445196,0.09278985857963562,0.031137678772211075
1751013710080011800,10.59401171875,-0.0015390408225357533,0.06630045920610428,0.030309969559311867
1751013710089954800,10.603954833984375,-0.008492021821439266,0.029168006032705307,0.008363923989236355
1751013710099899000,10.61389892578125,-0.018922291696071625,0.05705023556947708,0.053214751183986664
1751013710109842000,10.623842041015624,-0.0338306687772274,-0.01558268815279007,0.07022222876548767
1751013710119785700,10.63378564453125,-0.02961461804807186,-0.04117433354258537,0.07163210958242416
1751013710129728800,10.643728759765626,-0.014516091905534267,-0.03039572201669216,0.06820089370012283
1751013710139672800,10.6536728515625,-0.004202468320727348,-0.01558322086930275,0.06513585895299911
1751013710149615900,10.663615966796876,0.006650179624557495,0.00012490226072259247,0.042807117104530334
1751013710159558700,10.67355859375,0.017542773857712746,0.009855293668806553,0.006947654765099287
1751013710169502700,10.683502685546875,0.024776985868811607,0.006103964988142252,-0.04009309038519859
1751013710179445800,10.69344580078125,0.024235831573605537,0.0022719427943229675,-0.09366443753242493
1751013710189389800,10.703389892578125,0.02683188021183014,0.006481867749243975,-0.13835494220256805
1751013710199332600,10.71333251953125,0.02448776550590992,0.010953581891953945,-0.1624850481748581
1751013710209276700,10.723276611328124,0.01768924854695797,0.006045641843229532,-0.1620059460401535
1751013710219219700,10.7332197265625,0.010397779755294323,0.004569984506815672,-0.11674046516418457
