time,seconds_elapsed,z,y,x
1751013755128269600,0.11726953125,-0.9781494140625,-0.1605987548828125,0.0417022705078125
1751013755138212600,0.127212646484375,-0.980621337890625,-0.1610870361328125,0.0406951904296875
1751013755148156700,0.13715673828125,-0.9819488525390625,-0.158447265625,0.040313720703125
1751013755158099700,0.147099609375,-0.983123779296875,-0.1552886962890625,0.0351104736328125
1751013755168043500,0.15704345703125,-0.9907379150390625,-0.15081787109375,0.0320587158203125
1751013755177986600,0.166986572265625,-0.9993896484375,-0.146697998046875,0.0313568115234375
1751013755187929600,0.1769296875,-1.001800537109375,-0.14227294921875,0.0308990478515625
1751013755197874000,0.1868740234375,-1.0010223388671875,-0.136993408203125,0.0312957763671875
1751013755207816700,0.196816650390625,-1.003173828125,-0.1351776123046875,0.02978515625
1751013755217760800,0.2067607421875,-1.0095062255859375,-0.13397216796875,0.028167724609375
1751013755227703800,0.216703857421875,-1.00225830078125,-0.131744384765625,0.0318756103515625
1751013755237646800,0.226646728515625,-0.9948272705078125,-0.13385009765625,0.0343475341796875
1751013755247590700,0.236590576171875,-0.9935760498046875,-0.1311187744140625,0.03607177734375
1751013755257533700,0.24653369140625,-0.9919586181640625,-0.129486083984375,0.0349884033203125
1751013755267477800,0.256477783203125,-0.98846435546875,-0.1329803466796875,0.0328826904296875
1751013755277420800,0.2664208984375,-0.9928741455078125,-0.1341400146484375,0.03363037109375
1751013755287363800,0.27636376953125,-1.004486083984375,-0.131103515625,0.0397491455078125
1751013755297307600,0.2863076171875,-1.0046539306640625,-0.13330078125,0.036376953125
1751013755307250700,0.296250732421875,-1.0039825439453125,-0.1407623291015625,0.0268096923828125
1751013755317193700,0.30619384765625,-1.004669189453125,-0.145477294921875,0.0287628173828125
1751013755327137800,0.3161376953125,-1.005767822265625,-0.1450042724609375,0.0342559814453125
1751013755337080800,0.326080810546875,-1.0080108642578125,-0.1454010009765625,0.0371246337890625
1751013755347024600,0.336024658203125,-1.009185791015625,-0.143798828125,0.0387115478515625
1751013755356967700,0.3459677734375,-1.0050811767578125,-0.1427459716796875,0.0384368896484375
1751013755366910700,0.35591064453125,-1.0023651123046875,-0.1430511474609375,0.036376953125
1751013755376854800,0.365854736328125,-1.002532958984375,-0.14013671875,0.0414886474609375
1751013755386797600,0.375797607421875,-1.00347900390625,-0.137939453125,0.0491943359375
1751013755396741600,0.38574169921875,-0.9975128173828125,-0.1407318115234375,0.0518341064453125
1751013755406684700,0.3956845703125,-0.9944915771484375,-0.1442413330078125,0.051910400390625
1751013755416627700,0.405627685546875,-0.996551513671875,-0.14471435546875,0.0496673583984375
1751013755426571500,0.415571533203125,-0.996978759765625,-0.1458282470703125,0.0471343994140625
1751013755436514600,0.4255146484375,-0.9943084716796875,-0.14642333984375,0.0472412109375
1751013755446459000,0.435458984375,-0.9966888427734375,-0.1469573974609375,0.0471649169921875
1751013755456402000,0.44540185546875,-0.9960784912109375,-0.1478729248046875,0.048309326171875
1751013755466344700,0.4553447265625,-0.99542236328125,-0.1429443359375,0.0501708984375
1751013755476288800,0.465288818359375,-0.9937286376953125,-0.1368255615234375,0.05072021484375
1751013755486231800,0.475231689453125,-0.988555908203125,-0.1358489990234375,0.049560546875
1751013755496175900,0.48517578125,-0.98834228515625,-0.1402587890625,0.0434722900390625
1751013755506118700,0.49511865234375,-0.9886474609375,-0.1428375244140625,0.0399932861328125
1751013755516061700,0.505061767578125,-0.98895263671875,-0.14605712890625,0.0326995849609375
1751013755526005800,0.515005859375,-0.9925994873046875,-0.1492462158203125,0.0245513916015625
1751013755535948800,0.52494873046875,-0.9963226318359375,-0.1490020751953125,0.02294921875
1751013755545891800,0.534891845703125,-1.00054931640625,-0.1467437744140625,0.02294921875
1751013755555835600,0.544835693359375,-1.0060272216796875,-0.139434814453125,0.02117919921875
1751013755565778700,0.55477880859375,-1.00909423828125,-0.133880615234375,0.0156707763671875
1751013755575722800,0.56472265625,-1.019317626953125,-0.1299896240234375,0.0097503662109375
1751013755585665800,0.574665771484375,-1.0309600830078125,-0.12646484375,0.00665283203125
1751013755595608800,0.58460888671875,-1.0342559814453125,-0.1225128173828125,0.0027618408203125
1751013755605552600,0.594552734375,-1.0328216552734375,-0.12139892578125,0.00341796875
1751013755615495700,0.60449560546875,-1.0284271240234375,-0.1208038330078125,0.0055999755859375
1751013755625439700,0.614439697265625,-1.0243682861328125,-0.12091064453125,0.0045013427734375
1751013755635382500,0.624382568359375,-1.0251922607421875,-0.120697021484375,0.00927734375
1751013755645325600,0.63432568359375,-1.02069091796875,-0.125091552734375,0.010833740234375
1751013755655270100,0.644270263671875,-1.01531982421875,-0.13214111328125,0.0111541748046875
1751013755665213200,0.654213134765625,-1.01483154296875,-0.1361083984375,0.012420654296875
1751013755675156200,0.66415625,-1.0139007568359375,-0.1369476318359375,0.01373291015625
1751013755685100000,0.67410009765625,-1.00994873046875,-0.138092041015625,0.01202392578125
1751013755695043000,0.68404296875,-1.00579833984375,-0.1377716064453125,0.009765625
1751013755704987100,0.693987060546875,-1.0089111328125,-0.129150390625,0.0128021240234375
1751013755714930200,0.70393017578125,-1.00933837890625,-0.1201019287109375,0.01824951171875
1751013755724873000,0.713873046875,-1.0004730224609375,-0.1161346435546875,0.020111083984375
1751013755734817000,0.723817138671875,-1.0007476806640625,-0.1152801513671875,0.02294921875
1751013755744760000,0.733760009765625,-1.0012664794921875,-0.115875244140625,0.024810791015625
1751013755754704000,0.743703857421875,-0.996551513671875,-0.1214752197265625,0.02734375
1751013755764647000,0.75364697265625,-0.994537353515625,-0.131317138671875,0.02850341796875
1751013755774590000,0.76358984375,-1.00030517578125,-0.1360931396484375,0.026885986328125
1751013755784534000,0.773533935546875,-1.0109710693359375,-0.13238525390625,0.024383544921875
1751013755794477000,0.78347705078125,-1.0159759521484375,-0.124176025390625,0.0240631103515625
1751013755804421000,0.793421142578125,-1.0113525390625,-0.1176300048828125,0.021728515625
1751013755814364200,0.8033642578125,-1.010955810546875,-0.1074676513671875,0.018585205078125
1751013755824307200,0.81330712890625,-1.013641357421875,-0.0950164794921875,0.01849365234375
1751013755834251300,0.823251220703125,-1.01678466796875,-0.0890960693359375,0.0175018310546875
1751013755844194000,0.833194091796875,-1.017486572265625,-0.08642578125,0.0189361572265625
1751013755854138000,0.84313818359375,-1.0167083740234375,-0.0884552001953125,0.0198974609375
1751013755864081200,0.8530810546875,-1.0177459716796875,-0.09423828125,0.020782470703125
1751013755874024200,0.863024169921875,-1.0155487060546875,-0.1011810302734375,0.0199127197265625
1751013755883968000,0.872968017578125,-1.0118255615234375,-0.10748291015625,0.015533447265625
1751013755893911000,0.8829111328125,-1.00970458984375,-0.1119384765625,0.0103912353515625
1751013755903854000,0.89285400390625,-1.0068206787109375,-0.116790771484375,0.011016845703125
1751013755913798100,0.902798095703125,-1.005401611328125,-0.1212921142578125,0.009796142578125
1751013755923741200,0.9127412109375,-1.0019989013671875,-0.1236724853515625,0.013275146484375
1751013755933685000,0.92268505859375,-0.999542236328125,-0.1236572265625,0.0152130126953125
1751013755943628000,0.9326279296875,-0.9959869384765625,-0.1219329833984375,0.0186767578125
1751013755953571000,0.942571044921875,-0.9936065673828125,-0.119659423828125,0.0238037109375
1751013755963515100,0.95251513671875,-0.993743896484375,-0.11669921875,0.0289306640625
1751013755973458200,0.962458251953125,-0.994110107421875,-0.11383056640625,0.03277587890625
1751013755983402000,0.972402099609375,-0.995941162109375,-0.111358642578125,0.031494140625
1751013755993345000,0.982344970703125,-0.9976654052734375,-0.111114501953125,0.0270233154296875
1751013756003288000,0.9922880859375,-0.9966278076171875,-0.1139068603515625,0.0244293212890625
1751013756013231900,1.00223193359375,-0.99920654296875,-0.117889404296875,0.024322509765625
1751013756023175000,1.0121748046875,-1.0016632080078125,-0.1198272705078125,0.026123046875
1751013756033118000,1.022117919921875,-0.999725341796875,-0.1176910400390625,0.0291748046875
1751013756043062000,1.03206201171875,-0.997314453125,-0.114715576171875,0.033599853515625
1751013756053005000,1.042005126953125,-1.001953125,-0.113006591796875,0.036773681640625
1751013756062949000,1.05194921875,-1.0064849853515625,-0.109283447265625,0.0367279052734375
1751013756072892200,1.06189208984375,-1.0057830810546875,-0.105712890625,0.0371246337890625
1751013756082835200,1.071835205078125,-1.0123138427734375,-0.1020660400390625,0.04144287109375
1751013756092779300,1.081779296875,-1.0137786865234375,-0.10064697265625,0.038543701171875
1751013756102722000,1.09172216796875,-1.0142822265625,-0.103240966796875,0.0315093994140625
1751013756112666000,1.101666015625,-1.01544189453125,-0.108428955078125,0.028717041015625
1751013756122609200,1.111609130859375,-1.0191802978515625,-0.1115570068359375,0.028350830078125
1751013756132552200,1.12155224609375,-1.0161590576171875,-0.113128662109375,0.0296478271484375
1751013756142496000,1.13149609375,-1.0143890380859375,-0.112457275390625,0.034912109375
1751013756152439000,1.14143896484375,-1.0086822509765625,-0.110870361328125,0.0399322509765625
1751013756162383000,1.151383056640625,-1.0069427490234375,-0.11029052734375,0.040191650390625
1751013756172326100,1.161326171875,-1.010894775390625,-0.1103973388671875,0.041473388671875
1751013756182269200,1.171269287109375,-1.01220703125,-0.1119537353515625,0.03826904296875
1751013756192213000,1.181212890625,-1.0124969482421875,-0.1120758056640625,0.0377655029296875
1751013756202156000,1.191156005859375,-1.0132904052734375,-0.1120452880859375,0.0395050048828125
1751013756212099000,1.20109912109375,-1.0144805908203125,-0.11505126953125,0.037750244140625
1751013756222043100,1.211043212890625,-1.017364501953125,-0.1123504638671875,0.035919189453125
1751013756231986000,1.22098583984375,-1.01800537109375,-0.1085052490234375,0.033111572265625
1751013756241930000,1.230929931640625,-1.0173187255859375,-0.1069488525390625,0.0295867919921875
1751013756251873000,1.240873046875,-1.0160369873046875,-0.1085662841796875,0.0265960693359375
1751013756261816000,1.250816162109375,-1.0155792236328125,-0.10809326171875,0.0269927978515625
1751013756271760000,1.260759765625,-1.016845703125,-0.1078643798828125,0.02880859375
1751013756281703000,1.270702880859375,-1.01519775390625,-0.1108551025390625,0.0306243896484375
1751013756291647200,1.280647216796875,-1.0103302001953125,-0.1126556396484375,0.0314178466796875
1751013756301590300,1.29059033203125,-1.0087432861328125,-0.1143951416015625,0.0316162109375
1751013756311533000,1.300532958984375,-1.0052642822265625,-0.1169891357421875,0.029541015625
1751013756321477000,1.31047705078125,-1.0053558349609375,-0.1191558837890625,0.0269012451171875
1751013756331420200,1.320420166015625,-1.0080108642578125,-0.1192779541015625,0.0244598388671875
1751013756341364200,1.3303642578125,-1.0059051513671875,-0.120025634765625,0.0199737548828125
1751013756351307300,1.340307373046875,-1.0040130615234375,-0.1213836669921875,0.01641845703125
1751013756361250000,1.35025,-1.0050201416015625,-0.1217193603515625,0.016448974609375
1751013756371194000,1.360194091796875,-1.0029754638671875,-0.123687744140625,0.0153045654296875
1751013756381137200,1.37013720703125,-1.0007781982421875,-0.126678466796875,0.0122222900390625
1751013756391080200,1.380080078125,-1.0007476806640625,-0.1305389404296875,0.010406494140625
1751013756401024000,1.39002392578125,-1.0001678466796875,-0.1324920654296875,0.012237548828125
1751013756410967000,1.399967041015625,-1.000823974609375,-0.1321868896484375,0.0165252685546875
1751013756420911000,1.4099111328125,-1.0007171630859375,-0.13250732421875,0.01727294921875
1751013756430854100,1.419854248046875,-1.001068115234375,-0.13018798828125,0.016265869140625
1751013756440797200,1.429797119140625,-1.004119873046875,-0.1263885498046875,0.0146026611328125
1751013756450741000,1.439740966796875,-1.0083160400390625,-0.1226959228515625,0.01202392578125
1751013756460684000,1.44968408203125,-1.0124969482421875,-0.120147705078125,0.0076446533203125
1751013756470628000,1.459628173828125,-1.0166015625,-0.1163482666015625,0.00726318359375
1751013756480571100,1.469571044921875,-1.0175628662109375,-0.1123199462890625,0.0110626220703125
1751013756490514000,1.479513916015625,-1.01300048828125,-0.112945556640625,0.0099029541015625
1751013756500458000,1.4894580078125,-1.0135498046875,-0.1155853271484375,0.0095367431640625
1751013756510401000,1.499401123046875,-1.0163421630859375,-0.1146697998046875,0.0127410888671875
1751013756520344000,1.509343994140625,-1.01446533203125,-0.1149139404296875,0.0146026611328125
1751013756530287900,1.519287841796875,-1.01226806640625,-0.1163330078125,0.0132293701171875
1751013756540231000,1.52923095703125,-1.013397216796875,-0.1177825927734375,0.0101470947265625
1751013756550175200,1.53917529296875,-1.0139923095703125,-0.117095947265625,0.0108795166015625
1751013756560118300,1.5491181640625,-1.0128631591796875,-0.11492919921875,0.0125885009765625
1751013756570061000,1.55906103515625,-1.009857177734375,-0.1127166748046875,0.0123748779296875
1751013756580005000,1.569005126953125,-1.0148773193359375,-0.1130828857421875,0.0091400146484375
1751013756589948200,1.5789482421875,-1.015777587890625,-0.1162872314453125,0.004150390625
1751013756599892200,1.588892333984375,-1.0098724365234375,-0.1194305419921875,0.0058135986328125
1751013756609835300,1.598835205078125,-1.00494384765625,-0.1205291748046875,0.0114288330078125
1751013756619778000,1.608778076171875,-1.0042877197265625,-0.12030029296875,0.0118408203125
1751013756629722000,1.61872216796875,-1.0076904296875,-0.1180877685546875,0.0108489990234375
1751013756639665200,1.6286650390625,-1.00787353515625,-0.115997314453125,0.011383056640625
1751013756649609700,1.638609619140625,-1.008544921875,-0.11572265625,0.00885009765625
1751013756659552800,1.648552734375,-1.0093994140625,-0.1178436279296875,0.004974365234375
1751013756669495800,1.658495849609375,-1.01654052734375,-0.11993408203125,0.0008087158203125
1751013756679440000,1.66843994140625,-1.0197296142578125,-0.1180572509765625,0.006256103515625
1751013756689383000,1.6783828125,-1.001800537109375,-0.1213531494140625,0.0228118896484375
1751013756699325700,1.68832568359375,-0.986907958984375,-0.1313629150390625,0.01861572265625
1751013756709269800,1.698269775390625,-0.9955291748046875,-0.13037109375,0.005706787109375
1751013756719212800,1.708212890625,-1.004486083984375,-0.1215057373046875,-0.004669189453125
1751013756729156600,1.718156494140625,-1.0105133056640625,-0.1170196533203125,-0.0198974609375
1751013756739099600,1.728099609375,-1.0147705078125,-0.114105224609375,-0.0234527587890625
1751013756749042700,1.738042724609375,-1.01513671875,-0.1110076904296875,-0.01763916015625
1751013756758986800,1.74798681640625,-1.01141357421875,-0.1035614013671875,-0.001739501953125
1751013756768929800,1.7579296875,-1.0086517333984375,-0.0994873046875,0.011688232421875
1751013756778873600,1.76787353515625,-1.0075531005859375,-0.0978546142578125,0.021148681640625
1751013756788816600,1.777816650390625,-1.002197265625,-0.099639892578125,0.027130126953125
1751013756798759700,1.787759765625,-0.9964599609375,-0.107208251953125,0.0286407470703125
1751013756808703700,1.797703857421875,-0.9965972900390625,-0.114990234375,0.0280914306640625
1751013756818646800,1.807646728515625,-0.999603271484375,-0.11907958984375,0.0317230224609375
1751013756828590600,1.817590576171875,-1.0053253173828125,-0.121307373046875,0.03228759765625
1751013756838533600,1.82753369140625,-1.0122833251953125,-0.1216278076171875,0.0293731689453125
1751013756848476700,1.8374765625,-1.0185699462890625,-0.1191864013671875,0.0257415771484375
1751013756858420700,1.847420654296875,-1.0239410400390625,-0.1156768798828125,0.0215911865234375
1751013756868363500,1.857363525390625,-1.0279541015625,-0.1090240478515625,0.0199432373046875
1751013756878306600,1.867306640625,-1.0268402099609375,-0.1030120849609375,0.01934814453125
1751013756888251000,1.8772509765625,-1.0253448486328125,-0.1003265380859375,0.01708984375
1751013756898193700,1.887193603515625,-1.0228118896484375,-0.09796142578125,0.0156097412109375
1751013756908137700,1.8971376953125,-1.01641845703125,-0.09698486328125,0.016510009765625
1751013756918080800,1.907080810546875,-1.006011962890625,-0.0988616943359375,0.018310546875
1751013756928023800,1.91702392578125,-0.986053466796875,-0.1034393310546875,0.02337646484375
1751013756937967900,1.9269677734375,-0.9755401611328125,-0.1121673583984375,0.03131103515625
1751013756947911000,1.936910888671875,-0.9723663330078125,-0.11761474609375,0.032073974609375
1751013756957854700,1.946854736328125,-0.97027587890625,-0.1240234375,0.0210113525390625
1751013756967797800,1.9567978515625,-0.974761962890625,-0.131378173828125,0.01312255859375
1751013756977740800,1.96674072265625,-0.9838714599609375,-0.132781982421875,0.0041046142578125
1751013756987684600,1.9766845703125,-0.9875030517578125,-0.1314544677734375,-0.0120086669921875
1751013756997627600,1.986627685546875,-0.9971160888671875,-0.1256561279296875,-0.0206146240234375
1751013757007570700,1.99657080078125,-1.00726318359375,-0.117767333984375,-0.0193023681640625
1751013757017514800,2.0065146484375,-1.010223388671875,-0.11328125,-0.0155487060546875
1751013757027457800,2.016457763671875,-1.009796142578125,-0.1104278564453125,-0.0126190185546875
1751013757037401600,2.026401611328125,-1.0127410888671875,-0.1066741943359375,-0.0048828125
1751013757047344600,2.0363447265625,-1.0118255615234375,-0.1067047119140625,-0.0008392333984375
1751013757057287700,2.04628759765625,-1.0078582763671875,-0.11004638671875,0.008209228515625
1751013757067231700,2.056231689453125,-1.0058135986328125,-0.1165618896484375,0.0134124755859375
1751013757077174800,2.0661748046875,-1.005218505859375,-0.1175079345703125,0.0218048095703125
1751013757087118600,2.07611865234375,-1.005859375,-0.1180877685546875,0.021270751953125
1751013757097061600,2.0860615234375,-1.006317138671875,-0.116851806640625,0.0172119140625
1751013757107004700,2.096004638671875,-1.003082275390625,-0.1138153076171875,0.0149078369140625
1751013757116948500,2.105948486328125,-1.0051116943359375,-0.1121673583984375,0.0134735107421875
1751013757126891500,2.1158916015625,-1.0068511962890625,-0.111358642578125,0.009765625
1751013757136835800,2.1258359375,-1.00640869140625,-0.11077880859375,0.0074615478515625
1751013757146779000,2.13577880859375,-1.006500244140625,-0.1083221435546875,0.0117034912109375
1751013757156722000,2.145721923828125,-0.999755859375,-0.1063232421875,0.01727294921875
1751013757166665700,2.155665771484375,-1.004364013671875,-0.105438232421875,0.017974853515625
1751013757176608800,2.16560888671875,-1.005767822265625,-0.102447509765625,0.0150604248046875
1751013757186551800,2.1755517578125,-1.0047607421875,-0.0946197509765625,0.016510009765625
1751013757196496000,2.185495849609375,-1.00689697265625,-0.088531494140625,0.0110931396484375
1751013757206438700,2.195438720703125,-1.008087158203125,-0.0893707275390625,0.00872802734375
1751013757216382700,2.2053828125,-1.00286865234375,-0.0864410400390625,0.0066375732421875
1751013757226325800,2.21532568359375,-1.0067138671875,-0.0882110595703125,-0.004791259765625
1751013757236268800,2.225268798828125,-1.0068817138671875,-0.09381103515625,-0.0186767578125
1751013757246212600,2.235212646484375,-1.002685546875,-0.095733642578125,-0.0293121337890625
1751013757256155600,2.24515576171875,-1.0062408447265625,-0.09649658203125,-0.04058837890625
1751013757266099700,2.255099609375,-1.0121002197265625,-0.1007232666015625,-0.04962158203125
1751013757276042800,2.265042724609375,-1.0126800537109375,-0.1040191650390625,-0.056854248046875
1751013757285985800,2.27498583984375,-1.0092010498046875,-0.10693359375,-0.0644989013671875
1751013757295929600,2.2849296875,-1.01129150390625,-0.10986328125,-0.059906005859375
1751013757305872600,2.29487255859375,-1.0174560546875,-0.1089630126953125,-0.062530517578125
1751013757315816700,2.304816650390625,-1.015228271484375,-0.1160125732421875,-0.06768798828125
1751013757325759700,2.314759765625,-1.010162353515625,-0.1237945556640625,-0.065948486328125
1751013757335702800,2.324702880859375,-1.0118255615234375,-0.1319122314453125,-0.0632476806640625
1751013757345646600,2.334646484375,-1.0135650634765625,-0.142669677734375,-0.0626068115234375
1751013757355589600,2.344589599609375,-1.014312744140625,-0.153717041015625,-0.062957763671875
1751013757365532700,2.35453271484375,-1.0130615234375,-0.1633453369140625,-0.0574798583984375
1751013757375476500,2.3644765625,-1.01324462890625,-0.1713104248046875,-0.0495147705078125
1751013757385419500,2.37441943359375,-1.0170745849609375,-0.1747283935546875,-0.040985107421875
1751013757395363800,2.38436376953125,-1.024169921875,-0.1710968017578125,-0.0332489013671875
1751013757405307000,2.394306884765625,-1.0308074951171875,-0.1665191650390625,-0.0218353271484375
1751013757415250000,2.40425,-1.0351104736328125,-0.159759521484375,-0.00885009765625
1751013757425193700,2.41419384765625,-1.0500030517578125,-0.1504669189453125,-0.0050506591796875
1751013757435136800,2.42413671875,-1.05377197265625,-0.1405487060546875,-0.0076904296875
1751013757445080800,2.434080810546875,-1.05194091796875,-0.127777099609375,-0.0125579833984375
1751013757455023900,2.44402392578125,-1.05682373046875,-0.116729736328125,-0.01348876953125
1751013757464966700,2.453966552734375,-1.060943603515625,-0.1104583740234375,-0.012847900390625
1751013757474910700,2.46391064453125,-1.0553436279296875,-0.109100341796875,-0.017181396484375
1751013757484853800,2.473853759765625,-1.0522003173828125,-0.112518310546875,-0.0243377685546875
1751013757494797800,2.4837978515625,-1.0461578369140625,-0.11773681640625,-0.027984619140625
1751013757504740600,2.49374072265625,-1.0357208251953125,-0.123626708984375,-0.0282440185546875
1751013757514683600,2.50368359375,-1.0268096923828125,-0.1287994384765625,-0.0297088623046875
1751013757524627700,2.513627685546875,-1.017303466796875,-0.1328125,-0.0340576171875
1751013757534570800,2.52357080078125,-1.0089874267578125,-0.1368865966796875,-0.0339813232421875
1751013757544513800,2.533513671875,-1.0032806396484375,-0.1411590576171875,-0.0308990478515625
1751013757554457600,2.54345751953125,-1.0007476806640625,-0.141510009765625,-0.028656005859375
1751013757564400600,2.553400634765625,-0.9989013671875,-0.1386871337890625,-0.0289154052734375
1751013757574344700,2.5633447265625,-0.9935455322265625,-0.1342010498046875,-0.027099609375
1751013757584287700,2.573287841796875,-0.986846923828125,-0.13177490234375,-0.0246734619140625
1751013757594230500,2.58323046875,-0.98724365234375,-0.1329193115234375,-0.021331787109375
1751013757604174600,2.593174560546875,-0.9828948974609375,-0.1358489990234375,-0.0215301513671875
1751013757614117600,2.60311767578125,-0.97686767578125,-0.14129638671875,-0.0250396728515625
1751013757624061700,2.613061767578125,-0.9725189208984375,-0.1495208740234375,-0.0261383056640625
1751013757634004500,2.62300439453125,-0.9703369140625,-0.156890869140625,-0.02410888671875
1751013757643947500,2.632947509765625,-0.9649200439453125,-0.1645660400390625,-0.0205841064453125
1751013757653891800,2.642891845703125,-0.9617462158203125,-0.16729736328125,-0.0160675048828125
1751013757663835000,2.6528349609375,-0.961212158203125,-0.1646881103515625,-0.00933837890625
1751013757673778700,2.66277880859375,-0.9654541015625,-0.160491943359375,-0.0074920654296875
1751013757683721700,2.6727216796875,-0.9748992919921875,-0.1522674560546875,-0.007781982421875
1751013757693664800,2.682664794921875,-0.9806365966796875,-0.14739990234375,-0.0104217529296875
1751013757703608800,2.69260888671875,-0.98297119140625,-0.1414337158203125,-0.013885498046875
1751013757713552000,2.7025517578125,-0.9879302978515625,-0.13519287109375,-0.0162200927734375
1751013757723494700,2.71249462890625,-0.9917755126953125,-0.12945556640625,-0.014556884765625
1751013757733438700,2.722438720703125,-0.9933929443359375,-0.12677001953125,-0.017547607421875
1751013757743381800,2.7323818359375,-0.9950103759765625,-0.1288909912109375,-0.0245819091796875
1751013757753325800,2.742325927734375,-0.9989166259765625,-0.132049560546875,-0.0304107666015625
1751013757763268600,2.7522685546875,-0.9984130859375,-0.1360626220703125,-0.035125732421875
1751013757773211600,2.762211669921875,-0.99578857421875,-0.1426239013671875,-0.0360260009765625
1751013757783155700,2.77215576171875,-0.9963836669921875,-0.149078369140625,-0.0363006591796875
1751013757793098800,2.7820986328125,-0.993438720703125,-0.1505889892578125,-0.034332275390625
1751013757803042800,2.792042724609375,-0.9941253662109375,-0.1476287841796875,-0.031524658203125
1751013757812985900,2.80198583984375,-0.9980316162109375,-0.1411285400390625,-0.025299072265625
1751013757822929000,2.811928955078125,-1.0020904541015625,-0.133544921875,-0.0243072509765625
1751013757832873000,2.821873046875,-1.0080718994140625,-0.1246795654296875,-0.02484130859375
1751013757842816000,2.83181591796875,-1.0155029296875,-0.119903564453125,-0.0303192138671875
1751013757852759800,2.841759765625,-1.018524169921875,-0.1156768798828125,-0.036407470703125
1751013757862702800,2.851702880859375,-1.0177459716796875,-0.117523193359375,-0.039154052734375
1751013757872646000,2.86164599609375,-1.01983642578125,-0.120147705078125,-0.0402679443359375
1751013757882589700,2.871589599609375,-1.0193634033203125,-0.1256561279296875,-0.0408477783203125
1751013757892532700,2.88153271484375,-1.016693115234375,-0.1315460205078125,-0.042205810546875
1751013757902475800,2.891475830078125,-1.013671875,-0.136016845703125,-0.040618896484375
1751013757912419800,2.901419921875,-1.0106201171875,-0.1414794921875,-0.039031982421875
1751013757922363000,2.91136279296875,-1.010955810546875,-0.1463775634765625,-0.041107177734375
1751013757932306700,2.921306640625,-1.0087127685546875,-0.1460418701171875,-0.0393218994140625
1751013757942249700,2.931249755859375,-1.0045318603515625,-0.14068603515625,-0.035736083984375
1751013757952192800,2.94119287109375,-1.001983642578125,-0.1366424560546875,-0.033721923828125
1751013757962136800,2.95113671875,-1.0023193359375,-0.131591796875,-0.032562255859375
1751013757972079900,2.961079833984375,-0.9981536865234375,-0.128143310546875,-0.0308074951171875
1751013757982023700,2.971023681640625,-0.9952239990234375,-0.1276702880859375,-0.0284271240234375
1751013757991966700,2.980966796875,-0.992279052734375,-0.130950927734375,-0.0276947021484375
1751013758001909800,2.99090966796875,-0.99163818359375,-0.135162353515625,-0.0303497314453125
1751013758011853600,3.000853515625,-0.9944305419921875,-0.1380157470703125,-0.0329742431640625
1751013758021796600,3.010796630859375,-0.993194580078125,-0.140289306640625,-0.03472900390625
1751013758031741000,3.020740966796875,-0.9958953857421875,-0.142669677734375,-0.03741455078125
1751013758041684000,3.03068408203125,-0.999542236328125,-0.1402587890625,-0.0335845947265625
1751013758051626800,3.040626708984375,-1.0007476806640625,-0.1353302001953125,-0.0281982421875
1751013758061570800,3.05057080078125,-1.00372314453125,-0.1313018798828125,-0.0276031494140625
1751013758071513900,3.060513916015625,-1.0064697265625,-0.12969970703125,-0.0261688232421875
1751013758081457000,3.070456787109375,-1.0102691650390625,-0.127716064453125,-0.0289306640625
1751013758091401000,3.08040087890625,-1.015899658203125,-0.125,-0.03143310546875
1751013758101343700,3.09034375,-1.0189056396484375,-0.121917724609375,-0.0354461669921875
1751013758111287800,3.100287841796875,-1.0234222412109375,-0.120574951171875,-0.041290283203125
1751013758121230800,3.11023095703125,-1.02789306640625,-0.11907958984375,-0.04791259765625
1751013758131174000,3.120173828125,-1.030426025390625,-0.117156982421875,-0.050537109375
1751013758141117700,3.13011767578125,-1.02703857421875,-0.1158599853515625,-0.0484466552734375
1751013758151060700,3.140060791015625,-1.0247650146484375,-0.1175079345703125,-0.047393798828125
1751013758161004800,3.1500048828125,-1.01873779296875,-0.120147705078125,-0.0474853515625
1751013758170947800,3.15994775390625,-1.01080322265625,-0.1207427978515625,-0.0453948974609375
1751013758180891000,3.169890869140625,-1.00360107421875,-0.118011474609375,-0.033935546875
1751013758190834700,3.179834716796875,-0.995849609375,-0.1115264892578125,-0.025360107421875
1751013758200777700,3.18977783203125,-0.9901580810546875,-0.1049041748046875,-0.0211944580078125
1751013758210721800,3.1997216796875,-0.99273681640625,-0.0990142822265625,-0.0109405517578125
1751013758220664800,3.209664794921875,-0.998626708984375,-0.0890960693359375,-0.000762939453125
1751013758230608000,3.21960791015625,-0.9878387451171875,-0.089447021484375,-0.0080108642578125
1751013758240551700,3.2295517578125,-0.98382568359375,-0.0967254638671875,-0.021270751953125
1751013758250494700,3.23949462890625,-0.991729736328125,-0.109405517578125,-0.036407470703125
1751013758260438800,3.249438720703125,-0.998687744140625,-0.1287384033203125,-0.0411224365234375
1751013758270381600,3.259381591796875,-1.0095977783203125,-0.1424713134765625,-0.044036865234375
1751013758280324600,3.26932470703125,-1.0057830810546875,-0.1663970947265625,-0.0438079833984375
1751013758290269000,3.27926904296875,-0.9805450439453125,-0.1743011474609375,-0.0431060791015625
1751013758300212000,3.2892119140625,-0.96453857421875,-0.1494903564453125,-0.0464935302734375
1751013758310155800,3.29915576171875,-0.9712982177734375,-0.1209869384765625,-0.0562744140625
1751013758320098800,3.309098876953125,-0.9903564453125,-0.1085205078125,-0.0636749267578125
1751013758330041900,3.319041748046875,-0.987640380859375,-0.1155548095703125,-0.0637664794921875
1751013758339986000,3.32898583984375,-0.9757843017578125,-0.133087158203125,-0.06256103515625
1751013758349929000,3.338928955078125,-0.9793853759765625,-0.1462554931640625,-0.0560150146484375
1751013758359871700,3.348871826171875,-0.9940338134765625,-0.1562652587890625,-0.0684967041015625
1751013758369815800,3.35881591796875,-1.0017242431640625,-0.163299560546875,-0.062530517578125
1751013758379758800,3.3687587890625,-1.009185791015625,-0.1622467041015625,-0.036773681640625
1751013758389703000,3.378702880859375,-1.0230712890625,-0.1413421630859375,0.018768310546875
1751013758399645700,3.388645751953125,-1.033721923828125,-0.1299591064453125,0.0158843994140625
1751013758409588700,3.398588623046875,-1.015228271484375,-0.1342926025390625,-0.02630615234375
1751013758419532800,3.40853271484375,-0.999053955078125,-0.123321533203125,-0.0252685546875
1751013758429475800,3.418475830078125,-1.0055694580078125,-0.0986480712890625,-0.0236663818359375
1751013758439419600,3.428419677734375,-1.0272369384765625,-0.079986572265625,-0.013336181640625
1751013758449362700,3.43836279296875,-1.023101806640625,-0.09185791015625,-0.00531005859375
1751013758459305700,3.4483056640625,-1.0069427490234375,-0.1076812744140625,-0.004058837890625
1751013758469249800,3.458249755859375,-1.0048675537109375,-0.1077423095703125,-0.0077972412109375
1751013758479192800,3.46819287109375,-1.0051116943359375,-0.0976104736328125,-0.0128173828125
1751013758489136600,3.47813671875,-1.016326904296875,-0.075103759765625,-0.002532958984375
1751013758499079700,3.48807958984375,-1.0335235595703125,-0.0638427734375,-0.004486083984375
1751013758509022700,3.498022705078125,-1.03704833984375,-0.067138671875,-0.010711669921875
1751013758518967000,3.507967041015625,-1.031982421875,-0.079864501953125,-0.0123138427734375
1751013758528909600,3.51790966796875,-1.0305023193359375,-0.0906524658203125,-0.009857177734375
1751013758538852600,3.5278525390625,-1.0306854248046875,-0.0914306640625,-0.0056610107421875
1751013758548797000,3.537796875,-1.02777099609375,-0.091156005859375,-0.0013885498046875
1751013758558740000,3.547739990234375,-1.02197265625,-0.093109130859375,0.001007080078125
1751013758568683800,3.557683837890625,-1.01580810546875,-0.0959625244140625,0.0039520263671875
1751013758578626800,3.567626708984375,-1.02581787109375,-0.0911712646484375,0.032379150390625
1751013758588569900,3.57756982421875,-1.0381622314453125,-0.093292236328125,0.0238494873046875
1751013758598514000,3.587513916015625,-1.0119476318359375,-0.0995330810546875,-0.00250244140625
1751013758608457000,3.59745703125,-0.98699951171875,-0.09783935546875,-0.004180908203125
1751013758618400800,3.60740087890625,-0.993072509765625,-0.0901641845703125,0.001953125
1751013758628343800,3.61734375,-1.007598876953125,-0.0833587646484375,0.003448486328125
1751013758638286800,3.627286865234375,-1.00408935546875,-0.0809783935546875,0.0004119873046875
1751013758648231000,3.63723095703125,-0.991851806640625,-0.083282470703125,-0.0048675537109375
1751013758658173400,3.64717333984375,-0.9940185546875,-0.093292236328125,-0.009124755859375
1751013758668117500,3.657117431640625,-1.006866455078125,-0.0963134765625,-0.0046844482421875
1751013758678060500,3.667060546875,-1.0101165771484375,-0.093902587890625,-0.0066986083984375
1751013758688003300,3.67700341796875,-0.9948883056640625,-0.100433349609375,-0.0150909423828125
1751013758697947400,3.686947509765625,-0.98809814453125,-0.09814453125,-0.0022125244140625
1751013758707890400,3.696890380859375,-1.0027008056640625,-0.08953857421875,0.0023345947265625
1751013758717834500,3.70683447265625,-1.0004119873046875,-0.0969085693359375,-0.006103515625
1751013758727777500,3.716777587890625,-1.0001678466796875,-0.1035919189453125,-0.0048370361328125
1751013758737720600,3.726720458984375,-1.00872802734375,-0.10064697265625,-0.0052642822265625
1751013758747664400,3.736664306640625,-1.0132598876953125,-0.0938873291015625,-0.0039520263671875
1751013758757607400,3.746607421875,-1.0155181884765625,-0.0925445556640625,-0.0017852783203125
1751013758767551500,3.756551513671875,-1.0158843994140625,-0.094757080078125,-0.000091552734375
1751013758777494500,3.76649462890625,-1.017669677734375,-0.0919036865234375,-0.0010528564453125
1751013758787437300,3.776437255859375,-1.0195465087890625,-0.0879974365234375,-0.0009613037109375
1751013758797381400,3.78638134765625,-1.01556396484375,-0.087860107421875,-0.0015869140625
1751013758807324400,3.796324462890625,-1.019378662109375,-0.0915679931640625,0.000091552734375
1751013758817267500,3.806267333984375,-1.0169219970703125,-0.096649169921875,0.0042877197265625
1751013758827211300,3.816211181640625,-1.010162353515625,-0.1035919189453125,0.00469970703125
1751013758837154300,3.826154296875,-1.0076446533203125,-0.1108856201171875,0.0047454833984375
1751013758847098400,3.836098388671875,-1.0062713623046875,-0.1133575439453125,0.003173828125
1751013758857041400,3.84604150390625,-1.011962890625,-0.114288330078125,0.00091552734375
1751013758866984400,3.855984375,-1.016876220703125,-0.116302490234375,-0.0039520263671875
1751013758876928300,3.86592822265625,-1.017120361328125,-0.1172332763671875,-0.0097198486328125
1751013758886871300,3.875871337890625,-1.0131378173828125,-0.1150360107421875,-0.0125885009765625
1751013758896815600,3.885815673828125,-1.0052947998046875,-0.1083984375,-0.0114898681640625
1751013758906758400,3.89575830078125,-0.9983062744140625,-0.099822998046875,-0.0132293701171875
1751013758916701400,3.905701416015625,-0.9886627197265625,-0.09246826171875,-0.02093505859375
1751013758926645500,3.9156455078125,-0.986907958984375,-0.085296630859375,-0.025115966796875
1751013758936588500,3.925588623046875,-0.99517822265625,-0.0720672607421875,-0.0192718505859375
1751013758946532600,3.93553271484375,-0.98565673828125,-0.0638885498046875,-0.0198516845703125
1751013758956475400,3.945475341796875,-0.9772186279296875,-0.0706024169921875,-0.021026611328125
1751013758966418400,3.95541845703125,-0.988983154296875,-0.0826416015625,-0.0204315185546875
1751013758976362500,3.965362548828125,-1.00860595703125,-0.087188720703125,-0.021148681640625
1751013758986305500,3.975305419921875,-1.017578125,-0.0884552001953125,-0.0168304443359375
1751013758996249300,3.985249267578125,-1.015167236328125,-0.091094970703125,-0.017059326171875
1751013759006192400,3.9951923828125,-1.009307861328125,-0.0970611572265625,-0.0261993408203125
1751013759016135400,4.005135498046875,-1.005706787109375,-0.1042327880859375,-0.0362548828125
1751013759026079500,4.01507958984375,-1.0060577392578125,-0.1079254150390625,-0.042144775390625
1751013759036022500,4.0250224609375,-1.00933837890625,-0.103607177734375,-0.045257568359375
1751013759045966300,4.03496630859375,-1.0241851806640625,-0.101593017578125,-0.039642333984375
1751013759055909400,4.044909423828125,-1.04644775390625,-0.09942626953125,-0.038116455078125
1751013759065852400,4.054852294921875,-1.055816650390625,-0.092254638671875,-0.0448150634765625
1751013759075796500,4.06479638671875,-1.051513671875,-0.087799072265625,-0.04949951171875
1751013759085739300,4.0747392578125,-1.0383453369140625,-0.0855255126953125,-0.04547119140625
1751013759095683300,4.084683349609375,-1.0319061279296875,-0.0841217041015625,-0.040557861328125
1751013759105626400,4.09462646484375,-1.0298919677734375,-0.084320068359375,-0.0421142578125
1751013759115569400,4.1045693359375,-1.0245513916015625,-0.087188720703125,-0.0440521240234375
1751013759125513200,4.11451318359375,-1.0212860107421875,-0.0926361083984375,-0.0440521240234375
1751013759135456300,4.124456298828125,-1.0182037353515625,-0.101226806640625,-0.0437774658203125
1751013759145399300,4.1343994140625,-1.0134735107421875,-0.1092071533203125,-0.042938232421875
1751013759155343600,4.144343505859375,-1.0167999267578125,-0.110382080078125,-0.0305023193359375
1751013759165286400,4.154286376953125,-1.024566650390625,-0.104583740234375,-0.016082763671875
1751013759175230500,4.16423046875,-1.01776123046875,-0.10443115234375,-0.011016845703125
1751013759185173500,4.174173583984375,-1.002471923828125,-0.1100616455078125,-0.0117645263671875
1751013759195116500,4.184116455078125,-0.99578857421875,-0.1112060546875,-0.0144195556640625
1751013759205060600,4.194060546875,-0.9974517822265625,-0.1104888916015625,-0.024200439453125
1751013759215003400,4.20400341796875,-0.9986572265625,-0.1085052490234375,-0.0294647216796875
1751013759224947500,4.213947509765625,-1.0035552978515625,-0.110748291015625,-0.0344696044921875
1751013759234890500,4.223890380859375,-1.0055084228515625,-0.116607666015625,-0.03863525390625
1751013759244833500,4.23383349609375,-1.0025634765625,-0.1207733154296875,-0.03167724609375
1751013759254777300,4.24377734375,-1.000518798828125,-0.1186370849609375,-0.02166748046875
1751013759264720400,4.253720458984375,-0.9978485107421875,-0.1150054931640625,-0.015380859375
1751013759274664400,4.26366455078125,-0.995697021484375,-0.1121673583984375,-0.01031494140625
1751013759284607500,4.273607421875,-0.9990692138671875,-0.107513427734375,-0.0070648193359375
1751013759294550500,4.283550537109375,-1.0010986328125,-0.1018829345703125,-0.0041656494140625
1751013759304494300,4.293494384765625,-0.9974822998046875,-0.1011199951171875,-0.0065155029296875
1751013759314437400,4.303437255859375,-0.9964752197265625,-0.10247802734375,-0.011993408203125
1751013759324381400,4.31338134765625,-1.0007171630859375,-0.1014251708984375,-0.0116424560546875
1751013759334324500,4.323324462890625,-1.00469970703125,-0.101531982421875,-0.00921630859375
1751013759344267300,4.333267333984375,-1.0060882568359375,-0.10589599609375,-0.0100555419921875
1751013759354211300,4.34321142578125,-1.00518798828125,-0.1094512939453125,-0.0153656005859375
1751013759364154400,4.353154296875,-1.0022125244140625,-0.1107635498046875,-0.021087646484375
1751013759374098400,4.363098388671875,-1.001617431640625,-0.1139373779296875,-0.0255126953125
1751013759384041200,4.373041259765625,-1.00848388671875,-0.114501953125,-0.024261474609375
1751013759393984300,4.382984375,-1.013824462890625,-0.11322021484375,-0.0226287841796875
1751013759403928600,4.392928466796875,-1.0180511474609375,-0.1148681640625,-0.0302734375
1751013759413871600,4.40287158203125,-1.017913818359375,-0.118804931640625,-0.049560546875
1751013759423815400,4.4128154296875,-1.0131378173828125,-0.12017822265625,-0.0607147216796875
1751013759433758500,4.422758544921875,-1.01043701171875,-0.1180572509765625,-0.0652008056640625
1751013759443701500,4.432701416015625,-1.012603759765625,-0.1131744384765625,-0.062408447265625
1751013759453645600,4.4426455078125,-1.019256591796875,-0.109954833984375,-0.05767822265625
1751013759463588400,4.45258837890625,-1.02777099609375,-0.1102447509765625,-0.0536346435546875
1751013759473532400,4.462532470703125,-1.0285186767578125,-0.116943359375,-0.0600738525390625
1751013759483475500,4.472475341796875,-1.0213775634765625,-0.12225341796875,-0.06439208984375
1751013759493418500,4.48241845703125,-1.0171356201171875,-0.116485595703125,-0.05572509765625
1751013759503362300,4.4923623046875,-1.023529052734375,-0.1181182861328125,-0.0591888427734375
1751013759513305300,4.502305419921875,-1.023834228515625,-0.1250152587890625,-0.05926513671875
1751013759523249400,4.51224951171875,-1.003936767578125,-0.1251068115234375,-0.045074462890625
1751013759533192400,4.5221923828125,-0.9835052490234375,-0.117828369140625,-0.0247344970703125
1751013759543135500,4.532135498046875,-0.973480224609375,-0.10870361328125,-0.00946044921875
1751013759553079300,4.542079345703125,-0.9768829345703125,-0.097900390625,-0.0004119873046875
1751013759563022300,4.552022216796875,-0.9845123291015625,-0.0853729248046875,0.0008392333984375
1751013759572966400,4.56196630859375,-0.9915618896484375,-0.0792999267578125,-0.0075225830078125
1751013759582909400,4.571909423828125,-1.000091552734375,-0.0795135498046875,-0.019287109375
1751013759592852500,4.5818525390625,-1.009552001953125,-0.0809783935546875,-0.026397705078125
1751013759602796300,4.59179638671875,-1.0154266357421875,-0.08111572265625,-0.0266876220703125
1751013759612739300,4.6017392578125,-1.02044677734375,-0.081512451171875,-0.023773193359375
1751013759622683600,4.61168359375,-1.0176239013671875,-0.0861358642578125,-0.0224456787109375
1751013759632626400,4.62162646484375,-1.0124664306640625,-0.0923919677734375,-0.0227508544921875
1751013759642569200,4.6315693359375,-1.009246826171875,-0.100311279296875,-0.0246734619140625
1751013759652517400,4.641517333984375,-1.0100860595703125,-0.1056671142578125,-0.0234832763671875
1751013759662460400,4.65146044921875,-1.0150604248046875,-0.1059112548828125,-0.01568603515625
1751013759672403500,4.661403564453125,-1.0159759521484375,-0.1099090576171875,-0.007415771484375
1751013759682347500,4.671347412109375,-1.0078125,-0.113311767578125,-0.008819580078125
1751013759692290300,4.681290283203125,-0.996429443359375,-0.104156494140625,-0.0129547119140625
1751013759702234600,4.691234619140625,-0.9931640625,-0.0951690673828125,-0.0147705078125
1751013759712177400,4.701177490234375,-0.9998321533203125,-0.0891571044921875,-0.0194549560546875
1751013759722121500,4.71112158203125,-1.0039520263671875,-0.09844970703125,-0.0052337646484375
1751013759732064500,4.721064453125,-1.0244140625,-0.094146728515625,-0.0142059326171875
1751013759742007600,4.731007568359375,-1.020355224609375,-0.071197509765625,-0.0306854248046875
1751013759751951400,4.740951416015625,-1.00555419921875,-0.076385498046875,-0.0371551513671875
1751013759761894400,4.750894287109375,-1.0091552734375,-0.0803680419921875,-0.03594970703125
1751013759771837400,4.76083740234375,-1.010467529296875,-0.0723724365234375,-0.0236663818359375
1751013759781781500,4.770781494140625,-1.010223388671875,-0.060882568359375,-0.009429931640625
1751013759791724500,4.780724609375,-1.0107879638671875,-0.0666046142578125,-0.0027008056640625
1751013759801668400,4.79066845703125,-1.0092315673828125,-0.0694732666015625,0.0018463134765625
1751013759811611400,4.800611328125,-1.006622314453125,-0.0717315673828125,0.002197265625
1751013759821554400,4.810554443359375,-1.00738525390625,-0.0779876708984375,-0.0038909912109375
1751013759831498500,4.82049853515625,-1.00653076171875,-0.080810546875,-0.0101165771484375
1751013759841441300,4.830441162109375,-1.0064849853515625,-0.0829620361328125,-0.013458251953125
1751013759851385300,4.84038525390625,-1.007659912109375,-0.0841522216796875,-0.0101318359375
1751013759861328400,4.850328369140625,-1.008697509765625,-0.0850067138671875,-0.006866455078125
1751013759871271400,4.860271484375,-1.0091705322265625,-0.08404541015625,-0.0034637451171875
1751013759881215200,4.87021533203125,-1.00909423828125,-0.080108642578125,-0.003326416015625
1751013759891158300,4.880158203125,-1.01019287109375,-0.0771331787109375,-0.0061492919921875
1751013759901102300,4.890102294921875,-1.012298583984375,-0.0750274658203125,-0.009246826171875
1751013759911045400,4.90004541015625,-1.01470947265625,-0.0714569091796875,-0.009674072265625
1751013759920988400,4.909988525390625,-1.0147705078125,-0.0703277587890625,-0.009521484375
1751013759930932500,4.919932373046875,-1.016326904296875,-0.0696258544921875,-0.0106353759765625
1751013759940875500,4.92987548828125,-1.0207977294921875,-0.0691986083984375,-0.013763427734375
1751013759950819600,4.939819580078125,-1.023193359375,-0.072418212890625,-0.0217742919921875
1751013759960762600,4.9497626953125,-1.0249176025390625,-0.074920654296875,-0.029815673828125
1751013759970705400,4.959705322265625,-1.0316162109375,-0.0780487060546875,-0.0294647216796875
1751013759980649500,4.9696494140625,-1.0329132080078125,-0.08203125,-0.0223846435546875
1751013759990592500,4.979592529296875,-1.0262298583984375,-0.08355712890625,-0.0138092041015625
1751013760000536300,4.989536376953125,-1.01922607421875,-0.0819244384765625,-0.0011444091796875
1751013760010479400,4.999479248046875,-1.0197906494140625,-0.0781097412109375,0.0088043212890625
1751013760020422400,5.00942236328125,-1.018463134765625,-0.0733795166015625,0.0127716064453125
1751013760030366500,5.019366455078125,-1.0110015869140625,-0.0683441162109375,0.010223388671875
1751013760040309500,5.0293095703125,-1.0048675537109375,-0.0672454833984375,0.0043792724609375
1751013760050253300,5.03925341796875,-1.003204345703125,-0.06781005859375,-0.001251220703125
1751013760060196400,5.0491962890625,-1.0026397705078125,-0.068817138671875,-0.00445556640625
1751013760070139400,5.059139404296875,-0.998046875,-0.0717315673828125,-0.0033111572265625
1751013760080083500,5.06908349609375,-0.9962005615234375,-0.0777587890625,-0.001312255859375
1751013760090026500,5.079026611328125,-0.99658203125,-0.08349609375,0.003692626953125
1751013760099970300,5.08897021484375,-0.9920654296875,-0.09136962890625,0.0084381103515625
1751013760109913300,5.098913330078125,-0.9882659912109375,-0.09783935546875,0.0126953125
1751013760119856400,5.1088564453125,-0.9846038818359375,-0.102691650390625,0.016387939453125
1751013760129800200,5.11880029296875,-0.9825592041015625,-0.1018218994140625,0.018524169921875
1751013760139743200,5.1287431640625,-0.9875030517578125,-0.0928802490234375,0.0190582275390625
1751013760149687600,5.1386875,-0.998260498046875,-0.08123779296875,0.009735107421875
1751013760159630600,5.148630615234375,-1.00250244140625,-0.0729827880859375,-0.0109710693359375
1751013760169573400,5.158573486328125,-1.0048828125,-0.067718505859375,-0.02923583984375
1751013760179517400,5.168517333984375,-1.0103607177734375,-0.0650787353515625,-0.0457763671875
1751013760189460500,5.17846044921875,-1.013916015625,-0.0626373291015625,-0.0558624267578125
1751013760199404500,5.188404541015625,-1.0196380615234375,-0.0570526123046875,-0.0557403564453125
1751013760209347600,5.19834765625,-1.0246734619140625,-0.0522918701171875,-0.0415802001953125
1751013760219290400,5.208290283203125,-1.022552490234375,-0.0512847900390625,-0.0225982666015625
1751013760229234400,5.218234375,-1.0147705078125,-0.052337646484375,-0.010162353515625
1751013760239177500,5.228177490234375,-1.0099639892578125,-0.0578765869140625,-0.0083160400390625
1751013760249121500,5.23812158203125,-1.0126800537109375,-0.07080078125,-0.0102691650390625
1751013760259064300,5.248064208984375,-1.01580810546875,-0.08123779296875,-0.008697509765625
1751013760269007400,5.25800732421875,-1.017608642578125,-0.085205078125,-0.013824462890625
1751013760278951400,5.267951416015625,-1.020233154296875,-0.0866241455078125,-0.0159149169921875
1751013760288894500,5.27789453125,-1.0202789306640625,-0.081207275390625,-0.0160064697265625
1751013760298838300,5.28783837890625,-1.0160064697265625,-0.0671844482421875,-0.0164337158203125
1751013760308781300,5.29778125,-1.01025390625,-0.0547943115234375,-0.0203399658203125
1751013760318724400,5.307724365234375,-1.00885009765625,-0.0458831787109375,-0.0240020751953125
1751013760328668400,5.31766845703125,-1.0153350830078125,-0.040252685546875,-0.0286407470703125
1751013760338611500,5.327611572265625,-1.018890380859375,-0.0403289794921875,-0.0267333984375
1751013760348555300,5.33755517578125,-1.0189971923828125,-0.044586181640625,-0.0174102783203125
1751013760358498300,5.347498291015625,-1.0247344970703125,-0.0504608154296875,-0.0139923095703125
1751013760368441300,5.35744140625,-1.039703369140625,-0.0522308349609375,-0.013580322265625
1751013760378385400,5.367385498046875,-1.050537109375,-0.0510101318359375,-0.011444091796875
1751013760388328200,5.377328125,-1.0514984130859375,-0.0521087646484375,-0.0157928466796875
1751013760398272500,5.3872724609375,-1.05084228515625,-0.0538330078125,-0.019287109375
1751013760408215600,5.397215576171875,-1.0569305419921875,-0.0528564453125,-0.0127105712890625
1751013760418158600,5.40715869140625,-1.056884765625,-0.0492706298828125,-0.0035400390625
1751013760428102400,5.417102294921875,-1.0499420166015625,-0.0456695556640625,-0.0002593994140625
1751013760438045400,5.42704541015625,-1.04229736328125,-0.0449676513671875,0.0009307861328125
1751013760447989500,5.436989501953125,-1.0357513427734375,-0.045745849609375,0.001068115234375
1751013760457932500,5.4469326171875,-1.0219573974609375,-0.046905517578125,0.008880615234375
1751013760467875600,5.45687548828125,-1.005889892578125,-0.048187255859375,0.01776123046875
1751013760477819400,5.4668193359375,-0.9951629638671875,-0.0499420166015625,0.0258026123046875
1751013760487762400,5.476762451171875,-0.990966796875,-0.04736328125,0.030364990234375
1751013760497706500,5.48670654296875,-0.992523193359375,-0.0427398681640625,0.0369415283203125
1751013760507649500,5.4966494140625,-0.993438720703125,-0.0440521240234375,0.03411865234375
1751013760517592300,5.50659228515625,-0.989501953125,-0.0520782470703125,0.0228424072265625
1751013760527536400,5.516536376953125,-0.9905242919921875,-0.0575408935546875,0.018463134765625
1751013760537479400,5.5264794921875,-0.99639892578125,-0.0604705810546875,0.0200653076171875
1751013760547423500,5.536423583984375,-1.0009002685546875,-0.060211181640625,0.0204620361328125
1751013760557366300,5.5463662109375,-0.994049072265625,-0.059173583984375,0.0218048095703125
1751013760567309300,5.556309326171875,-0.9838104248046875,-0.0590362548828125,0.02349853515625
1751013760577253400,5.56625341796875,-0.9803314208984375,-0.0591278076171875,0.0253143310546875
1751013760587196400,5.576196533203125,-0.97760009765625,-0.057098388671875,0.02716064453125
1751013760597140200,5.58614013671875,-0.97320556640625,-0.057098388671875,0.026611328125
1751013760607083300,5.596083251953125,-0.977569580078125,-0.0615997314453125,0.0256500244140625
1751013760617026300,5.6060263671875,-0.9868927001953125,-0.066253662109375,0.02227783203125
1751013760626970600,5.615970703125,-0.9956817626953125,-0.0702056884765625,0.014312744140625
1751013760636913700,5.62591357421875,-1.0017852783203125,-0.069427490234375,0.011138916015625
1751013760646857500,5.635857421875,-1.0084991455078125,-0.0653228759765625,0.0111846923828125
1751013760656796000,5.6457958984375,-1.0113677978515625,-0.06134033203125,0.0121002197265625
1751013760666739000,5.655739013671875,-1.0150299072265625,-0.0571746826171875,0.0150909423828125
1751013760676683000,5.66568310546875,-1.01361083984375,-0.0566558837890625,0.012969970703125
1751013760686626000,5.6756259765625,-1.015777587890625,-0.0570831298828125,0.0103759765625
1751013760696569900,5.68556982421875,-1.0245361328125,-0.0565032958984375,0.0112152099609375
1751013760706513000,5.695512939453125,-1.0337066650390625,-0.0586090087890625,0.009735107421875
1751013760716456000,5.7054560546875,-1.0343017578125,-0.062896728515625,0.0117645263671875
1751013760726400000,5.71539990234375,-1.0204315185546875,-0.066192626953125,0.012542724609375
1751013760736342800,5.7253427734375,-1.013031005859375,-0.067413330078125,0.012115478515625
1751013760746286800,5.735286865234375,-1.00830078125,-0.07122802734375,0.01470947265625
1751013760756230000,5.74522998046875,-1.0120086669921875,-0.075347900390625,0.0146026611328125
1751013760766173000,5.7551728515625,-1.017181396484375,-0.0780181884765625,0.011566162109375
1751013760776116700,5.76511669921875,-1.0165863037109375,-0.0777740478515625,0.0059967041015625
1751013760786059800,5.775059814453125,-1.0172119140625,-0.0765838623046875,0.0063629150390625
1751013760796003800,5.78500390625,-1.0210113525390625,-0.07342529296875,0.0129547119140625
1751013760805947000,5.79494677734375,-1.0191497802734375,-0.0731353759765625,0.017974853515625
1751013760815890000,5.804889892578125,-1.028594970703125,-0.0706787109375,0.019744873046875
1751013760825834000,5.814833984375,-1.038848876953125,-0.063873291015625,0.0172882080078125
1751013760835776800,5.82477685546875,-1.0413055419921875,-0.060333251953125,0.0113677978515625
1751013760845721000,5.83472119140625,-1.026092529296875,-0.061370849609375,0.0088958740234375
1751013760855664000,5.8446640625,-1.0121002197265625,-0.0619049072265625,0.0094451904296875
1751013760865607000,5.85460693359375,-1.010345458984375,-0.0612335205078125,0.011962890625
1751013760875551000,5.864551025390625,-1.00738525390625,-0.0613250732421875,0.0167236328125
1751013760885494000,5.874493896484375,-1.002716064453125,-0.06475830078125,0.0189208984375
1751013760895438000,5.88443798828125,-1.0008392333984375,-0.066436767578125,0.02130126953125
1751013760905380900,5.894380859375,-1.0024871826171875,-0.066497802734375,0.027557373046875
1751013760915324000,5.904323974609375,-1.00152587890625,-0.06671142578125,0.0281524658203125
1751013760925268000,5.91426806640625,-1.0051116943359375,-0.0706024169921875,0.0250396728515625
1751013760935211000,5.9242109375,-1.0070953369140625,-0.075286865234375,0.02117919921875
1751013760945154800,5.93415478515625,-1.01171875,-0.0775909423828125,0.01837158203125
1751013760955097900,5.944097900390625,-1.019195556640625,-0.0724334716796875,0.01568603515625
1751013760965041000,5.954041015625,-1.018585205078125,-0.0715179443359375,0.0143280029296875
1751013760974985000,5.96398486328125,-1.0144805908203125,-0.0749664306640625,0.0146636962890625
1751013760984928000,5.973927978515625,-1.0139312744140625,-0.075775146484375,0.0179901123046875
1751013760994871800,5.983871826171875,-1.01214599609375,-0.0791168212890625,0.0168914794921875
1751013761004814800,5.99381494140625,-1.0044708251953125,-0.0867462158203125,0.01318359375
1751013761014758000,6.0037578125,-0.9985504150390625,-0.0917510986328125,0.0130462646484375
1751013761024702000,6.013701904296875,-0.9968414306640625,-0.0932769775390625,0.014251708984375
1751013761034644700,6.023644775390625,-0.9969635009765625,-0.092529296875,0.0188140869140625
1751013761044588800,6.0335888671875,-0.996673583984375,-0.0880889892578125,0.026092529296875
1751013761054531800,6.04353173828125,-0.9932708740234375,-0.08380126953125,0.029205322265625
1751013761064475000,6.053474853515625,-0.9925689697265625,-0.083221435546875,0.022705078125
1751013761074419000,6.0634189453125,-0.9935302734375,-0.0810394287109375,0.01416015625
1751013761084362000,6.073362060546875,-0.9972991943359375,-0.07891845703125,0.009674072265625
1751013761094306000,6.08330615234375,-1.0011138916015625,-0.0793914794921875,0.0130157470703125
1751013761104249000,6.0932490234375,-1.0051116943359375,-0.07830810546875,0.0209808349609375
1751013761114192100,6.103192138671875,-1.0091552734375,-0.0758209228515625,0.030242919921875
1751013761124136000,6.113135986328125,-1.01544189453125,-0.07489013671875,0.03790283203125
1751013761134079000,6.123078857421875,-1.0201568603515625,-0.0777130126953125,0.0381622314453125
1751013761144023000,6.13302294921875,-1.0267181396484375,-0.0818939208984375,0.0219268798828125
1751013761153965800,6.1429658203125,-1.030181884765625,-0.084625244140625,0.007843017578125
1751013761163908900,6.152908935546875,-1.022430419921875,-0.08966064453125,0.0003204345703125
1751013761173853000,6.16285302734375,-1.0226898193359375,-0.094329833984375,-0.000823974609375
1751013761183796000,6.1727958984375,-1.0297393798828125,-0.0932159423828125,0.0021209716796875
1751013761193739000,6.182739013671875,-1.0303955078125,-0.0926971435546875,0.0034942626953125
1751013761203682800,6.192682861328125,-1.0264739990234375,-0.0936737060546875,0.0037994384765625
1751013761213625900,6.2026259765625,-1.021697998046875,-0.090667724609375,0.0081329345703125
1751013761223570000,6.21256982421875,-1.01611328125,-0.08819580078125,0.0087738037109375
1751013761233513000,6.222512939453125,-1.012420654296875,-0.088165283203125,0.010894775390625
1751013761243456800,6.232456787109375,-1.0040435791015625,-0.08831787109375,0.0111541748046875
1751013761253399800,6.24239990234375,-0.9980316162109375,-0.089691162109375,0.008819580078125
1751013761263342800,6.2523427734375,-1.00018310546875,-0.0920257568359375,0.0089111328125
1751013761273287000,6.262286865234375,-1.001861572265625,-0.0947723388671875,0.008880615234375
1751013761283230000,6.27222998046875,-1.0030059814453125,-0.0996551513671875,0.0068817138671875
1751013761293174000,6.282174072265625,-1.0070953369140625,-0.103424072265625,0.001495361328125
1751013761303117000,6.292116943359375,-1.010009765625,-0.1050872802734375,0.000213623046875
1751013761313059800,6.302059814453125,-1.009490966796875,-0.1072540283203125,0.0022430419921875
1751013761323004000,6.31200390625,-1.0103302001953125,-0.1062774658203125,0.0042724609375
1751013761332947000,6.321947021484375,-1.01947021484375,-0.1042938232421875,0.0011138916015625
1751013761342891000,6.33189111328125,-1.022216796875,-0.1018524169921875,-0.0032501220703125
1751013761352834000,6.341833984375,-1.0144195556640625,-0.1021728515625,-0.0071563720703125
1751013761362777000,6.351777099609375,-1.0090179443359375,-0.0998382568359375,-0.0048828125
1751013761372721000,6.361720947265625,-1.0106964111328125,-0.09454345703125,-0.001007080078125
1751013761382664000,6.371663818359375,-1.0115814208984375,-0.0876922607421875,0.0027008056640625
1751013761392608000,6.38160791015625,-1.0101318359375,-0.0855560302734375,0.0087127685546875
1751013761402551000,6.391551025390625,-1.008056640625,-0.0841064453125,0.014190673828125
1751013761412493800,6.401493896484375,-1.0053863525390625,-0.083709716796875,0.012054443359375
1751013761422438000,6.41143798828125,-1.00543212890625,-0.08551025390625,0.00628662109375
1751013761432381000,6.421380859375,-1.007965087890625,-0.0872955322265625,0.0064239501953125
1751013761442325000,6.431324951171875,-1.009002685546875,-0.0909576416015625,0.0094757080078125
1751013761452267800,6.441267822265625,-1.0087890625,-0.0963134765625,0.0107269287109375
1751013761462210800,6.4512109375,-1.00897216796875,-0.1014556884765625,0.0103302001953125
1751013761472155000,6.46115478515625,-1.00823974609375,-0.1008758544921875,0.0081024169921875
1751013761482098000,6.471097900390625,-1.0116729736328125,-0.0994720458984375,0.0078125
1751013761492041700,6.481041748046875,-1.0149993896484375,-0.09375,0.0120391845703125
1751013761501984800,6.49098486328125,-1.01422119140625,-0.088134765625,0.0105133056640625
1751013761511927800,6.500927734375,-1.0140380859375,-0.0856781005859375,0.007049560546875
1751013761521872000,6.510871826171875,-1.013580322265625,-0.0844573974609375,0.00762939453125
1751013761531815000,6.52081494140625,-1.0147247314453125,-0.084014892578125,0.007080078125
1751013761541759000,6.530759033203125,-1.017181396484375,-0.0878753662109375,0.00555419921875
1751013761551702000,6.540701904296875,-1.016998291015625,-0.090667724609375,0.00323486328125
1751013761561645000,6.55064501953125,-1.014129638671875,-0.0933837890625,0.004425048828125
1751013761571589000,6.560589111328125,-1.0128936767578125,-0.0954437255859375,0.0065765380859375
1751013761581532000,6.570531982421875,-1.0103759765625,-0.094268798828125,0.0069427490234375
1751013761591476000,6.58047607421875,-1.0086212158203125,-0.0917816162109375,0.0057525634765625
1751013761601419000,6.5904189453125,-1.00927734375,-0.0922393798828125,0.005615234375
1751013761611362000,6.600362060546875,-1.0084075927734375,-0.095672607421875,0.0011138916015625
1751013761621305900,6.610305908203125,-1.008392333984375,-0.0970306396484375,0.001495361328125
1751013761631249000,6.620248779296875,-1.0127716064453125,-0.0940093994140625,0.0085601806640625
1751013761641193000,6.63019287109375,-1.0179443359375,-0.08734130859375,0.0110321044921875
1751013761651136000,6.640135986328125,-1.0205078125,-0.0810089111328125,0.0065765380859375
1751013761661079600,6.65007958984375,-1.0224456787109375,-0.0765380859375,0.0038604736328125
1751013761671023600,6.660023681640625,-1.0263519287109375,-0.0743560791015625,0.0006866455078125
1751013761680966700,6.669966552734375,-1.0245819091796875,-0.0778656005859375,-0.0006866455078125
1751013761690909700,6.67990966796875,-1.0166778564453125,-0.0830078125,-0.0004730224609375
1751013761700853500,6.689853515625,-1.013916015625,-0.087188720703125,0.0033416748046875
1751013761710796500,6.699796630859375,-1.010986328125,-0.0926666259765625,0.004241943359375
1751013761720740600,6.70974072265625,-1.0042877197265625,-0.0987091064453125,0.00537109375
1751013761730683600,6.71968359375,-1.003997802734375,-0.099365234375,0.013397216796875
1751013761740626700,6.729626708984375,-1.008758544921875,-0.098876953125,0.0178375244140625
1751013761750570500,6.739570556640625,-1.0088653564453125,-0.0990753173828125,0.01708984375
1751013761760513500,6.749513427734375,-1.004150390625,-0.0990142822265625,0.0150299072265625
1751013761770457600,6.75945751953125,-1.00079345703125,-0.1007080078125,0.01495361328125
1751013761780400600,6.769400634765625,-1.0028076171875,-0.1005096435546875,0.0132293701171875
1751013761790344400,6.779344482421875,-1.0021820068359375,-0.101654052734375,0.009063720703125
1751013761800287500,6.78928759765625,-1.00250244140625,-0.1028594970703125,0.0073394775390625
1751013761810230500,6.79923046875,-1.0009002685546875,-0.1013031005859375,0.007415771484375
1751013761820174600,6.809174560546875,-0.998291015625,-0.1022796630859375,0.0066375732421875
1751013761830117600,6.81911767578125,-0.9981842041015625,-0.104827880859375,0.006011962890625
1751013761840061700,6.829061767578125,-1.00048828125,-0.1064605712890625,0.007110595703125
1751013761850004700,6.839004638671875,-1.0016021728515625,-0.1058807373046875,0.009735107421875
1751013761859947800,6.84894775390625,-1.00225830078125,-0.105316162109375,0.01129150390625
1751013761869891600,6.8588916015625,-1.002288818359375,-0.1065521240234375,0.011749267578125
1751013761879834600,6.868834716796875,-0.9999847412109375,-0.1060028076171875,0.00958251953125
1751013761889778700,6.87877880859375,-0.999481201171875,-0.1066741943359375,0.010284423828125
1751013761899721700,6.8887216796875,-1.00408935546875,-0.104888916015625,0.01275634765625
1751013761909664500,6.89866455078125,-1.00921630859375,-0.1019287109375,0.0064544677734375
1751013761919608600,6.908608642578125,-1.010223388671875,-0.1007537841796875,0.000213623046875
1751013761929551600,6.918551513671875,-1.0121612548828125,-0.0984954833984375,-0.0010528564453125
1751013761939495700,6.92849560546875,-1.014373779296875,-0.0948638916015625,-0.0013885498046875
1751013761949438500,6.9384384765625,-1.0131072998046875,-0.0933380126953125,-0.0005035400390625
1751013761959381500,6.948381591796875,-1.0133209228515625,-0.093963623046875,-0.00286865234375
1751013761969325600,6.95832568359375,-1.0168914794921875,-0.091705322265625,-0.0045623779296875
1751013761979268600,6.9682685546875,-1.018829345703125,-0.090240478515625,-0.0026702880859375
1751013761989212400,6.97821240234375,-1.0165557861328125,-0.0895538330078125,0.002838134765625
1751013761999155500,6.988155517578125,-1.01898193359375,-0.085235595703125,0.01507568359375
1751013762009098500,6.998098388671875,-1.0218658447265625,-0.0826873779296875,0.023773193359375
1751013762019042600,7.00804248046875,-1.018310546875,-0.0866546630859375,0.0166473388671875
1751013762028985600,7.017985595703125,-1.0206756591796875,-0.0916748046875,0.0007781982421875
1751013762038929700,7.0279296875,-1.02197265625,-0.0963592529296875,-0.0063323974609375
1751013762048872400,7.03787255859375,-1.0164947509765625,-0.1013946533203125,-0.00634765625
1751013762058815500,7.0478154296875,-1.0101776123046875,-0.103729248046875,-0.0018157958984375
1751013762068759600,7.057759521484375,-1.00775146484375,-0.1075286865234375,0.000518798828125
1751013762078702600,7.06770263671875,-1.005096435546875,-0.109344482421875,0.002899169921875
1751013762088646700,7.077646728515625,-1.0023651123046875,-0.1138458251953125,0.0049285888671875
1751013762098589700,7.087589599609375,-1.0037078857421875,-0.113494873046875,0.007720947265625
1751013762108532700,7.09753271484375,-1.00390625,-0.1107940673828125,0.0096282958984375
1751013762118476500,7.1074765625,-1.00384521484375,-0.108734130859375,0.0063018798828125
1751013762128419600,7.117419677734375,-0.9996490478515625,-0.10797119140625,0.001953125
1751013762138363600,7.12736376953125,-0.99578857421875,-0.1061248779296875,0.002685546875
1751013762148306700,7.137306640625,-0.9944915771484375,-0.10272216796875,0.00628662109375
1751013762158249700,7.147249755859375,-0.994598388671875,-0.0999908447265625,0.0104522705078125
1751013762168193500,7.157193603515625,-0.9948883056640625,-0.10186767578125,0.010223388671875
1751013762178136600,7.167136474609375,-0.99755859375,-0.1060943603515625,0.0099029541015625
1751013762188080600,7.17708056640625,-1.0037078857421875,-0.1065216064453125,0.0114288330078125
1751013762198023700,7.187023681640625,-1.0081634521484375,-0.103485107421875,0.0120849609375
1751013762207966500,7.196966552734375,-1.0115966796875,-0.1019134521484375,0.01116943359375
1751013762217910500,7.20691064453125,-1.01129150390625,-0.1049041748046875,0.007110595703125
1751013762227853600,7.216853515625,-1.0070953369140625,-0.1072235107421875,0.00311279296875
1751013762237797400,7.22679736328125,-1.00836181640625,-0.1020660400390625,0.002166748046875
1751013762247740400,7.236740478515625,-1.0102081298828125,-0.0905303955078125,0.000457763671875
1751013762257683500,7.246683349609375,-1.00830078125,-0.0863037109375,-0.0017852783203125
1751013762267627500,7.25662744140625,-1.012420654296875,-0.091705322265625,-0.0172271728515625
1751013762277570600,7.266570556640625,-1.0167388916015625,-0.0915374755859375,-0.02362060546875
1751013762287514600,7.2765146484375,-1.0179901123046875,-0.08740234375,-0.015045166015625
1751013762297457700,7.286457763671875,-1.0189971923828125,-0.08917236328125,-0.0152587890625
1751013762307400700,7.296400634765625,-1.0229644775390625,-0.0897064208984375,-0.01043701171875
1751013762317344800,7.3063447265625,-1.0281524658203125,-0.09039306640625,-0.0066680908203125
1751013762327287600,7.31628759765625,-1.0246734619140625,-0.091156005859375,-0.00238037109375
1751013762337231600,7.326231689453125,-1.019989013671875,-0.093292236328125,-0.0025634765625
1751013762347174700,7.336174560546875,-1.01702880859375,-0.0955657958984375,-0.002044677734375
1751013762357117700,7.34611767578125,-1.016571044921875,-0.0994873046875,-0.00152587890625
1751013762367061500,7.3560615234375,-1.0134429931640625,-0.0990753173828125,-0.0000457763671875
1751013762377004500,7.366004638671875,-1.008087158203125,-0.096038818359375,0.0007781982421875
1751013762386948600,7.375948486328125,-1.0021514892578125,-0.095611572265625,0.0013275146484375
1751013762396891600,7.3858916015625,-0.9970855712890625,-0.0977783203125,0.0017852783203125
1751013762406834700,7.395834716796875,-0.99591064453125,-0.0973968505859375,0.002227783203125
1751013762416778500,7.405778564453125,-0.9970703125,-0.0989227294921875,0.00445556640625
1751013762426721500,7.415721435546875,-1.0019073486328125,-0.1027679443359375,0.0030059814453125
1751013762436665600,7.42566552734375,-1.0031585693359375,-0.1051788330078125,0.0001983642578125
1751013762446608600,7.435608642578125,-1.0021514892578125,-0.109527587890625,-0.0011138916015625
1751013762456551400,7.445551513671875,-1.004913330078125,-0.1106414794921875,-0.0022735595703125
1751013762466495500,7.45549560546875,-1.0077056884765625,-0.108001708984375,-0.0009002685546875
1751013762476438500,7.4654384765625,-1.006866455078125,-0.1029815673828125,-0.0038909912109375
1751013762486382600,7.475382568359375,-1.0048370361328125,-0.1010894775390625,-0.0075225830078125
1751013762496325400,7.485325439453125,-1.005645751953125,-0.0996246337890625,-0.0059661865234375
1751013762506268400,7.495268310546875,-1.004150390625,-0.1004638671875,-0.00555419921875
1751013762516212700,7.505212646484375,-1.0043792724609375,-0.1000518798828125,-0.0068206787109375
1751013762526155500,7.515155517578125,-1.0071868896484375,-0.0998382568359375,-0.007904052734375
1751013762536099600,7.525099609375,-1.0098114013671875,-0.09893798828125,-0.00640869140625
1751013762546042600,7.535042724609375,-1.006622314453125,-0.1000213623046875,-0.00421142578125
1751013762555985700,7.544985595703125,-1.004669189453125,-0.101593017578125,-0.0052032470703125
1751013762565929700,7.5549296875,-1.0112152099609375,-0.1005706787109375,-0.0082550048828125
1751013762575872800,7.564872802734375,-1.016571044921875,-0.099609375,-0.00909423828125
1751013762585816600,7.574816650390625,-1.0185089111328125,-0.0982513427734375,-0.0107574462890625
1751013762595759600,7.584759521484375,-1.016937255859375,-0.0966339111328125,-0.0101776123046875
1751013762605702700,7.59470263671875,-1.0169677734375,-0.09375,-0.0107574462890625
1751013762615646700,7.604646728515625,-1.016326904296875,-0.0910186767578125,-0.01025390625
1751013762625589500,7.614589599609375,-1.013641357421875,-0.0902862548828125,-0.009124755859375
1751013762635533600,7.624533447265625,-1.011749267578125,-0.094085693359375,-0.0111846923828125
1751013762645476600,7.6344765625,-1.011810302734375,-0.095733642578125,-0.0084381103515625
1751013762655419100,7.644419189453125,-1.0112457275390625,-0.0988922119140625,-0.00848388671875
1751013762665363200,7.65436328125,-1.013458251953125,-0.102142333984375,-0.0100860595703125
1751013762675306000,7.664305908203125,-1.012664794921875,-0.1031951904296875,-0.009521484375
1751013762685250000,7.67425,-1.010345458984375,-0.1024322509765625,-0.0081787109375
1751013762695193000,7.684193115234375,-1.0087738037109375,-0.101043701171875,-0.00555419921875
1751013762705136000,7.69413623046875,-1.006439208984375,-0.099151611328125,-0.004669189453125
1751013762715080000,7.704079833984375,-1.007354736328125,-0.0975799560546875,-0.00286865234375
1751013762725023000,7.71402294921875,-1.006591796875,-0.097930908203125,-0.0016326904296875
1751013762734967000,7.723967041015625,-1.0035400390625,-0.1009368896484375,-0.0055999755859375
1751013762744910000,7.73391015625,-1.0032501220703125,-0.102386474609375,-0.0108489990234375
1751013762754853000,7.74385302734375,-1.0070343017578125,-0.100555419921875,-0.011566162109375
1751013762764797000,7.753796875,-1.0078887939453125,-0.10064697265625,-0.0083770751953125
1751013762774740000,7.763739990234375,-1.007293701171875,-0.103363037109375,-0.01043701171875
1751013762784684000,7.77368408203125,-1.006317138671875,-0.1047821044921875,-0.0143585205078125
1751013762794627000,7.783626953125,-1.004730224609375,-0.102630615234375,-0.0143585205078125
1751013762804571100,7.793571044921875,-1.00238037109375,-0.1015167236328125,-0.012786865234375
1751013762814514200,7.80351416015625,-1.0031280517578125,-0.0998077392578125,-0.01422119140625
1751013762824457000,7.81345703125,-1.00457763671875,-0.0991058349609375,-0.0177154541015625
1751013762834401000,7.823401123046875,-1.00457763671875,-0.101531982421875,-0.0181427001953125
1751013762844344000,7.833343994140625,-1.0050048828125,-0.1056060791015625,-0.017486572265625
1751013762854288100,7.8432880859375,-1.0096282958984375,-0.1085052490234375,-0.0174560546875
1751013762864231200,7.853231201171875,-1.011932373046875,-0.1104888916015625,-0.017578125
1751013762874174200,7.86317431640625,-1.012939453125,-0.10760498046875,-0.0174102783203125
1751013762884118000,7.873117919921875,-1.012786865234375,-0.1055908203125,-0.0167694091796875
1751013762894061000,7.88306103515625,-1.0146942138671875,-0.10089111328125,-0.01800537109375
1751013762904005000,7.893005126953125,-1.0153045654296875,-0.096343994140625,-0.020477294921875
1751013762913948200,7.9029482421875,-1.0143890380859375,-0.0949859619140625,-0.020263671875
1751013762923891000,7.912890869140625,-1.0106048583984375,-0.0966644287109375,-0.0169525146484375
1751013762933835000,7.9228349609375,-1.0111236572265625,-0.1035919189453125,-0.021881103515625
1751013762943778000,7.932778076171875,-1.008941650390625,-0.1064605712890625,-0.0242919921875
1751013762953722000,7.94272216796875,-1.002899169921875,-0.1082305908203125,-0.0180816650390625
1751013762963665000,7.952664794921875,-1.0029754638671875,-0.1116943359375,-0.015380859375
1751013762973608000,7.96260791015625,-1.0021820068359375,-0.116302490234375,-0.0118865966796875
1751013762983552000,7.972552001953125,-0.99859619140625,-0.118499755859375,-0.0131378173828125
1751013762993495000,7.9824951171875,-0.9984893798828125,-0.11767578125,-0.013275146484375
1751013763003438800,7.99243896484375,-1.0008544921875,-0.116180419921875,-0.0088043212890625
1751013763013382000,8.0023818359375,-1.0064697265625,-0.1137847900390625,-0.0098876953125
1751013763023325000,8.012324951171875,-1.0140380859375,-0.107269287109375,-0.0162506103515625
1751013763033269000,8.02226904296875,-1.0165557861328125,-0.1003570556640625,-0.015838623046875
1751013763043212000,8.0322119140625,-1.0194549560546875,-0.0973052978515625,-0.0169830322265625
1751013763053156000,8.042156005859376,-1.023895263671875,-0.09625244140625,-0.0224761962890625
1751013763063099100,8.05209912109375,-1.0246124267578125,-0.0950927734375,-0.02398681640625
1751013763073042200,8.062042236328125,-1.0227508544921875,-0.0949859619140625,-0.020416259765625
1751013763082986200,8.071986328125,-1.01922607421875,-0.095489501953125,-0.01861572265625
1751013763092929000,8.081928955078125,-1.0146331787109375,-0.0982666015625,-0.0172882080078125
1751013763102873000,8.091873046875,-1.01116943359375,-0.10198974609375,-0.01806640625
1751013763112816000,8.101816162109374,-1.0083160400390625,-0.10833740234375,-0.01715087890625
1751013763122759200,8.11175927734375,-1.0074310302734375,-0.113189697265625,-0.016693115234375
1751013763132703000,8.121702880859376,-1.008544921875,-0.1126861572265625,-0.0167236328125
1751013763142646000,8.13164599609375,-1.004638671875,-0.11114501953125,-0.02032470703125
1751013763152590000,8.141590087890625,-0.9999542236328125,-0.1059722900390625,-0.0185089111328125
1751013763162533000,8.151533203125,-1.000152587890625,-0.09954833984375,-0.0172576904296875
1751013763172476200,8.16147607421875,-0.9994354248046875,-0.0976715087890625,-0.01806640625
1751013763182420000,8.171419921875,-0.999603271484375,-0.0977325439453125,-0.018707275390625
1751013763192363000,8.181363037109374,-0.9987640380859375,-0.100067138671875,-0.0172271728515625
1751013763202307000,8.19130712890625,-0.9994964599609375,-0.102935791015625,-0.0178070068359375
1751013763212250000,8.20125,-1.0008087158203125,-0.1054229736328125,-0.01727294921875
1751013763222193000,8.21119287109375,-1.0066375732421875,-0.104888916015625,-0.0157623291015625
1751013763232137000,8.221136962890625,-1.0116424560546875,-0.1038360595703125,-0.01318359375
1751013763242080000,8.231080078125,-1.0132598876953125,-0.105743408203125,-0.015106201171875
1751013763252023800,8.24102392578125,-1.01312255859375,-0.10498046875,-0.0166778564453125
1751013763261966800,8.250966796875,-1.0146942138671875,-0.10198974609375,-0.016143798828125
1751013763271910000,8.260909912109375,-1.0134429931640625,-0.0990753173828125,-0.0141754150390625
1751013763281854200,8.270854248046875,-1.00799560546875,-0.1011199951171875,-0.012908935546875
1751013763291797200,8.28079736328125,-1.0091552734375,-0.10137939453125,-0.011474609375
1751013763301741000,8.290740966796875,-1.0105133056640625,-0.0995025634765625,-0.0100250244140625
1751013763311684000,8.30068408203125,-1.0071258544921875,-0.100006103515625,-0.0121612548828125
1751013763321628200,8.310628173828125,-1.005645751953125,-0.102996826171875,-0.0154876708984375
1751013763331571200,8.3205712890625,-1.0067138671875,-0.1055450439453125,-0.0157318115234375
1751013763341514000,8.330513916015626,-1.0058746337890625,-0.1073150634765625,-0.0149993896484375
1751013763351458000,8.3404580078125,-1.0063018798828125,-0.109893798828125,-0.014801025390625
1751013763361401000,8.350401123046876,-1.0106201171875,-0.1123046875,-0.01397705078125
1751013763371345200,8.36034521484375,-1.0130615234375,-0.1116180419921875,-0.017303466796875
1751013763381288000,8.370287841796875,-1.0169525146484375,-0.1102752685546875,-0.023162841796875
1751013763391231000,8.38023095703125,-1.0166473388671875,-0.1112823486328125,-0.02496337890625
1751013763401175000,8.390175048828125,-1.0165863037109375,-0.1128387451171875,-0.024200439453125
1751013763411118000,8.4001181640625,-1.0144500732421875,-0.110443115234375,-0.023345947265625
1751013763421062000,8.410061767578124,-1.011138916015625,-0.1052398681640625,-0.02191162109375
1751013763431005000,8.4200048828125,-1.0096893310546875,-0.1037750244140625,-0.0227813720703125
1751013763440948000,8.429947998046876,-1.006195068359375,-0.1060791015625,-0.026458740234375
1751013763450892000,8.43989208984375,-1.0063629150390625,-0.102508544921875,-0.020477294921875
1751013763460835000,8.4498349609375,-1.0045623779296875,-0.1036376953125,-0.012176513671875
1751013763470779000,8.45977880859375,-0.997894287109375,-0.1054229736328125,-0.009765625
1751013763480722000,8.469721923828125,-0.993743896484375,-0.1074981689453125,-0.0106964111328125
1751013763490665000,8.4796650390625,-0.993743896484375,-0.1068878173828125,-0.0061798095703125
1751013763500609300,8.489609375,-0.9937591552734375,-0.105987548828125,-0.005767822265625
1751013763510551800,8.4995517578125,-0.9935302734375,-0.1063385009765625,-0.0053863525390625
1751013763520496000,8.50949609375,-0.9950103759765625,-0.1076812744140625,-0.0022430419921875
1751013763530439200,8.519439208984375,-0.995361328125,-0.108917236328125,0.001373291015625
1751013763540382200,8.52938232421875,-0.9968719482421875,-0.107147216796875,0.0027313232421875
1751013763550326000,8.539325927734374,-1.0018157958984375,-0.1048431396484375,-0.0010223388671875
1751013763560269000,8.54926904296875,-1.0076904296875,-0.1030426025390625,-0.0052642822265625
1751013763570213000,8.559213134765624,-1.012420654296875,-0.0991973876953125,-0.008636474609375
1751013763580156200,8.56915625,-1.014923095703125,-0.09619140625,-0.0120697021484375
1751013763590099200,8.57909912109375,-1.0130462646484375,-0.095672607421875,-0.0149688720703125
1751013763600043000,8.58904296875,-1.0122528076171875,-0.0950164794921875,-0.016693115234375
1751013763609986000,8.598986083984375,-1.012420654296875,-0.098052978515625,-0.0190887451171875
1751013763619930000,8.60893017578125,-1.01373291015625,-0.102630615234375,-0.016387939453125
1751013763629873200,8.618873046875,-1.01068115234375,-0.1050872802734375,-0.01397705078125
1751013763639816000,8.62881591796875,-1.0059967041015625,-0.1095123291015625,-0.0138397216796875
1751013763649760000,8.638760009765624,-1.0021820068359375,-0.1100921630859375,-0.0119476318359375
1751013763659703800,8.648703857421875,-1.0015106201171875,-0.10833740234375,-0.0113372802734375
1751013763669647600,8.658647705078126,-1.0024261474609375,-0.1083526611328125,-0.0111236572265625
1751013763679590700,8.668590576171875,-1.0052337646484375,-0.1054840087890625,-0.0142822265625
1751013763689533700,8.67853369140625,-1.0087738037109375,-0.1014862060546875,-0.01806640625
1751013763699477800,8.688477783203124,-1.0095672607421875,-0.0964508056640625,-0.0196380615234375
1751013763709420800,8.6984208984375,-1.0099945068359375,-0.091888427734375,-0.018310546875
1751013763719364600,8.708364501953126,-1.0123443603515625,-0.0899505615234375,-0.0131378173828125
1751013763729307600,8.7183076171875,-1.0140533447265625,-0.089752197265625,-0.01715087890625
1751013763739250700,8.728250732421875,-1.0007476806640625,-0.0926055908203125,-0.014801025390625
1751013763749194500,8.738194580078124,-0.9870452880859375,-0.1022186279296875,-0.0123443603515625
1751013763759137500,8.748137451171875,-0.987457275390625,-0.1060791015625,-0.0059051513671875
1751013763769081900,8.758081787109376,-0.990509033203125,-0.1023406982421875,-0.0022430419921875
1751013763779024600,8.768024658203124,-1.000335693359375,-0.100830078125,0.000030517578125
1751013763788968700,8.77796875,-1.005035400390625,-0.0992889404296875,0.0063629150390625
1751013763798911700,8.787911865234374,-1.004791259765625,-0.0974884033203125,0.0090789794921875
1751013763808854800,8.797854736328125,-1.0085601806640625,-0.093841552734375,0.0072174072265625
1751013763818798800,8.807798828125,-1.0113372802734375,-0.0911865234375,0.000244140625
1751013763828742000,8.817741943359374,-1.0148162841796875,-0.0920257568359375,-0.0078887939453125
1751013763838685700,8.827685791015625,-1.020111083984375,-0.0930633544921875,-0.012359619140625
1751013763848628700,8.837628662109376,-1.018768310546875,-0.09619140625,-0.0136871337890625
1751013763858571800,8.84757177734375,-1.0149383544921875,-0.1012115478515625,-0.0114898681640625
1751013763868515800,8.857515869140625,-1.0131378173828125,-0.1052398681640625,-0.016326904296875
1751013763878458600,8.867458740234374,-1.01470947265625,-0.10833740234375,-0.0213165283203125
1751013763888402700,8.877402587890625,-1.014862060546875,-0.10968017578125,-0.0228424072265625
1751013763898345700,8.887345703125,-1.0119476318359375,-0.1118316650390625,-0.019683837890625
1751013763908288800,8.897288818359375,-1.0098419189453125,-0.113677978515625,-0.015960693359375
1751013763918232600,8.907232666015625,-1.00787353515625,-0.11474609375,-0.0137939453125
1751013763928175600,8.917175537109374,-1.0025787353515625,-0.1143646240234375,-0.00994873046875
1751013763938119700,8.92711962890625,-1.0023956298828125,-0.1106109619140625,-0.009918212890625
1751013763948062700,8.937062744140626,-1.0074615478515625,-0.1082611083984375,-0.011871337890625
1751013763958005800,8.947005859375,-1.01690673828125,-0.111602783203125,-0.015594482421875
1751013763967949600,8.956949462890625,-1.025634765625,-0.1201934814453125,-0.020751953125
1751013763977892600,8.966892578125,-1.0340118408203125,-0.11993408203125,-0.020416259765625
1751013763987836700,8.976836669921875,-1.03106689453125,-0.1039581298828125,-0.0245819091796875
1751013763997779700,8.98677978515625,-1.020050048828125,-0.099365234375,-0.021820068359375
1751013764007722500,8.996722412109374,-1.0182647705078125,-0.1011505126953125,-0.017913818359375
1751013764017666800,9.006666748046875,-1.0178680419921875,-0.09576416015625,-0.015228271484375
1751013764027609900,9.01660986328125,-1.0140380859375,-0.0897216796875,-0.0146484375
1751013764037553700,9.0265537109375,-1.0113983154296875,-0.0858001708984375,-0.0124664306640625
1751013764047496700,9.03649658203125,-1.01678466796875,-0.0840301513671875,-0.0084991455078125
1751013764057439700,9.046439697265624,-1.0203399658203125,-0.083465576171875,-0.0051422119140625
1751013764067383800,9.0563837890625,-1.019683837890625,-0.0829010009765625,0.000396728515625
1751013764077326800,9.066326904296876,-1.0208587646484375,-0.0844879150390625,-0.0006866455078125
1751013764087270700,9.076270751953125,-1.021270751953125,-0.0850982666015625,-0.0057830810546875
1751013764097213700,9.086213623046875,-1.017669677734375,-0.0837249755859375,-0.0090789794921875
1751013764107156700,9.09615673828125,-1.0145263671875,-0.080780029296875,-0.0091400146484375
1751013764117100800,9.106100830078125,-1.0108795166015625,-0.0804901123046875,-0.0064544677734375
1751013764127043800,9.1160439453125,-1.012603759765625,-0.081939697265625,-0.0071258544921875
1751013764136987600,9.125987548828125,-1.0074310302734375,-0.0822296142578125,-0.00714111328125
1751013764146930700,9.1359306640625,-0.9999847412109375,-0.0828094482421875,-0.007781982421875
1751013764156873700,9.145873779296876,-0.99871826171875,-0.0866241455078125,-0.0092620849609375
1751013764166817800,9.15581787109375,-0.9965362548828125,-0.0928802490234375,-0.0077667236328125
1751013764176760600,9.165760498046875,-0.99322509765625,-0.097625732421875,-0.0072479248046875
1751013764186704600,9.17570458984375,-0.9895782470703125,-0.1038055419921875,-0.0058135986328125
1751013764196647700,9.185647705078125,-0.9858551025390625,-0.1085205078125,-0.00341796875
1751013764206590700,9.1955908203125,-0.987640380859375,-0.1093597412109375,0.0006103515625
1751013764216534500,9.205534423828125,-0.993499755859375,-0.106353759765625,0.003875732421875
1751013764226477600,9.2154775390625,-0.9971923828125,-0.100494384765625,0.0048370361328125
1751013764236422000,9.225421875,-1.004241943359375,-0.0951690673828125,0.0017547607421875
1751013764246364700,9.23536474609375,-1.013580322265625,-0.0892333984375,-0.0037841796875
1751013764256307700,9.2453076171875,-1.0189361572265625,-0.085968017578125,-0.0097198486328125
1751013764266251800,9.255251708984375,-1.0228424072265625,-0.0836944580078125,-0.0142059326171875
1751013764276194800,9.26519482421875,-1.0285491943359375,-0.0813140869140625,-0.0130462646484375
1751013764286139000,9.275138916015624,-1.03436279296875,-0.079986572265625,-0.01171875
1751013764296081700,9.28508154296875,-1.03411865234375,-0.08245849609375,-0.0074615478515625
1751013764306024700,9.295024658203126,-1.02734375,-0.0845794677734375,-0.0052490234375
1751013764315968800,9.30496875,-1.0214385986328125,-0.0871734619140625,-0.000946044921875
1751013764325911800,9.314911865234375,-1.0162506103515625,-0.090728759765625,0.0030975341796875
1751013764335855600,9.324855712890624,-1.012786865234375,-0.094757080078125,0.006744384765625
1751013764345798700,9.334798583984375,-1.0122528076171875,-0.09588623046875,0.0091552734375
1751013764355742700,9.34474267578125,-1.0084075927734375,-0.099151611328125,0.009124755859375
1751013764365685800,9.354685791015624,-1.0035247802734375,-0.1049346923828125,0.007171630859375
1751013764375628800,9.36462890625,-1.0023193359375,-0.1043701171875,0.005462646484375
1751013764385572600,9.374572509765626,-1.006561279296875,-0.100982666015625,0.004058837890625
1751013764395515600,9.384515625,-1.011688232421875,-0.0953521728515625,0.0034637451171875
1751013764405459700,9.394459716796876,-1.013916015625,-0.0913848876953125,-0.0012664794921875
1751013764415402800,9.40440283203125,-1.0122222900390625,-0.089630126953125,-0.0079498291015625
1751013764425345500,9.414345458984375,-1.014312744140625,-0.0886688232421875,-0.0103759765625
1751013764435289600,9.42428955078125,-1.015869140625,-0.090423583984375,-0.0071563720703125
1751013764445232600,9.434232666015625,-1.01397705078125,-0.092498779296875,-0.004486083984375
1751013764455176700,9.4441767578125,-1.0136871337890625,-0.0943145751953125,-0.0010833740234375
1751013764465119500,9.454119384765624,-1.008056640625,-0.0963134765625,0.002410888671875
1751013764475062500,9.4640625,-1.0074310302734375,-0.10052490234375,0.0025634765625
1751013764485006800,9.4740068359375,-1.008331298828125,-0.1021270751953125,0.002349853515625
1751013764494950000,9.483949951171875,-1.0061798095703125,-0.0999603271484375,0.0045623779296875
1751013764504893700,9.493893798828125,-1.002166748046875,-0.099090576171875,0.003814697265625
1751013764514836700,9.503836669921874,-1.0000152587890625,-0.099456787109375,-0.000579833984375
1751013764524779800,9.51377978515625,-1.0010528564453125,-0.1009368896484375,-0.0054931640625
1751013764534723800,9.523723876953126,-1.004058837890625,-0.101837158203125,-0.0052337646484375
1751013764544667000,9.5336669921875,-1.0077667236328125,-0.1008453369140625,-0.0054931640625
1751013764554610700,9.543610595703125,-1.009552001953125,-0.0978546142578125,-0.004669189453125
1751013764564553700,9.5535537109375,-1.0089263916015625,-0.09735107421875,-0.002899169921875
1751013764574496800,9.563496826171875,-1.0097503662109375,-0.0973358154296875,-0.001861572265625
1751013764584440800,9.57344091796875,-1.0095367431640625,-0.09503173828125,0.0001220703125
1751013764594383600,9.583383544921874,-1.0067291259765625,-0.0928497314453125,-0.0000457763671875
1751013764604327700,9.59332763671875,-1.0068817138671875,-0.089691162109375,0.002227783203125
1751013764614270700,9.603270751953126,-1.0017242431640625,-0.0872039794921875,0.0099334716796875
1751013764624213800,9.6132138671875,-0.9983062744140625,-0.085784912109375,0.01275634765625
1751013764634157600,9.623157470703125,-1.00177001953125,-0.083740234375,0.007476806640625
1751013764644100600,9.6331005859375,-1.0108642578125,-0.0810089111328125,0.0081329345703125
1751013764654044700,9.643044677734375,-1.0104827880859375,-0.079833984375,0.0172576904296875
1751013764663988200,9.65298828125,-1.009490966796875,-0.0784759521484375,0.017425537109375
1751013764673931000,9.662930908203125,-1.012542724609375,-0.077606201171875,0.0141448974609375
1751013764683875000,9.672875,-1.0147247314453125,-0.078094482421875,0.0091552734375
1751013764693818000,9.682818115234374,-1.01531982421875,-0.0791015625,0.0087890625
1751013764703762200,9.69276220703125,-1.012725830078125,-0.0817718505859375,0.0084991455078125
1751013764713705000,9.702705078125,-1.009796142578125,-0.0844879150390625,0.0075836181640625
1751013764723648000,9.71264794921875,-1.008575439453125,-0.086944580078125,0.0087127685546875
1751013764733592300,9.72259228515625,-1.007049560546875,-0.0880279541015625,0.0098419189453125
1751013764743535400,9.732535400390624,-1.008331298828125,-0.0905914306640625,0.008148193359375
1751013764753479200,9.742479248046875,-1.0111541748046875,-0.09417724609375,0.0053863525390625
1751013764763422200,9.752422119140626,-1.011932373046875,-0.0943145751953125,0.0041046142578125
1751013764773365200,9.762365234375,-1.0089874267578125,-0.095550537109375,0.007080078125
1751013764783309300,9.772309326171875,-1.0048675537109375,-0.0980072021484375,0.0060882568359375
1751013764793252400,9.78225244140625,-1.00323486328125,-0.0978851318359375,0.0053253173828125
1751013764803196200,9.792196044921875,-1.0031585693359375,-0.099761962890625,0.005706787109375
1751013764813139200,9.80213916015625,-1.004241943359375,-0.099273681640625,0.00555419921875
1751013764823082200,9.812082275390624,-1.0045928955078125,-0.0962066650390625,0.0037841796875
1751013764833026000,9.822026123046875,-1.0046234130859375,-0.09539794921875,0.003326416015625
1751013764842969000,9.831968994140626,-1.005157470703125,-0.09808349609375,0.00048828125
1751013764852913200,9.8419130859375,-1.0050506591796875,-0.1012115478515625,-0.0015869140625
1751013764862856200,9.851856201171875,-1.0038299560546875,-0.10430908203125,-0.00091552734375
1751013764872799200,9.86179931640625,-1.0044708251953125,-0.1090240478515625,0.001220703125
1751013764882743000,9.871742919921875,-1.0073089599609375,-0.1094818115234375,0.0035400390625
1751013764892686000,9.88168603515625,-1.006622314453125,-0.1053314208984375,0.00665283203125
1751013764902630100,9.891630126953125,-1.0021820068359375,-0.0987091064453125,0.008697509765625
1751013764912573200,9.9015732421875,-1.004608154296875,-0.0924224853515625,0.0062103271484375
1751013764922517000,9.91151708984375,-1.0088348388671875,-0.0876007080078125,0.0044403076171875
1751013764932460000,9.9214599609375,-1.009765625,-0.08355712890625,0.0037841796875
1751013764942403000,9.931403076171875,-1.0105133056640625,-0.08160400390625,0.00323486328125
1751013764952347400,9.941347412109375,-1.0126495361328125,-0.083099365234375,0.001983642578125
1751013764962290200,9.951290283203125,-1.0142669677734375,-0.0876617431640625,0.0029144287109375
1751013764972234200,9.961234130859374,-1.017669677734375,-0.0919189453125,0.005157470703125
1751013764982177300,9.97117724609375,-1.0213165283203125,-0.095977783203125,0.0028228759765625
1751013764992120300,9.981120361328125,-1.024322509765625,-0.0960693359375,-0.0023040771484375
1751013765002064100,9.991064208984374,-1.023529052734375,-0.097076416015625,-0.008026123046875
1751013765012007200,10.001007080078125,-1.0233001708984375,-0.097259521484375,-0.0095062255859375
1751013765021951200,10.010951171875,-1.03057861328125,-0.0973663330078125,-0.01727294921875
1751013765031894300,10.020894287109375,-1.031829833984375,-0.096099853515625,-0.0189361572265625
1751013765041837300,10.03083740234375,-1.0301971435546875,-0.0945892333984375,-0.0177154541015625
1751013765051781000,10.040781005859374,-1.03216552734375,-0.0912322998046875,-0.0176849365234375
1751013765061724200,10.05072412109375,-1.02691650390625,-0.0867462158203125,-0.0194244384765625
1751013765071668200,10.060668212890626,-1.02191162109375,-0.085540771484375,-0.0225677490234375
1751013765081611300,10.070611328125,-1.0211334228515625,-0.083770751953125,-0.0184783935546875
1751013765091554000,10.080553955078125,-1.02227783203125,-0.0845184326171875,-0.017059326171875
1751013765101498000,10.090498046875,-1.01885986328125,-0.086639404296875,-0.0139923095703125
1751013765111441200,10.100441162109375,-1.0191192626953125,-0.0874786376953125,-0.013885498046875
1751013765121385200,10.11038525390625,-1.0205841064453125,-0.0902557373046875,-0.0164642333984375
1751013765131328000,10.120327880859374,-1.0122222900390625,-0.0956268310546875,-0.015899658203125
1751013765141271000,10.13027099609375,-1.0009307861328125,-0.10064697265625,-0.016143798828125
1751013765151215000,10.140215087890626,-0.9984588623046875,-0.1041412353515625,-0.012481689453125
1751013765161158100,10.150158203125,-1.0001678466796875,-0.1064605712890625,-0.00830078125
1751013765171102200,10.160102294921876,-0.9994964599609375,-0.1066436767578125,-0.00787353515625
1751013765181045000,10.170044921875,-0.996612548828125,-0.1060638427734375,-0.009490966796875
1751013765190988000,10.179988037109375,-0.9976348876953125,-0.1042938232421875,-0.007293701171875
1751013765200932400,10.189932373046876,-0.9983673095703125,-0.1026458740234375,-0.00555419921875
1751013765210875400,10.19987548828125,-0.995574951171875,-0.101104736328125,-0.0058441162109375
1751013765220819200,10.209819091796875,-0.99420166015625,-0.0987548828125,-0.0082855224609375
1751013765230762200,10.21976220703125,-1.000640869140625,-0.0997314453125,-0.011077880859375
1751013765240705300,10.229705322265625,-1.0043792724609375,-0.1033477783203125,-0.0151214599609375
1751013765250649000,10.239649169921876,-1.0084075927734375,-0.10565185546875,-0.014007568359375
1751013765260592000,10.249592041015624,-1.00909423828125,-0.10858154296875,-0.014739990234375
1751013765270536200,10.2595361328125,-1.0090789794921875,-0.112335205078125,-0.01666259765625
1751013765280479200,10.269479248046874,-1.0119476318359375,-0.1137237548828125,-0.0152587890625
1751013765290422300,10.27942236328125,-1.012451171875,-0.11328125,-0.0106964111328125
1751013765300366000,10.289365966796876,-1.0115203857421875,-0.1104583740234375,-0.0131988525390625
1751013765310309000,10.29930908203125,-1.007904052734375,-0.108795166015625,-0.0179595947265625
1751013765320253200,10.309253173828125,-1.0089569091796875,-0.10784912109375,-0.0160675048828125
1751013765330196200,10.3191962890625,-1.006072998046875,-0.1090850830078125,-0.017425537109375
1751013765340139300,10.32913916015625,-1.000885009765625,-0.1109161376953125,-0.019073486328125
1751013765350083000,10.3390830078125,-1.0039520263671875,-0.108123779296875,-0.0142822265625
1751013765360026000,10.349026123046874,-1.0063018798828125,-0.1055450439453125,-0.0100555419921875
1751013765369970200,10.35897021484375,-1.0097198486328125,-0.1062774658203125,-0.013916015625
1751013765379913200,10.368913330078126,-1.013824462890625,-0.109283447265625,-0.0176544189453125
1751013765389856000,10.37885595703125,-1.01324462890625,-0.110809326171875,-0.0214996337890625
1751013765399800000,10.388800048828125,-1.014404296875,-0.1099090576171875,-0.0236663818359375
1751013765409743000,10.3987431640625,-1.017852783203125,-0.1094970703125,-0.0199432373046875
1751013765419687200,10.408687255859375,-1.0164031982421875,-0.1126861572265625,-0.02252197265625
1751013765429630200,10.418630126953126,-1.013458251953125,-0.113525390625,-0.0289459228515625
1751013765439574300,10.42857421875,-1.0119476318359375,-0.1134185791015625,-0.02838134765625
1751013765449517300,10.438517333984375,-1.012939453125,-0.110321044921875,-0.0245513916015625
1751013765459460400,10.44846044921875,-1.01324462890625,-0.108428955078125,-0.0244140625
1751013765469404200,10.458404052734375,-1.0099639892578125,-0.1085052490234375,-0.0272216796875
1751013765479347200,10.46834716796875,-1.009674072265625,-0.1091156005859375,-0.02398681640625
1751013765489291300,10.478291259765625,-1.0059051513671875,-0.110260009765625,-0.0206298828125
1751013765499234300,10.488234375,-1.0027923583984375,-0.10980224609375,-0.0170440673828125
1751013765509177000,10.498177001953126,-0.99786376953125,-0.1123504638671875,-0.018280029296875
1751013765519121200,10.50812109375,-0.995208740234375,-0.1145782470703125,-0.0191192626953125
1751013765529064200,10.518064208984375,-0.9958953857421875,-0.1139373779296875,-0.0172119140625
1751013765539008300,10.52800830078125,-0.9963226318359375,-0.1146392822265625,-0.0146942138671875
1751013765548951000,10.537950927734375,-0.9997406005859375,-0.117034912109375,-0.0123291015625
1751013765558894000,10.54789404296875,-1.00689697265625,-0.116729736328125,-0.0082550048828125
1751013765568838100,10.557838134765625,-1.0087127685546875,-0.113250732421875,-0.0106048583984375
1751013765578781200,10.56778125,-1.009246826171875,-0.112335205078125,-0.0151214599609375
1751013765588725000,10.57772509765625,-1.0160980224609375,-0.1140289306640625,-0.01708984375
1751013765598668000,10.58766796875,-1.018463134765625,-0.1116485595703125,-0.0215606689453125
1751013765608611000,10.597611083984376,-1.0165557861328125,-0.108734130859375,-0.0237579345703125
1751013765618555100,10.60755517578125,-1.018280029296875,-0.102996826171875,-0.024017333984375
1751013765628498200,10.617498291015625,-1.02392578125,-0.101654052734375,-0.0217742919921875
1751013765638442200,10.627442138671874,-1.0180511474609375,-0.1048736572265625,-0.021575927734375
1751013765648385300,10.63738525390625,-1.008636474609375,-0.1056976318359375,-0.017669677734375
1751013765658327000,10.6473271484375,-1.0038909912109375,-0.107330322265625,-0.014984130859375
1751013765668271000,10.65727099609375,-1.0023651123046875,-0.1084136962890625,-0.009735107421875
1751013765678214100,10.667214111328125,-0.999847412109375,-0.109405517578125,-0.0054473876953125
1751013765688158000,10.677157958984376,-1.00030517578125,-0.11492919921875,-0.0079345703125
1751013765698101000,10.68710107421875,-1.0038299560546875,-0.119842529296875,-0.010467529296875
1751013765708044000,10.6970439453125,-1.006927490234375,-0.121917724609375,-0.01336669921875
1751013765717988000,10.706988037109374,-1.0097503662109375,-0.1228790283203125,-0.0138702392578125
1751013765727931100,10.71693115234375,-1.0150604248046875,-0.1201171875,-0.0152740478515625
1751013765737875000,10.726875,-1.0160064697265625,-0.1173553466796875,-0.021453857421875
1751013765747818000,10.73681787109375,-1.0119476318359375,-0.118499755859375,-0.0239715576171875
1751013765757761000,10.746760986328125,-1.0116119384765625,-0.118438720703125,-0.021942138671875
1751013765767705000,10.756705078125,-1.0072021484375,-0.1138153076171875,-0.0222625732421875
1751013765777647900,10.76664794921875,-0.9990081787109375,-0.1130523681640625,-0.026458740234375
1751013765787592000,10.776592041015626,-0.9950714111328125,-0.1185150146484375,-0.026031494140625
1751013765797535000,10.786534912109374,-0.9957122802734375,-0.1248626708984375,-0.02239990234375
1751013765807478000,10.79647802734375,-0.993988037109375,-0.12298583984375,-0.0145111083984375
1751013765817422000,10.806422119140626,-0.992401123046875,-0.121856689453125,-0.0103607177734375
1751013765827365000,10.816365234375,-0.9892578125,-0.1234893798828125,-0.0125579833984375
1751013765837309200,10.82630908203125,-0.995330810546875,-0.120758056640625,-0.007049560546875
1751013765847252200,10.836252197265624,-0.9981536865234375,-0.1157684326171875,-0.004852294921875
1751013765857195300,10.8461953125,-0.997039794921875,-0.1142578125,-0.003936767578125
1751013765867139000,10.85613916015625,-0.9995574951171875,-0.11224365234375,-0.00311279296875
1751013765877082000,10.86608203125,-1.001434326171875,-0.1149139404296875,-0.0089569091796875
1751013765887026200,10.876026123046875,-1.005889892578125,-0.1166229248046875,-0.0142974853515625
1751013765896969000,10.885968994140624,-1.0088043212890625,-0.1148834228515625,-0.0154876708984375
1751013765906912000,10.895912109375,-1.0116424560546875,-0.1118011474609375,-0.01214599609375
1751013765916856000,10.90585595703125,-1.01287841796875,-0.11102294921875,-0.0092315673828125
1751013765926799000,10.915799072265624,-1.01031494140625,-0.11175537109375,-0.0083160400390625
1751013765936743000,10.925742919921875,-1.0081634521484375,-0.11285400390625,-0.00897216796875
1751013765946686000,10.93568603515625,-1.0047607421875,-0.1141815185546875,-0.00946044921875
1751013765956629000,10.94562890625,-1.003265380859375,-0.116119384765625,-0.0137786865234375
1751013765966573000,10.955572998046875,-1.0024871826171875,-0.11956787109375,-0.0145111083984375
1751013765976516000,10.96551611328125,-0.997161865234375,-0.122955322265625,-0.015289306640625
1751013765986460000,10.9754599609375,-0.9896392822265625,-0.1260833740234375,-0.015472412109375
1751013765996403000,10.98540283203125,-0.98724365234375,-0.130157470703125,-0.01263427734375
1751013766006346000,10.995345947265625,-0.9877777099609375,-0.131134033203125,-0.0136566162109375
1751013766016290000,11.0052900390625,-0.9920196533203125,-0.1257476806640625,-0.0100860595703125
1751013766026232800,11.01523291015625,-0.99188232421875,-0.1190032958984375,-0.000244140625
1751013766036177200,11.02517724609375,-0.9740142822265625,-0.114501953125,0.0100555419921875
1751013766046120000,11.035119873046876,-0.9067840576171875,-0.1089324951171875,0.0260772705078125
1751013766056063000,11.04506298828125,-1.0406951904296875,-0.11834716796875,0.01800537109375
1751013766066007000,11.055007080078125,-1.0872344970703125,-0.1230316162109375,-0.009613037109375
1751013766075950000,11.0649501953125,-1.02801513671875,-0.10028076171875,-0.0378875732421875
1751013766085894100,11.07489404296875,-1.052703857421875,-0.095367431640625,-0.0393829345703125
