timestamp,long,lat,POSI_X,POSI_Y,ACCE_X,ACCE_Y,ACCE_Z,ACCE_MOD,GYRO_X,GYRO_Y,GYRO_Z,GYRO_MOD,MAGN_X,MAGN_Y,MAGN_Z,MAGN_MOD
0.1586000000,,,0.0,0.0,,,,,,,,,4.0618900000,3.5400400000,-47.1954300000,47.5019941314
0.1590000000,,,0.0,0.0,,,,,0.2224000000,0.2687500000,-0.0556600000,0.3532511261,,,,
0.1595000000,,,0.0,0.0,-0.5273400000,4.7416100000,9.1201800000,10.2926496151,,,,,,,,
0.1599000000,,,0.0,0.0,,,,,,,,,3.6132800000,2.6397700000,-46.8963600000,47.1093701854
0.1605000000,,,0.0,0.0,,,,,0.1955300000,0.2757700000,-0.0269900000,0.3391305558,,,,
0.1608000000,,,0.0,0.0,-0.5106000000,4.7440000000,8.8880800000,10.0878250603,,,,,,,,
0.1610000000,,,0.0,0.0,,,,,,,,,1.9622800000,3.0899000000,-47.1954300000,47.3371591637
0.1616000000,,,0.0,0.0,,,,,0.1810000000,0.2443800000,-0.0874000000,0.3164195702,,,,
0.1618000000,,,0.0,0.0,-0.5010200000,4.7057200000,8.7995500000,9.9913413495,,,,,,,,
0.1624000000,,,0.0,0.0,,,,,,,,,2.7130100000,3.8391100000,-49.2965700000,49.5202080228
0.1627000000,,,0.0,0.0,,,,,0.1736100000,0.2054100000,-0.1692200000,0.3177563667,,,,
0.1629000000,,,0.0,0.0,-0.4699200000,4.6566600000,8.8019300000,9.9689156324,,,,,,,,
0.1634000000,,,0.0,0.0,,,,,,,,,1.3626100000,3.6895800000,-48.0957000000,48.2562541551
0.1638000000,,,0.0,0.0,,,,,0.1668700000,0.1661200000,-0.2495400000,0.3430913332,,,,
0.1647000000,,,0.0,0.0,-0.4316400000,4.6578500000,8.9072100000,10.0608284796,,,,,,,,
0.1652000000,,,0.0,0.0,,,,,,,,,2.7130100000,2.7893100000,-47.4960300000,47.6551522849
0.1661000000,,,0.0,0.0,,,,,0.1598200000,0.1276200000,-0.3191800000,0.3790846465,,,,
0.1667000000,,,0.0,0.0,-0.3969400000,4.7069100000,9.0699300000,10.2262502080,,,,,,,,
0.1672000000,,,0.0,0.0,,,,,,,,,1.9622800000,3.5400400000,-48.5458400000,48.7142792958
0.1680000000,,,0.0,0.0,,,,,0.1538400000,0.1017600000,-0.3465600000,0.3925884318,,,,
0.1689000000,,,0.0,0.0,-0.3275500000,4.7021200000,9.1668400000,10.3076756392,,,,,,,,
0.1708000000,,,0.0,0.0,,,,,0.1510600000,0.0774200000,-0.3447600000,0.3842817165,,,,
0.1712000000,,,0.0,0.0,,,,,,,,,2.7130100000,5.6396500000,-48.9959700000,49.3940396366
0.1715000000,,,0.0,0.0,-0.2390100000,4.6243600000,9.2278600000,10.3244966642,,,,,,,,
0.1718000000,,,0.0,0.0,,,,,,,,,1.0620100000,4.4403100000,-48.8464400000,49.0593407906
0.1723000000,,,0.0,0.0,,,,,0.1457100000,0.0536200000,-0.3228500000,0.3582438150,,,,
0.1726000000,,,0.0,0.0,-0.1492800000,4.5370200000,9.2840900000,10.3344647722,,,,,,,,
0.1734000000,,,0.0,0.0,,,,,,,,,1.9622800000,5.0399800000,-48.5458400000,48.8461925078
0.1738000000,,,0.0,0.0,,,,,0.1315800000,0.0396000000,-0.2757600000,0.3080990652,,,,
0.1740000000,,,0.0,0.0,-0.0918600000,4.4867700000,9.3187900000,10.3430841801,,,,,,,,
0.1742000000,,,0.0,0.0,,,,,0.1072200000,0.0284300000,-0.2243000000,0.2502296611,,,,
0.1744000000,,,0.0,0.0,,,,,,,,,2.1133400000,4.7393800000,-48.8464400000,49.1213052495
0.1749000000,,,0.0,0.0,-0.0380100000,4.4795800000,9.3534900000,10.3709139866,,,,,,,,
0.1754000000,,,0.0,0.0,,,,,,,,,1.5121500000,2.7893100000,-49.2965700000,49.3985694293
0.1756000000,,,0.0,0.0,,,,,0.0805500000,0.0190600000,-0.1871500000,0.2046379940,,,,
0.1759000000,,,0.0,0.0,-0.0296300000,4.5095100000,9.3810000000,10.4086367684,,,,,,,,
0.1762000000,,,0.0,0.0,,,,,0.0576500000,-0.0019800000,-0.1868600000,0.1955609943,,,,
0.1770000000,,,0.0,0.0,,,,,,,,,-0.4379300000,3.9901700000,-47.6455700000,47.8143658322
0.1772000000,,,0.0,0.0,-0.0308400000,4.4855700000,9.3750200000,10.3928960993,,,,,,,,
0.1774000000,,,0.0,0.0,,,,,,,,,2.4124100000,4.7393800000,-49.1455100000,49.4324043311
0.1782000000,,,0.0,0.0,,,,,0.0392000000,-0.0179000000,-0.1799200000,0.1850088009,,,,
0.1784000000,,,0.0,0.0,0.0337700000,4.4197700000,9.3678300000,10.3581729168,,,,,,,,
0.1791000000,,,0.0,0.0,,,,,,,,,0.6134000000,4.7393800000,-48.0957000000,48.3325391515
0.1798000000,,,0.0,0.0,,,,,0.0253900000,-0.0504200000,-0.1932100000,0.2012881830,,,,
0.1800000000,,,0.0,0.0,0.1163200000,4.3659400000,9.3319400000,10.3034007294,,,,,,,,
0.1805000000,,,0.0,0.0,,,,,,,,,1.3626100000,5.1895100000,-49.4461100000,49.7363600818
0.1807000000,,,0.0,0.0,,,,,0.0148900000,-0.0814500000,-0.1943200000,0.2112251808,,,,
0.1809000000,,,0.0,0.0,0.1809200000,4.3467900000,9.2852800000,10.2539621624,,,,,,,,
0.1811000000,,,0.0,0.0,,,,,0.0025800000,-0.1267900000,-0.2278400000,0.2607554910,,,,
0.1816000000,,,0.0,0.0,,,,,,,,,-0.8880600000,4.7393800000,-49.1455100000,49.3814897154
0.1819000000,,,0.0,0.0,0.0541100000,4.3551600000,9.1656300000,10.1478628201,,,,,,,,
0.1823000000,,,0.0,0.0,,,,,-0.0272500000,-0.1722100000,-0.2904100000,0.3387282313,,,,
0.1825000000,,,0.0,0.0,,,,,,,,,0.3128100000,4.4403100000,-48.0957000000,48.3012480323
0.1828000000,,,0.0,0.0,0.1211100000,4.3719200000,9.1345400000,10.1275946369,,,,,,,,
0.1831000000,,,0.0,0.0,,,,,,,,,-0.4379300000,3.9901700000,-49.1455100000,49.3091714844
0.1845000000,,,0.0,0.0,,,,,-0.0728100000,-0.2292300000,-0.4124800000,0.4774803026,,,,
0.1848000000,,,0.0,0.0,0.1665600000,4.3360100000,9.1644400000,10.1398069739,,,,,,,,
0.1850000000,,,0.0,0.0,,,,,-0.1299900000,-0.2591900000,-0.3976700000,0.4921567688,,,,
0.1852000000,,,0.0,0.0,,,,,,,,,0.4623400000,3.5400400000,-48.5458400000,48.6769372782
0.1857000000,,,0.0,0.0,0.2311700000,4.2462900000,9.1465000000,10.0867675983,,,,,,,,
0.1861000000,,,0.0,0.0,,,,,-0.1855200000,-0.2785200000,-0.2590800000,0.4232180374,,,,
0.1863000000,,,0.0,0.0,,,,,,,,,-0.1373300000,2.9403700000,-49.1455100000,49.2335839486
0.1865000000,,,0.0,0.0,0.2826200000,4.1900600000,9.1859700000,10.1004218580,,,,,,,,
0.1867000000,,,0.0,0.0,,,,,,,,,-0.4379300000,4.4403100000,-50.1968400000,50.3947505358
0.1872000000,,,0.0,0.0,,,,,-0.2219200000,-0.2909700000,-0.0663800000,0.3719117257,,,,
0.1940000000,,,0.0,0.0,0.3161200000,4.1302300000,9.2386200000,10.1247632669,,,,,,,,
0.2073000000,,,0.0,0.0,,,,,,,,,0.3128100000,4.7393800000,-48.3963000000,48.6288127201
0.2075000000,,,0.0,0.0,,,,,-0.2344400000,-0.3064100000,0.0270400000,0.3867562065,,,,
0.2077000000,,,0.0,0.0,0.3460400000,4.0656300000,9.3163900000,10.1707528537,,,,,,,,
0.2082000000,,,0.0,0.0,,,,,-0.2404300000,-0.3309300000,0.0249300000,0.4098081926,,,,
0.2084000000,,,0.0,0.0,,,,,,,,,0.3128100000,5.9402500000,-48.3963000000,48.7604991140
0.2112000000,,,0.0,0.0,0.3747400000,4.0345300000,9.4097100000,10.2450234101,,,,,,,,
0.2467000000,,,0.0,0.0,,,,,-0.2485500000,-0.3340000000,0.0475800000,0.4190429082,,,,
0.2470000000,,,0.0,0.0,,,,,,,,,0.4623400000,5.3405800000,-49.2965700000,49.5871693765
0.2472000000,,,0.0,0.0,0.3508100000,4.0811900000,9.5054200000,10.3504680497,,,,,,,,
0.2477000000,,,0.0,0.0,,,,,,,,,1.0620100000,6.9900500000,-48.3963000000,48.9100247182
0.2480000000,,,0.0,0.0,,,,,-0.2593200000,-0.3150000000,0.1099700000,0.4225698325,,,,
0.2483000000,,,0.0,0.0,0.2981700000,4.1386100000,9.5748100000,10.4352280577,,,,,,,,
0.2487000000,,,0.0,0.0,,,,,-0.2699700000,-0.2711800000,0.2024200000,0.4328928848,,,,
0.2497000000,,,0.0,0.0,,,,,,,,,1.0620100000,6.2393200000,-48.3963000000,48.8083889612
0.2501000000,,,0.0,0.0,0.2754500000,4.1721200000,9.5652500000,10.4391793528,,,,,,,,
0.2523000000,,,0.0,0.0,,,,,-0.2790100000,-0.2507200000,0.2303800000,0.4402068183,,,,
0.2569000000,,,0.0,0.0,,,,,,,,,-0.1373300000,5.4901100000,-49.4461100000,49.7501553914
0.2584000000,,,0.0,0.0,0.2598900000,4.1864600000,9.4970600000,10.3821066642,,,,,,,,
0.2588000000,,,0.0,0.0,,,,,,,,,-1.1871300000,5.1895100000,-49.1455100000,49.4329995533
0.2590000000,,,0.0,0.0,,,,,-0.2846400000,-0.2367900000,0.2317500000,0.4368037273,,,,
0.2611000000,,,0.0,0.0,0.2024700000,4.1553600000,9.5006400000,10.3716040823,,,,,,,,
0.2766000000,,,0.0,0.0,,,,,-0.2902800000,-0.2300300000,0.2014200000,0.4215996866,,,,
0.2771000000,,,0.0,0.0,,,,,,,,,0.0122100000,7.1395900000,-49.2965700000,49.8108994922
0.2780000000,,,0.0,0.0,0.1797300000,4.0500800000,9.4934500000,10.3228408775,,,,,,,,
0.2798000000,,,0.0,0.0,,,,,-0.2985500000,-0.2132100000,0.1868600000,0.4117126015,,,,
0.2808000000,,,0.0,0.0,,,,,,,,,0.3128100000,6.9900500000,-48.8464400000,49.3450438218
0.2811000000,,,0.0,0.0,0.1869000000,3.9304400000,9.4563800000,10.2423831655,,,,,,,,
0.2860000000,,,0.0,0.0,,,,,,,,,0.7629400000,6.8405200000,-49.7467000000,50.2206028658
0.2880000000,,,0.0,0.0,,,,,-0.3113400000,-0.1999700000,0.1693600000,0.4069439840,,,,
0.2911000000,,,0.0,0.0,0.2132300000,3.8311300000,9.4348300000,10.1852364351,,,,,,,,
0.2954000000,,,0.0,0.0,,,,,,,,,0.6134000000,5.1895100000,-50.1968400000,50.4681089361
0.2959000000,,,0.0,0.0,,,,,-0.3204500000,-0.1745300000,0.1753800000,0.4048543785,,,,
0.3009000000,,,0.0,0.0,0.2431500000,3.7426000000,9.4444100000,10.1618431857,,,,,,,,
0.3062000000,,,0.0,0.0,,,,,-0.3257900000,-0.1447900000,0.1890300000,0.4035289446,,,,
0.3067000000,,,0.0,0.0,,,,,,,,,1.9622800000,7.5897200000,-48.5458400000,49.1747188480
0.3106000000,,,0.0,0.0,0.3101300000,3.6600500000,9.4228700000,10.1134873143,,,,,,,,
0.3161000000,,,0.0,0.0,,,,,,,,,-1.1871300000,6.9900500000,-49.8962400000,50.3974686148
0.3165000000,,,0.0,0.0,,,,,-0.3329300000,-0.1490900000,0.1404900000,0.3909061948,,,,
0.3212000000,,,0.0,0.0,0.3244900000,3.6480900000,9.4240700000,10.1107343835,,,,,,,,
0.3270000000,,,0.0,0.0,,,,,-0.3373900000,-0.1519800000,0.0970500000,0.3825554012,,,,
0.3275000000,,,0.0,0.0,,,,,,,,,-0.4379300000,6.2393200000,-50.6454500000,51.0302116638
0.3315000000,,,0.0,0.0,0.3221000000,3.7138800000,9.3905600000,10.1034286348,,,,,,,,
0.3432000000,,,0.0,0.0,,,,,,,,,0.4623400000,6.8405200000,-49.2965700000,49.7710587180
0.3435000000,,,0.0,0.0,,,,,-0.3404100000,-0.1273300000,0.1265100000,0.3848333108,,,,
0.3437000000,,,0.0,0.0,0.2766400000,3.7820900000,9.3953600000,10.1318075380,,,,,,,,
0.3471000000,,,0.0,0.0,,,,,-0.3347800000,-0.1255300000,0.1074700000,0.3733433141,,,,
0.3475000000,,,0.0,0.0,,,,,,,,,-0.1373300000,6.9900500000,-49.8962400000,50.3836722031
0.3518000000,,,0.0,0.0,0.2096400000,3.8227500000,9.4372300000,10.1842366707,,,,,,,,
0.3568000000,,,0.0,0.0,,,,,-0.3171700000,-0.0990800000,0.1338700000,0.3582385130,,,,
0.3577000000,,,0.0,0.0,,,,,,,,,1.9622800000,6.3903800000,-49.2965700000,49.7477568651
0.3619000000,,,0.0,0.0,0.1546000000,3.8275500000,9.4946600000,10.2382912968,,,,,,,,
0.3669000000,,,0.0,0.0,,,,,,,,,1.2130700000,7.5897200000,-48.5458400000,49.1505235965
0.3675000000,,,0.0,0.0,,,,,-0.2937200000,-0.0773300000,0.1310400000,0.3307912467,,,,
0.3723000000,,,0.0,0.0,0.1354700000,3.8155800000,9.5867800000,10.3190771693,,,,,,,,
0.3771000000,,,0.0,0.0,,,,,,,,,-0.4379300000,5.9402500000,-48.0957000000,48.4631273365
0.3777000000,,,0.0,0.0,,,,,-0.2739300000,-0.0553600000,0.1151700000,0.3022689256,,,,
0.3819000000,,,0.0,0.0,0.1713600000,3.7952400000,9.6801000000,10.3989204688,,,,,,,,
0.3885000000,,,0.0,0.0,,,,,,,,,0.0122100000,6.0897800000,-50.0457800000,50.4149349433
0.3888000000,,,0.0,0.0,,,,,-0.2633200000,-0.0413100000,0.1024600000,0.2855555815,,,,
0.3921000000,,,0.0,0.0,0.2204100000,3.7426000000,9.7782000000,10.4722886977,,,,,,,,
0.3969000000,,,0.0,0.0,,,,,,,,,-1.3366700000,7.1395900000,-48.9959700000,49.5314597836
0.3977000000,,,0.0,0.0,,,,,-0.2684000000,-0.0349000000,0.0839800000,0.2833887972,,,,
0.4032000000,,,0.0,0.0,0.2862100000,3.6791800000,9.8344400000,10.5040226461,,,,,,,,
0.4080000000,,,0.0,0.0,,,,,,,,,-0.4379300000,5.9402500000,-49.1455100000,49.5051462568
0.4083000000,,,0.0,0.0,,,,,-0.2818300000,-0.0313900000,0.0676600000,0.2915327711,,,,
0.4123000000,,,0.0,0.0,0.3400600000,3.6181800000,9.8057300000,10.4574953095,,,,,,,,
0.4178000000,,,0.0,0.0,,,,,-0.2964500000,-0.0289000000,0.0534700000,0.3026166773,,,,
0.4185000000,,,0.0,0.0,,,,,,,,,0.0122100000,7.8903200000,-48.5458400000,49.1828819824
0.4229000000,,,0.0,0.0,0.3771400000,3.5344200000,9.7327400000,10.3614954144,,,,,,,,
0.4285000000,,,0.0,0.0,,,,,-0.3098400000,-0.0259100000,0.0437300000,0.3139816342,,,,
0.4298000000,,,0.0,0.0,,,,,,,,,-1.0376000000,6.3903800000,-48.9959700000,49.4218438198
0.4333000000,,,0.0,0.0,0.4321700000,3.4494800000,9.6430100000,10.2505280371,,,,,,,,
0.4376000000,,,0.0,0.0,,,,,-0.3155100000,-0.0200500000,0.0451400000,0.3193527551,,,,
0.4387000000,,,0.0,0.0,,,,,,,,,1.0620100000,6.2393200000,-49.4461100000,49.8495212959
0.4427000000,,,0.0,0.0,0.4441400000,3.3932500000,9.5915700000,10.1837920721,,,,,,,,
0.4501000000,,,0.0,0.0,,,,,,,,,1.0620100000,8.1893900000,-49.1455100000,49.8344772921
0.4516000000,,,0.0,0.0,,,,,-0.3127400000,-0.0139300000,0.0520900000,0.3173542510,,,,
0.4526000000,,,0.0,0.0,0.4285900000,3.3896600000,9.5939600000,10.1841814981,,,,,,,,
0.4575000000,,,0.0,0.0,,,,,-0.3047500000,-0.0110900000,0.0551100000,0.3098913724,,,,
0.4584000000,,,0.0,0.0,,,,,,,,,-0.2868700000,5.6396500000,-48.2467700000,48.5761130799
0.4627000000,,,0.0,0.0,0.4321700000,3.3920600000,9.5975500000,10.1885135302,,,,,,,,
0.4701000000,,,0.0,0.0,,,,,,,,,-0.7370000000,7.1395900000,-49.2965700000,49.8163500081
0.4705000000,,,0.0,0.0,,,,,-0.2994700000,-0.0187100000,0.0364500000,0.3022597352,,,,
0.4762000000,,,0.0,0.0,0.4501200000,3.4076100000,9.6071200000,10.2034880615,,,,,,,,
0.4802000000,,,0.0,0.0,,,,,-0.2985200000,-0.0216500000,0.0380100000,0.3017079266,,,,
0.4808000000,,,0.0,0.0,,,,,,,,,1.2130700000,7.5897200000,-49.2965700000,49.8921557188
0.4833000000,,,0.0,0.0,0.4668700000,3.4111900000,9.6334400000,10.2302175464,,,,,,,,
0.4927000000,,,0.0,0.0,,,,,-0.3043800000,-0.0226600000,0.0536000000,0.3098929170,,,,
0.4930000000,,,0.0,0.0,,,,,,,,,-0.1373300000,7.7392600000,-50.9460400000,51.5307092573
0.4933000000,,,0.0,0.0,0.5075500000,3.4231600000,9.6621600000,10.2631850443,,,,,,,,
0.4976000000,,,0.0,0.0,,,,,-0.3087300000,-0.0132800000,0.1059700000,0.3266805966,,,,
0.4984000000,,,0.0,0.0,,,,,,,,,0.7629400000,6.0897800000,-49.7467000000,50.1238631670
0.5034000000,,,0.0,0.0,0.5602000000,3.4435000000,9.6501900000,10.2614659443,,,,,,,,
0.5077000000,,,0.0,0.0,,,,,,,,,-0.4379300000,7.4401900000,-49.8962400000,50.4498065017
0.5099000000,,,0.0,0.0,,,,,-0.3060300000,-0.0130200000,0.1554400000,0.3434901380,,,,
0.5131000000,,,0.0,0.0,0.6176100000,3.4662300000,9.6705300000,10.2915180127,,,,,,,,
0.5205000000,,,0.0,0.0,,,,,-0.2895400000,-0.0202200000,0.2067400000,0.3563477060,,,,
0.5215000000,,,0.0,0.0,,,,,,,,,-0.4379300000,8.1893900000,-48.3963000000,49.0862480227
0.5245000000,,,0.0,0.0,0.6427500000,3.4183800000,9.5102100000,10.1263292279,,,,,,,,
0.5273000000,,,0.0,0.0,,,,,,,,,-1.6372700000,8.1893900000,-49.1455100000,49.8500543108
0.5282000000,,,0.0,0.0,,,,,-0.2627000000,-0.0406600000,0.2328200000,0.3533690394,,,,
0.5340000000,,,0.0,0.0,0.6176100000,3.3693200000,9.3475000000,9.9553762171,,,,,,,,
0.5386000000,,,0.0,0.0,,,,,-0.2356000000,-0.0601000000,0.2523700000,0.3504425586,,,,
0.5391000000,,,0.0,0.0,,,,,,,,,-0.4379300000,7.4401900000,-48.3963000000,48.9668261542
0.5438000000,,,0.0,0.0,0.5673700000,3.3382100000,9.2517900000,9.8519628971,,,,,,,,
0.5484000000,,,0.0,0.0,,,,,-0.2088200000,-0.0836500000,0.2299300000,0.3216689600,,,,
0.5486000000,,,0.0,0.0,,,,,,,,,-1.1871300000,8.1893900000,-48.8464400000,49.5424069549
0.5559000000,,,0.0,0.0,0.4931900000,3.3573600000,9.2099200000,9.8151784982,,,,,,,,
0.5626000000,,,0.0,0.0,,,,,,,,,-0.4379300000,7.7392600000,-49.4461100000,50.0500321894
0.5632000000,,,0.0,0.0,,,,,-0.1810600000,-0.0876200000,0.2084800000,0.2896962174,,,,
0.5637000000,,,0.0,0.0,0.4190200000,3.4076100000,9.2326400000,9.8503312148,,,,,,,,
0.5699000000,,,0.0,0.0,,,,,-0.1568900000,-0.0833000000,0.1667000000,0.2436026521,,,,
0.5714000000,,,0.0,0.0,,,,,,,,,-0.4379300000,8.7890600000,-49.4461100000,50.2230739053
0.5743000000,,,0.0,0.0,0.4010600000,3.4793900000,9.3391300000,9.9742845885,,,,,,,,
0.5793000000,,,0.0,0.0,,,,,-0.1381800000,-0.0930900000,0.0733600000,0.1820471096,,,,
0.5806000000,,,0.0,0.0,,,,,,,,,-1.9378700000,7.4401900000,-48.3963000000,49.0032001104
0.5863000000,,,0.0,0.0,0.4620800000,3.5152900000,9.4874700000,10.1283201327,,,,,,,,
0.5908000000,,,0.0,0.0,,,,,,,,,-1.6372700000,8.4899900000,-49.8962400000,50.6398592947
0.5914000000,,,0.0,0.0,,,,,-0.1264000000,-0.1058500000,-0.0014300000,0.1648733678,,,,
0.5938000000,,,0.0,0.0,0.5458400000,3.5057100000,9.5664400000,10.2031719668,,,,,,,,
0.5987000000,,,0.0,0.0,,,,,,,,,-1.0376000000,7.5897200000,-49.2965700000,49.8881977747
0.6004000000,,,0.0,0.0,,,,,-0.1237000000,-0.1329300000,-0.0709800000,0.1949621381,,,,
0.6037000000,,,0.0,0.0,0.5530100000,3.4770100000,9.6011400000,10.2263047040,,,,,,,,
0.6083000000,,,0.0,0.0,,,,,-0.1259500000,-0.1421500000,-0.0685700000,0.2019204544,,,,
0.6091000000,,,0.0,0.0,,,,,,,,,-0.4379300000,6.6894500000,-48.3963000000,48.8583910672
0.6158000000,,,0.0,0.0,0.5135300000,3.4458900000,9.6059300000,10.2182073828,,,,,,,,
0.6187000000,,,0.0,0.0,,,,,-0.1297900000,-0.1420700000,-0.0404500000,0.1966355296,,,,
0.6192000000,,,0.0,0.0,,,,,,,,,-1.7868000000,6.3903800000,-50.0457800000,50.4837568589
0.6239000000,,,0.0,0.0,0.5135300000,3.4171800000,9.6143000000,10.2164375740,,,,,,,,
0.6292000000,,,0.0,0.0,,,,,-0.1327800000,-0.1371800000,-0.0099200000,0.1911734479,,,,
0.6294000000,,,0.0,0.0,,,,,,,,,-1.3366700000,9.8403900000,-49.2965700000,50.2868946725
0.6361000000,,,0.0,0.0,0.6116300000,3.3501700000,9.6992500000,10.2797461471,,,,,,,,
0.6397000000,,,0.0,0.0,,,,,-0.1316500000,-0.1100600000,0.0841400000,0.1911137507,,,,
0.6403000000,,,0.0,0.0,,,,,,,,,-0.4379300000,7.7392600000,-49.1455100000,49.7530811226
0.6447000000,,,0.0,0.0,0.4955900000,3.2784000000,9.7267600000,10.2763503300,,,,,,,,
0.6485000000,,,0.0,0.0,,,,,,,,,-0.7370000000,8.3404500000,-48.9959700000,49.7062506275
0.6491000000,,,0.0,0.0,,,,,-0.1342200000,-0.0914800000,0.1251700000,0.2050637162,,,,
0.6550000000,,,0.0,0.0,0.5278900000,3.2951400000,9.5939600000,10.1577893241,,,,,,,,
0.6585000000,,,0.0,0.0,,,,,,,,,-1.3366700000,7.1395900000,-49.2965700000,49.8288294647
0.6593000000,,,0.0,0.0,,,,,-0.1308000000,-0.0851300000,0.1213200000,0.1976722016,,,,
0.6644000000,,,0.0,0.0,0.5434400000,3.3549700000,9.5221700000,10.1105327379,,,,,,,,
0.6683000000,,,0.0,0.0,,,,,,,,,0.0122100000,7.5897200000,-49.2965700000,49.8774078369
0.6695000000,,,0.0,0.0,,,,,-0.1130500000,-0.0665300000,0.1428200000,0.1939177552,,,,
0.6752000000,,,0.0,0.0,0.7288800000,3.3573600000,9.5975500000,10.1939245743,,,,,,,,
0.6798000000,,,0.0,0.0,,,,,-0.0908400000,-0.0693200000,0.1308000000,0.1736830677,,,,
0.6800000000,,,0.0,0.0,,,,,,,,,-0.8880600000,8.7890600000,-49.4461100000,50.2290157218
0.6857000000,,,0.0,0.0,0.5757400000,3.2987400000,9.8081200000,10.3639944071,,,,,,,,
0.6888000000,,,0.0,0.0,,,,,-0.0780500000,-0.0863600000,0.0605000000,0.1311872787,,,,
0.6894000000,,,0.0,0.0,,,,,,,,,-2.5375400000,8.3404500000,-49.2965700000,50.0615024667
0.6958000000,,,0.0,0.0,0.5386500000,3.3011300000,9.8093100000,10.3638875802,,,,,,,,
0.6991000000,,,0.0,0.0,,,,,-0.0682800000,-0.0888800000,0.0138500000,0.1129319941,,,,
0.7000000000,,,0.0,0.0,,,,,,,,,-1.0376000000,8.6395300000,-50.0457800000,50.7966355991
0.7056000000,,,0.0,0.0,0.5697600000,3.3729100000,9.7135900000,10.2982998118,,,,,,,,
0.7106000000,,,0.0,0.0,,,,,,,,,-1.1871300000,8.1893900000,-49.4461100000,50.1337529050
0.7111000000,,,0.0,0.0,,,,,-0.0579700000,-0.0874200000,-0.0071900000,0.1051402558,,,,
0.7152000000,,,0.0,0.0,0.6475200000,3.4375200000,9.4970600000,10.1207694640,,,,,,,,
0.7200000000,,,0.0,0.0,,,,,-0.0444900000,-0.0899500000,-0.0208000000,0.1024841578,,,,
0.7208000000,,,0.0,0.0,,,,,,,,,0.3128100000,8.1893900000,-49.1455100000,49.8241418574
0.7260000000,,,0.0,0.0,0.4860100000,3.4339300000,9.5126000000,10.1250994921,,,,,,,,
0.7294000000,,,0.0,0.0,,,,,,,,,-1.0376000000,6.3903800000,-48.9959700000,49.4218438198
0.7297000000,,,0.0,0.0,,,,,-0.0336300000,-0.0903500000,-0.0551500000,0.1110658449,,,,
0.7360000000,,,0.0,0.0,0.6702600000,3.2855700000,9.6119100000,10.1800310678,,,,,,,,
0.7397000000,,,0.0,0.0,,,,,,,,,-2.5375400000,9.3902600000,-48.5458400000,49.5107531090
0.7408000000,,,0.0,0.0,,,,,-0.0320700000,-0.1092500000,-0.1193500000,0.1649499012,,,,
0.7455000000,,,0.0,0.0,0.6355600000,3.0869600000,9.6418200000,10.1438627489,,,,,,,,
0.7500000000,,,0.0,0.0,,,,,,,,,-0.4379300000,8.1893900000,-49.8962400000,50.5657261136
0.7505000000,,,0.0,0.0,,,,,-0.0423900000,-0.1035000000,-0.1239200000,0.1669291122,,,,
0.7558000000,,,0.0,0.0,0.5649700000,3.2066000000,9.4288500000,9.9752036061,,,,,,,,
0.7604000000,,,0.0,0.0,,,,,-0.0572800000,-0.0983900000,-0.1557500000,0.1929239565,,,,
0.7621000000,,,0.0,0.0,,,,,,,,,-1.9378700000,9.2392000000,-48.3963000000,49.3084172375
0.7662000000,,,0.0,0.0,0.6295800000,3.3190800000,9.4228700000,10.0101519499,,,,,,,,
0.7752000000,,,0.0,0.0,,,,,,,,,0.3128100000,7.7392600000,-48.8464400000,49.4567355991
0.7758000000,,,0.0,0.0,,,,,-0.0582400000,-0.0608500000,-0.0858500000,0.1202698740,,,,
0.7763000000,,,0.0,0.0,0.7671700000,3.3848700000,9.3726200000,9.9945935580,,,,,,,,
0.7800000000,,,0.0,0.0,,,,,,,,,-1.7868000000,7.8903200000,-48.2467700000,48.9203497471
0.7805000000,,,0.0,0.0,,,,,-0.0499700000,-0.0513500000,-0.0616000000,0.0944901233,,,,
0.7863000000,,,0.0,0.0,0.8162200000,3.4100000000,9.4503900000,10.0798901899,,,,,,,,
0.7914000000,,,0.0,0.0,,,,,,,,,-2.0874000000,8.3404500000,-48.5458400000,49.3013075513
0.7916000000,,,0.0,0.0,,,,,-0.0380100000,-0.0519900000,-0.0371400000,0.0743444672,,,,
0.7967000000,,,0.0,0.0,0.9645800000,3.1982300000,9.6418200000,10.2041061648,,,,,,,,
0.8004000000,,,0.0,0.0,,,,,,,,,-1.0376000000,7.5897200000,-50.3463700000,50.9258032398
0.8011000000,,,0.0,0.0,,,,,-0.0398900000,-0.0581700000,0.0113400000,0.0714391811,,,,
0.8068000000,,,0.0,0.0,0.9777400000,3.0355200000,9.6609500000,10.1737068997,,,,,,,,
0.8131000000,,,0.0,0.0,,,,,-0.0543800000,-0.0656700000,0.0726600000,0.1120232516,,,,
0.8136000000,,,0.0,0.0,,,,,,,,,-1.3366700000,7.1395900000,-48.2467700000,48.7904831652
0.8160000000,,,0.0,0.0,0.6032600000,3.2915500000,9.3618500000,9.9419545087,,,,,,,,
0.8209000000,,,0.0,0.0,,,,,,,,,-1.9378700000,8.1893900000,-49.4461100000,50.1571454814
0.8214000000,,,0.0,0.0,,,,,-0.0600400000,-0.0641900000,0.1107500000,0.1413885434,,,,
0.8268000000,,,0.0,0.0,0.9705700000,3.2843800000,9.3929600000,9.9978425508,,,,,,,,
0.8304000000,,,0.0,0.0,,,,,-0.0609600000,-0.0738100000,0.1590900000,0.1856708534,,,,
0.8306000000,,,0.0,0.0,,,,,,,,,-2.5375400000,8.6395300000,-48.9959700000,49.8165199920
0.8376000000,,,0.0,0.0,1.1883100000,3.1073000000,9.5233600000,10.0877043789,,,,,,,,
0.8396000000,,,0.0,0.0,,,,,,,,,-0.8880600000,9.5397900000,-50.1968400000,51.1030232941
0.8420000000,,,0.0,0.0,,,,,-0.0647600000,-0.0804600000,0.2596700000,0.2794569342,,,,
0.8467000000,,,0.0,0.0,1.2242000000,2.9541600000,9.6059300000,10.1242095055,,,,,,,,
0.8509000000,,,0.0,0.0,,,,,-0.0789000000,-0.1055100000,0.3185000000,0.3446734978,,,,
0.8513000000,,,0.0,0.0,,,,,,,,,-2.3880000000,6.2393200000,-50.9460400000,51.3822016825
0.8567000000,,,0.0,0.0,1.1787400000,2.9481800000,9.6214800000,10.1318345175,,,,,,,,
0.8599000000,,,0.0,0.0,,,,,,,,,-1.7868000000,9.3902600000,-49.2965700000,50.2147533188
0.8606000000,,,0.0,0.0,,,,,-0.0952600000,-0.1122300000,0.3893000000,0.4162025114,,,,
0.8674000000,,,0.0,0.0,1.1416500000,3.0415000000,9.5185900000,10.0577155737,,,,,,,,
0.8704000000,,,0.0,0.0,,,,,-0.1104600000,-0.1061600000,0.4347700000,0.4609732206,,,,
0.8715000000,,,0.0,0.0,,,,,,,,,-1.3366700000,6.3903800000,-48.9959700000,49.4290270941
0.8767000000,,,0.0,0.0,1.1416500000,3.1432000000,9.3463000000,9.9265499874,,,,,,,,
0.8816000000,,,0.0,0.0,,,,,,,,,-0.4379300000,7.4401900000,-50.1968400000,50.7471275631
0.8821000000,,,0.0,0.0,,,,,-0.1107500000,-0.0966300000,0.4547000000,0.4778650535,,,,
0.8870000000,,,0.0,0.0,1.1332700000,3.1443900000,9.2146900000,9.8021426821,,,,,,,,
0.8901000000,,,0.0,0.0,,,,,-0.0974600000,-0.0986600000,0.4654800000,0.4856993696,,,,
0.8919000000,,,0.0,0.0,,,,,,,,,-1.6372700000,8.1893900000,-48.8464400000,49.5552364771
0.8992000000,,,0.0,0.0,1.0722500000,3.1061100000,9.1106100000,9.6850840970,,,,,,,,
0.9003000000,,,0.0,0.0,,,,,-0.0868500000,-0.0989200000,0.4555400000,0.4741780051,,,,
0.9018000000,,,0.0,0.0,,,,,,,,,-1.9378700000,8.7890600000,-49.4461100000,50.2585386771
0.9100000000,,,0.0,0.0,1.0375500000,3.0618400000,9.0484000000,9.6085855748,,,,,,,,
0.9126000000,,,0.0,0.0,,,,,,,,,-2.5375400000,8.3404500000,-48.5458400000,49.3224167774
0.9134000000,,,0.0,0.0,,,,,-0.0781700000,-0.1108400000,0.3952200000,0.4178455491,,,,
0.9170000000,,,0.0,0.0,1.0507200000,3.0199700000,9.0627400000,9.6102803095,,,,,,,,
0.9241000000,,,0.0,0.0,,,,,,,,,-0.7370000000,9.0896600000,-48.5458400000,49.3949761537
0.9245000000,,,0.0,0.0,,,,,-0.0647900000,-0.1090900000,0.3443800000,0.3670094775,,,,
0.9277000000,,,0.0,0.0,1.1129300000,2.9804800000,9.1333300000,9.6715867935,,,,,,,,
0.9312000000,,,0.0,0.0,,,,,,,,,-1.3366700000,8.6395300000,-50.7965100000,51.5433176415
0.9316000000,,,0.0,0.0,,,,,-0.0386200000,-0.0969500000,0.3633300000,0.3780204965,,,,
0.9398000000,,,0.0,0.0,1.1835200000,2.9649400000,9.2350300000,9.7712521150,,,,,,,,
0.9410000000,,,0.0,0.0,,,,,-0.0160400000,-0.1046100000,0.3677100000,0.3826371359,,,,
0.9416000000,,,0.0,0.0,,,,,,,,,-2.6870700000,8.4899900000,-48.8464400000,49.6515354854
0.9476000000,,,0.0,0.0,1.1739500000,3.0139900000,9.3295400000,9.8743410380,,,,,,,,
0.9539000000,,,0.0,0.0,,,,,,,,,-1.9378700000,8.1893900000,-50.1968400000,50.8973888789
0.9544000000,,,0.0,0.0,,,,,-0.0049600000,-0.1135100000,0.3743000000,0.3911644305,,,,
0.9581000000,,,0.0,0.0,1.1428400000,3.2760000000,9.5437000000,10.1548249101,,,,,,,,
0.9609000000,,,0.0,0.0,,,,,-0.0111400000,-0.1241000000,0.3473800000,0.3690498259,,,,
0.9612000000,,,0.0,0.0,,,,,,,,,-1.0376000000,9.8403900000,-49.7467000000,50.7212386481
0.9708000000,,,0.0,0.0,0.9119400000,3.2341300000,9.5927600000,10.1642646482,,,,,,,,
0.9714000000,,,0.0,0.0,,,,,,,,,-2.8366100000,9.3902600000,-50.3463700000,51.2930824901
0.9716000000,,,0.0,0.0,,,,,-0.0282100000,-0.1364400000,0.2926600000,0.3241319998,,,,
0.9784000000,,,0.0,0.0,0.7719600000,3.0151800000,9.4946600000,9.9917866866,,,,,,,,
0.9811000000,,,0.0,0.0,,,,,,,,,-1.6372700000,8.7890600000,-50.6454500000,51.4284924379
0.9819000000,,,0.0,0.0,,,,,-0.0416700000,-0.1128200000,0.2824100000,0.3069530085,,,,
0.9881000000,,,0.0,0.0,0.8006700000,2.8668200000,9.4216800000,9.8806772735,,,,,,,,
0.9911000000,,,0.0,0.0,,,,,,,,,-2.5375400000,8.3404500000,-49.2965700000,50.0615024667
0.9919000000,,,0.0,0.0,,,,,-0.0559400000,-0.1062900000,0.2236500000,0.2538625025,,,,
0.9981000000,,,0.0,0.0,0.9083400000,2.8548600000,9.3965500000,9.8625787235,,,,,,,,
1.0037000000,,,0.0,0.0,,,,,-0.0702500000,-0.0893400000,0.2410900000,0.2665353376,,,,
1.0042000000,,,0.0,0.0,,,,,,,,,-1.3366700000,9.3902600000,-51.0955800000,51.9684708751
1.0086000000,,,0.0,0.0,0.9717600000,2.8979300000,9.4312400000,9.9141617760,,,,,,,,
1.0118000000,,,0.0,0.0,,,,,,,,,-1.0376000000,10.1394700000,-48.2467700000,49.3116241983
1.0125000000,,,0.0,0.0,,,,,-0.0925900000,-0.0879200000,0.2325900000,0.2653317595,,,,
1.0228000000,,,0.0,0.0,0.9406400000,2.9075000000,9.4814900000,9.9617775763,,,,,,,,
1.0268000000,,,0.0,0.0,,,,,,,,,-2.3880000000,8.4899900000,-49.8962400000,50.6696875887
1.0292000000,,,0.0,0.0,,,,,-0.1197200000,-0.0789800000,0.2184100000,0.2612922634,,,,
1.0298000000,,,0.0,0.0,0.8987700000,2.8991200000,9.5592700000,10.0295726340,,,,,,,,
1.0316000000,,,0.0,0.0,,,,,,,,,-2.5375400000,9.3902600000,-48.5458400000,49.5107531090
1.0322000000,,,0.0,0.0,,,,,-0.1478300000,-0.0667900000,0.1909500000,0.2505524207,,,,
1.0388000000,,,0.0,0.0,0.9107400000,2.8728000000,9.5652500000,10.0287803222,,,,,,,,
1.0421000000,,,0.0,0.0,,,,,,,,,-1.6372700000,9.2392000000,-48.8464400000,49.7395031174
1.0423000000,,,0.0,0.0,,,,,-0.1575300000,-0.0559700000,0.1318200000,0.2128963461,,,,
1.0491000000,,,0.0,0.0,0.9574000000,2.9015200000,9.5772100000,10.0527799366,,,,,,,,
1.0516000000,,,0.0,0.0,,,,,-0.1445000000,-0.0508900000,0.0679800000,0.1676046613,,,,
1.0520000000,,,0.0,0.0,,,,,,,,,-1.9378700000,10.7391400000,-49.1455100000,50.3424832645
1.0591000000,,,0.0,0.0,0.9753400000,2.9099000000,9.6023300000,10.0808505373,,,,,,,,
1.0627000000,,,0.0,0.0,,,,,,,,,-2.0874000000,9.3902600000,-48.9959700000,49.9313458448
1.0629000000,,,0.0,0.0,,,,,-0.1414000000,-0.0500500000,0.0640400000,0.1630953221,,,,
1.0702000000,,,0.0,0.0,0.9621900000,2.9003300000,9.6346300000,10.1076119307,,,,,,,,
1.0736000000,,,0.0,0.0,,,,,-0.1432300000,-0.0434000000,0.0559100000,0.1597633281,,,,
1.0743000000,,,0.0,0.0,,,,,,,,,-2.5375400000,9.8403900000,-48.2467700000,49.3054074117
1.0789000000,,,0.0,0.0,0.9885100000,2.8919500000,9.6394200000,10.1123164883,,,,,,,,
1.0829000000,,,0.0,0.0,,,,,-0.1354800000,-0.0324700000,0.0289800000,0.1422988816,,,,
1.0837000000,,,0.0,0.0,,,,,,,,,-0.8880600000,9.9899300000,-50.1968400000,51.1889646111
1.0891000000,,,0.0,0.0,1.0399500000,2.9063100000,9.6286500000,10.1113319914,,,,,,,,
1.0919000000,,,0.0,0.0,,,,,-0.1162900000,-0.0278900000,-0.0127600000,0.1202665115,,,,
1.0935000000,,,0.0,0.0,,,,,,,,,-2.0874000000,10.8902000000,-48.9959700000,50.2350352945
1.0994000000,,,0.0,0.0,1.0507200000,2.9302400000,9.6178900000,10.1091110899,,,,,,,,
1.1042000000,,,0.0,0.0,,,,,-0.0931400000,-0.0225400000,-0.0285000000,0.0999768033,,,,
1.1065000000,,,0.0,0.0,,,,,,,,,-1.3366700000,11.3403300000,-50.3463700000,51.6250592578
1.1095000000,,,0.0,0.0,1.0076400000,2.9350300000,9.6418200000,10.1288909750,,,,,,,,
1.1134000000,,,0.0,0.0,,,,,-0.0820000000,-0.0202000000,-0.0471200000,0.0967074682,,,,
1.1140000000,,,0.0,0.0,,,,,,,,,-0.7370000000,10.8902000000,-50.7965100000,51.9559915045
1.1235000000,,,0.0,0.0,0.9538100000,2.9039200000,9.7124000000,10.1820046475,,,,,,,,
1.1240000000,,,0.0,0.0,,,,,,,,,-1.0376000000,9.8403900000,-48.9959700000,49.9851474475
1.1243000000,,,0.0,0.0,,,,,-0.0868200000,-0.0133100000,-0.0702700000,0.1124844051,,,,
1.1295000000,,,0.0,0.0,0.9167200000,2.8835800000,9.8009300000,10.2573699377,,,,,,,,
1.1325000000,,,0.0,0.0,,,,,-0.1029200000,-0.0015700000,-0.1011800000,0.1443342776,,,,
1.1330000000,,,0.0,0.0,,,,,,,,,-1.3366700000,10.5896000000,-48.9959700000,50.1451033610
1.1437000000,,,0.0,0.0,0.9155300000,2.8859700000,9.8428000000,10.2979478471,,,,,,,,
1.1443000000,,,0.0,0.0,,,,,,,,,-1.3366700000,10.1394700000,-48.9959700000,50.0519791298
1.1450000000,,,0.0,0.0,,,,,-0.1235200000,0.0139000000,-0.1401500000,0.1873297171,,,,
1.1492000000,,,0.0,0.0,0.9514200000,2.8943500000,9.8188800000,10.2807035943,,,,,,,,
1.1565000000,,,0.0,0.0,,,,,-0.0461100000,0.0090200000,-0.0551000000,0.0724120328,,,,
1.1569000000,,,0.0,0.0,,,,,,,,,-1.6372700000,10.7391400000,-49.1455100000,50.3318083736
1.1613000000,,,0.0,0.0,0.9621900000,2.9242600000,9.7471000000,10.2216957768,,,,,,,,
1.1914000000,,,0.0,0.0,,,,,,,,,-0.1373300000,11.0397300000,-50.9460400000,52.1286244753
1.1924000000,,,0.0,0.0,,,,,-0.0566400000,0.0137800000,-0.0665000000,0.0884320530,,,,
1.1927000000,,,0.0,0.0,0.9621900000,2.9984300000,9.6848900000,10.1839818526,,,,,,,,
1.1932000000,,,0.0,0.0,,,,,,,,,-2.3880000000,10.7391400000,-49.4461100000,50.6552017672
1.1943000000,,,0.0,0.0,,,,,-0.0631600000,0.0171700000,-0.0762000000,0.1004511548,,,,
1.1946000000,,,0.0,0.0,0.9729500000,3.0319400000,9.6561700000,10.1676403819,,,,,,,,
1.1969000000,,,0.0,0.0,,,,,,,,,-2.8366100000,10.8902000000,-49.2965700000,50.5647567590
1.1972000000,,,0.0,0.0,,,,,-0.0655800000,0.0208400000,-0.0818300000,0.1069167475,,,,
1.1976000000,,,0.0,0.0,1.0411500000,3.0008200000,9.6573600000,10.1662931378,,,,,,,,
1.1984000000,,,0.0,0.0,,,,,,,,,-2.3880000000,10.7391400000,-49.4461100000,50.6552017672
1.1988000000,,,0.0,0.0,,,,,-0.0663100000,0.0230100000,-0.0863000000,0.1112392296,,,,
1.2039000000,,,0.0,0.0,1.2098400000,2.7962300000,9.5269600000,10.0022788344,,,,,,,,
1.2046000000,,,0.0,0.0,,,,,-0.2047000000,0.0673500000,-0.2450900000,0.3263544401,,,,
1.2061000000,,,0.0,0.0,,,,,,,,,-1.6372700000,10.7391400000,-49.1455100000,50.3318083736
1.2542000000,,,0.0,0.0,1.3582000000,2.8333300000,9.5269600000,10.0317213364,,,,,,,,
1.2548000000,,,0.0,0.0,,,,,-0.1698900000,0.0587200000,-0.0967100000,0.2041163261,,,,
1.2557000000,,,0.0,0.0,,,,,,,,,-0.7370000000,9.0896600000,-48.9959700000,49.8374373755
1.2561000000,,,0.0,0.0,2.0700700000,2.7699100000,9.2781100000,9.9015613105,,,,,,,,
1.2568000000,,,0.0,0.0,,,,,,,,,-2.3880000000,10.2905300000,-48.0957000000,49.2421964393
1.2571000000,,,0.0,0.0,,,,,-0.1427500000,0.0358900000,-0.0041700000,0.1472516333,,,,
1.2573000000,,,0.0,0.0,2.2315800000,2.8476900000,9.1632500000,9.8516210948,,,,,,,,
1.2579000000,,,0.0,0.0,,,,,,,,,-2.0874000000,10.5896000000,-49.7467000000,50.9041356651
1.2581000000,,,0.0,0.0,,,,,-0.1130500000,0.0233300000,0.0264100000,0.1184148618,,,,
1.2583000000,,,0.0,0.0,1.9384600000,3.3178700000,9.2410100000,10.0081044323,,,,,,,,
1.2588000000,,,0.0,0.0,,,,,,,,,-3.5873400000,11.3403300000,-48.9959700000,50.4190159466
1.2591000000,,,0.0,0.0,,,,,-0.0608800000,-0.0262500000,0.1306800000,0.1465356588,,,,
1.2593000000,,,0.0,0.0,1.4718600000,3.5882600000,9.5054200000,10.2662062644,,,,,,,,
1.2619000000,,,0.0,0.0,,,,,0.0026400000,-0.0865300000,0.3196900000,0.3312040256,,,,
1.2623000000,,,0.0,0.0,,,,,,,,,-2.3880000000,11.0397300000,-49.4461100000,50.7197789487
1.2627000000,,,0.0,0.0,1.1404600000,3.4997300000,9.7303500000,10.4032913161,,,,,,,,
1.2632000000,,,0.0,0.0,,,,,,,,,-1.9378700000,11.4898700000,-48.8464400000,50.2170006415
1.2641000000,,,0.0,0.0,,,,,0.0541700000,-0.1349500000,0.4854400000,0.5067522916,,,,
1.2748000000,,,0.0,0.0,1.0303800000,3.1252600000,9.8152900000,10.3522389267,,,,,,,,
1.2751000000,,,0.0,0.0,,,,,,,,,-2.5375400000,10.1394700000,-49.2965700000,50.3924575199
1.2767000000,,,0.0,0.0,,,,,0.0765800000,-0.1520700000,0.5570800000,0.5825185900,,,,
1.2807000000,,,0.0,0.0,1.0351700000,2.7112900000,9.8667400000,10.2847084850,,,,,,,,
1.2845000000,,,0.0,0.0,,,,,,,,,-2.9876700000,11.7904700000,-48.3963000000,49.9013347371
1.2865000000,,,0.0,0.0,,,,,0.0665600000,-0.1459400000,0.4986400000,0.5238039393,,,,
1.2909000000,,,0.0,0.0,0.9825300000,2.3930500000,9.9552800000,10.2858958473,,,,,,,,
1.2931000000,,,0.0,0.0,,,,,,,,,-3.4378100000,11.4898700000,-48.8464400000,50.2972201109
1.2940000000,,,0.0,0.0,,,,,0.0462600000,-0.1327100000,0.3359100000,0.3641256099,,,,
1.3018000000,,,0.0,0.0,0.8222000000,2.2375200000,10.0737200000,10.3519246147,,,,,,,,
1.3047000000,,,0.0,0.0,,,,,,,,,-1.3366700000,11.9400000000,-47.7966300000,49.2835482291
1.3052000000,,,0.0,0.0,,,,,0.0070800000,-0.1049000000,0.1742900000,0.2035464087,,,,
1.3114000000,,,0.0,0.0,0.6606900000,2.2099900000,10.1754200000,10.4335870750,,,,,,,,
1.3144000000,,,0.0,0.0,,,,,-0.0363500000,-0.0702200000,0.0556300000,0.0966792005,,,,
1.3146000000,,,0.0,0.0,,,,,,,,,-2.0874000000,10.8902000000,-49.2965700000,50.5282644523
1.3216000000,,,0.0,0.0,0.7683700000,2.2518800000,10.1598700000,10.4347647031,,,,,,,,
1.3238000000,,,0.0,0.0,,,,,,,,,-3.5873400000,10.8902000000,-51.0955800000,52.3662463792
1.3240000000,,,0.0,0.0,,,,,-0.0713200000,-0.0581700000,-0.0753500000,0.1189450033,,,,
1.3317000000,,,0.0,0.0,1.0626800000,2.3571600000,10.0438100000,10.3712878354,,,,,,,,
1.3344000000,,,0.0,0.0,,,,,,,,,-1.3366700000,10.1394700000,-49.7467000000,50.7871017037
1.3350000000,,,0.0,0.0,,,,,-0.0867600000,-0.0385300000,-0.0951200000,0.1343862824,,,,
1.3416000000,,,0.0,0.0,1.2265900000,2.5162800000,9.8870800000,10.2757257161,,,,,,,,
1.3443000000,,,0.0,0.0,,,,,-0.1285200000,-0.0273400000,-0.0859100000,0.1569885158,,,,
1.3454000000,,,0.0,0.0,,,,,,,,,-1.9378700000,11.0397300000,-49.1455100000,50.4074610724
1.3519000000,,,0.0,0.0,1.2481200000,2.6622500000,9.7112100000,10.1465747058,,,,,,,,
1.3542000000,,,0.0,0.0,,,,,-0.1890600000,-0.0320600000,-0.1019600000,0.2171804982,,,,
1.3547000000,,,0.0,0.0,,,,,,,,,-2.8366100000,11.3403300000,-49.7467000000,51.1016986185
1.3621000000,,,0.0,0.0,1.2014600000,2.7938500000,9.5042300000,9.9789524424,,,,,,,,
1.3644000000,,,0.0,0.0,,,,,-0.2348000000,-0.0521100000,-0.1589700000,0.2883018436,,,,
1.3652000000,,,0.0,0.0,,,,,,,,,-4.0374800000,12.3901400000,-48.9959700000,50.6993283014
1.3741000000,,,0.0,0.0,1.1883100000,2.9015200000,9.3044300000,9.8185190630,,,,,,,,
1.3775000000,,,0.0,0.0,,,,,-0.2194400000,-0.0598100000,-0.1608100000,0.2785516214,,,,
1.3788000000,,,0.0,0.0,,,,,,,,,-2.3880000000,11.0397300000,-48.3963000000,49.6968815537
1.3821000000,,,0.0,0.0,1.2289900000,2.9900500000,9.1799900000,9.7325758062,,,,,,,,
1.3838000000,,,0.0,0.0,,,,,,,,,-1.6372700000,10.7391400000,-48.8464400000,50.0398289532
1.3846000000,,,0.0,0.0,,,,,-0.1649000000,-0.0624700000,-0.1190000000,0.2127334269,,,,
1.3933000000,,,0.0,0.0,1.2660700000,3.0534700000,9.1680300000,9.7457368304,,,,,,,,
1.3964000000,,,0.0,0.0,,,,,-0.1080500000,-0.0661300000,-0.0535900000,0.1375495093,,,,
1.3967000000,,,0.0,0.0,,,,,,,,,-1.9378700000,10.7391400000,-49.4461100000,50.6359779427
1.4126000000,,,0.0,0.0,1.2648800000,3.0881700000,9.2613500000,9.8442531045,,,,,,,,
1.4135000000,,,0.0,0.0,,,,,,,,,-1.7868000000,10.1394700000,-50.7965100000,51.8294022182
1.4139000000,,,0.0,0.0,,,,,-0.0522600000,-0.0793900000,0.0103600000,0.0956096716,,,,
1.4145000000,,,0.0,0.0,1.2636900000,3.0917500000,9.3941500000,9.9702499819,,,,,,,,
1.4149000000,,,0.0,0.0,,,,,,,,,-2.8366100000,9.8403900000,-48.9959700000,50.0548170298
1.4151000000,,,0.0,0.0,,,,,-0.0058300000,-0.1011500000,0.0540600000,0.1148381252,,,,
1.4218000000,,,0.0,0.0,1.2720500000,3.0797900000,9.5197800000,10.0861007776,,,,,,,,
1.4271000000,,,0.0,0.0,,,,,,,,,-2.3880000000,10.7391400000,-49.8962400000,51.0946811134
1.4275000000,,,0.0,0.0,,,,,0.0297900000,-0.1133400000,0.1123700000,0.1623589129,,,,
1.4318000000,,,0.0,0.0,1.3127300000,3.0510700000,9.5999500000,10.1583132557,,,,,,,,
1.4341000000,,,0.0,0.0,,,,,,,,,-4.1870100000,12.2390700000,-48.8464400000,50.5301948134
1.4356000000,,,0.0,0.0,,,,,0.0422500000,-0.1329200000,0.1056400000,0.1749645636,,,,
1.4426000000,,,0.0,0.0,1.3426500000,3.0235600000,9.6573600000,10.2082920347,,,,,,,,
1.4443000000,,,0.0,0.0,,,,,,,,,-1.9378700000,11.7904700000,-48.3963000000,49.8494972557
1.4446000000,,,0.0,0.0,,,,,0.0399000000,-0.1264600000,0.1113700000,0.1731687573,,,,
1.4522000000,,,0.0,0.0,1.3988800000,2.9900500000,9.6920600000,10.2388129830,,,,,,,,
1.4554000000,,,0.0,0.0,,,,,,,,,-1.0376000000,10.1394700000,-49.7467000000,50.7801105408
1.4563000000,,,0.0,0.0,,,,,0.0385300000,-0.1077300000,0.0880600000,0.1443775516,,,,
1.4621000000,,,0.0,0.0,1.4503200000,2.9912600000,9.6633500000,10.2191681517,,,,,,,,
1.4642000000,,,0.0,0.0,,,,,,,,,-2.0874000000,11.3403300000,-48.9959700000,50.3345348594
1.4650000000,,,0.0,0.0,,,,,0.0350800000,-0.0687300000,0.0011000000,0.0771727238,,,,
1.4737000000,,,0.0,0.0,1.4754500000,3.0068100000,9.6035300000,10.1708233462,,,,,,,,
1.4749000000,,,0.0,0.0,,,,,0.0288700000,-0.0430600000,-0.1024600000,0.1148289689,,,,
1.4753000000,,,0.0,0.0,,,,,,,,,-3.2867400000,9.8403900000,-50.3463700000,51.4042109886
1.4833000000,,,0.0,0.0,1.4742400000,3.0271500000,9.5532800000,10.1292733924,,,,,,,,
1.4862000000,,,0.0,0.0,,,,,,,,,-2.0874000000,10.5896000000,-48.9959700000,50.1707279513
1.4877000000,,,0.0,0.0,,,,,0.0206900000,-0.0184300000,-0.0932800000,0.0973082699,,,,
1.4933000000,,,0.0,0.0,1.4718600000,3.0355200000,9.5496800000,10.1280374028,,,,,,,,
1.4950000000,,,0.0,0.0,,,,,,,,,-2.3880000000,11.4898700000,-48.8464400000,50.2363847952
1.4960000000,,,0.0,0.0,,,,,0.0017100000,-0.0091400000,-0.0645400000,0.0652064054,,,,
1.5066000000,,,0.0,0.0,1.5017700000,3.0391100000,9.5269600000,10.1120952115,,,,,,,,
1.5137000000,,,0.0,0.0,,,,,-0.0194400000,0.0014300000,-0.0622300000,0.0652114361,,,,
1.5153000000,,,0.0,0.0,,,,,,,,,-3.2867400000,8.6395300000,-48.9959700000,49.8602969775
1.5157000000,,,0.0,0.0,1.5245100000,3.0355200000,9.5353400000,10.1223130423,,,,,,,,
1.5201000000,,,0.0,0.0,,,,,-0.0240600000,-0.0009500000,-0.0640100000,0.0683890795,,,,
1.5247000000,,,0.0,0.0,,,,,,,,,-4.0374800000,11.6394000000,-49.7467000000,51.2494979293
1.5253000000,,,0.0,0.0,1.5173200000,3.0594500000,9.5604600000,10.1520879476,,,,,,,,
1.5260000000,,,0.0,0.0,,,,,-0.0157900000,-0.0086200000,-0.0310200000,0.0358590142,,,,
1.5266000000,,,0.0,0.0,,,,,,,,,-2.6870700000,9.9899300000,-48.8464400000,49.9298883162
1.5349000000,,,0.0,0.0,1.4850200000,3.0714100000,9.5820000000,10.1712127000,,,,,,,,
1.5373000000,,,0.0,0.0,,,,,-0.0015700000,-0.0202800000,0.0029800000,0.0205578136,,,,
1.5437000000,,,0.0,0.0,,,,,,,,,-4.1870100000,11.0397300000,-49.1455100000,50.5439199546
1.5465000000,,,0.0,0.0,1.5041700000,3.0977300000,9.4982500000,10.1032277815,,,,,,,,
1.5470000000,,,0.0,0.0,,,,,,,,,-3.2867400000,10.5896000000,-49.2965700000,50.5281515766
1.5476000000,,,0.0,0.0,,,,,0.0137300000,-0.0325200000,-0.0054900000,0.0357239891,,,,
1.5612000000,,,0.0,0.0,1.4993700000,3.1575600000,9.3283500000,9.9617473002,,,,,,,,
1.5621000000,,,0.0,0.0,,,,,,,,,-2.9876700000,10.7391400000,-48.8464400000,50.1021955671
1.5624000000,,,0.0,0.0,,,,,0.0262600000,-0.0396300000,-0.0267600000,0.0545547624,,,,
1.5638000000,,,0.0,0.0,1.4419400000,3.2185700000,9.2063100000,9.8587284994,,,,,,,,
1.5650000000,,,0.0,0.0,,,,,0.0484000000,-0.0753200000,0.0419900000,0.0988879290,,,,
1.5655000000,,,0.0,0.0,,,,,,,,,-4.0374800000,10.1394700000,-48.5458400000,49.7574987106
1.5758000000,,,0.0,0.0,1.4048600000,3.2736100000,9.1740100000,9.8413725431,,,,,,,,
1.5763000000,,,0.0,0.0,,,,,,,,,-1.7868000000,11.3403300000,-49.7467000000,51.0541859169
1.5766000000,,,0.0,0.0,,,,,0.0988200000,-0.1221800000,0.1562500000,0.2216019118,,,,
1.5841000000,,,0.0,0.0,1.3462400000,3.3406100000,9.1596500000,9.8423180924,,,,,,,,
1.5851000000,,,0.0,0.0,,,,,0.2182600000,-0.1648700000,0.2025800000,0.3403794954,,,,
1.5864000000,,,0.0,0.0,,,,,,,,,-2.9876700000,12.5396700000,-49.8962400000,51.5344958438
1.5938000000,,,0.0,0.0,1.3677700000,3.3956500000,9.0902700000,9.7997062389,,,,,,,,
1.5948000000,,,0.0,0.0,,,,,0.3850300000,-0.1774400000,0.1980700000,0.4679367259,,,,
1.5953000000,,,0.0,0.0,,,,,,,,,-2.5375400000,11.3403300000,-48.5458400000,49.9173394230
1.6054000000,,,0.0,0.0,1.2565000000,3.3238500000,9.1476900000,9.8136131679,,,,,,,,
1.6118000000,,,0.0,0.0,,,,,,,,,-2.0874000000,10.8902000000,-48.9959700000,50.2350352945
1.6128000000,,,0.0,0.0,,,,,0.4975900000,-0.1556100000,0.1741500000,0.5496712679,,,,
1.6142000000,,,0.0,0.0,1.2469300000,3.1743000000,9.2087100000,9.8199467809,,,,,,,,
1.6153000000,,,0.0,0.0,,,,,0.4891500000,-0.1278500000,0.1420300000,0.5251531833,,,,
1.6156000000,,,0.0,0.0,,,,,,,,,-1.6372700000,11.0397300000,-48.8464400000,50.1051992532
1.6265000000,,,0.0,0.0,1.3007700000,3.1001300000,9.2757100000,9.8661849067,,,,,,,,
1.6274000000,,,0.0,0.0,,,,,,,,,-2.6870700000,11.4898700000,-49.1455100000,50.5422458045
1.6277000000,,,0.0,0.0,,,,,0.4139600000,-0.1041100000,0.1085500000,0.4404371422,,,,
1.6342000000,,,0.0,0.0,1.3282900000,3.1599400000,9.3343400000,9.9438160866,,,,,,,,
1.6369000000,,,0.0,0.0,,,,,0.3266400000,-0.0818800000,0.0866100000,0.3477057896,,,,
1.6378000000,,,0.0,0.0,,,,,,,,,-1.9378700000,11.0397300000,-49.8962400000,51.1396689933
1.6478000000,,,0.0,0.0,1.2194100000,3.2652300000,9.3965500000,10.0221674105,,,,,,,,
1.6486000000,,,0.0,0.0,,,,,0.2559200000,-0.0641500000,0.0589600000,0.2703452432,,,,
1.6489000000,,,0.0,0.0,,,,,,,,,-1.7868000000,11.6394000000,-49.7467000000,51.1214480183
1.6554000000,,,0.0,0.0,1.0650800000,3.3142900000,9.4192800000,10.0419992695,,,,,,,,
1.6559000000,,,0.0,0.0,,,,,0.2041000000,-0.0459100000,0.0287600000,0.2111674115,,,,
1.6562000000,,,0.0,0.0,,,,,,,,,-1.9378700000,11.0397300000,-48.8464400000,50.1159224128
1.6635000000,,,0.0,0.0,0.9681700000,3.2891500000,9.3857900000,9.9924428843,,,,,,,,
1.6657000000,,,0.0,0.0,,,,,,,,,-2.6870700000,9.5397900000,-50.1968400000,51.1659133058
1.6659000000,,,0.0,0.0,,,,,0.1677200000,-0.0299800000,0.0080000000,0.1705661127,,,,
1.6747000000,,,0.0,0.0,0.9562100000,3.2185700000,9.3738300000,9.9570185938,,,,,,,,
1.6757000000,,,0.0,0.0,,,,,,,,,-1.3366700000,10.5896000000,-48.5458400000,49.7053809577
1.6760000000,,,0.0,0.0,,,,,0.1481000000,-0.0007000000,0.0630300000,0.1609561459,,,,
1.6844000000,,,0.0,0.0,0.9753400000,3.1659200000,9.4144900000,9.9803286280,,,,,,,,
1.6879000000,,,0.0,0.0,,,,,,,,,-3.5873400000,12.3901400000,-48.9959700000,50.6654680600
1.6884000000,,,0.0,0.0,,,,,0.1211700000,0.0027500000,0.0218200000,0.1231496805,,,,
1.6959000000,,,0.0,0.0,,,,,0.0907300000,0.0028400000,-0.0839500000,0.1236430386,,,,
1.6962000000,,,0.0,0.0,0.9741500000,3.1372200000,9.5197800000,10.0706171012,,,,,,,,
1.6965000000,,,0.0,0.0,,,,,,,,,-3.5873400000,12.3901400000,-48.9959700000,50.6654680600
1.7054000000,,,0.0,0.0,0.9609800000,3.1312400000,9.6561700000,10.1965565544,,,,,,,,
1.7063000000,,,0.0,0.0,,,,,,,,,-3.5873400000,11.9400000000,-50.3463700000,51.8670375137
1.7067000000,,,0.0,0.0,,,,,0.0636900000,0.0201900000,-0.2055700000,0.2161552153,,,,
1.7166000000,,,0.0,0.0,0.9466200000,3.1276400000,9.7841800000,10.3154447149,,,,,,,,
1.7173000000,,,0.0,0.0,,,,,0.0361800000,0.0510900000,-0.3302300000,0.3361116383,,,,
1.7176000000,,,0.0,0.0,,,,,,,,,-3.2867400000,11.3403300000,-49.2965700000,50.6908034864
1.7251000000,,,0.0,0.0,0.9239000000,3.1109000000,9.8727300000,10.3924052881,,,,,,,,
1.7269000000,,,0.0,0.0,,,,,0.0082700000,0.0753900000,-0.4525000000,0.4588118296,,,,
1.7275000000,,,0.0,0.0,,,,,,,,,-2.8366100000,11.6394000000,-49.2965700000,50.7313887294
1.7362000000,,,0.0,0.0,0.9167200000,3.0773900000,9.8858800000,10.3942930565,,,,,,,,
1.7391000000,,,0.0,0.0,,,,,-0.0161000000,0.0779000000,-0.5338300000,0.5397240859,,,,
1.7396000000,,,0.0,0.0,,,,,,,,,-3.4378100000,12.2390700000,-48.8464400000,50.4736374034
1.7455000000,,,0.0,0.0,0.9502300000,3.0259600000,9.8380300000,10.3366438100,,,,,,,,
1.7468000000,,,0.0,0.0,,,,,,,,,-1.7868000000,12.3901400000,-47.7966300000,49.4087650404
1.7475000000,,,0.0,0.0,,,,,-0.0297100000,0.0749800000,-0.5539900000,0.5598299783,,,,
1.7559000000,,,0.0,0.0,0.9334700000,3.0582600000,9.7925600000,10.3013859175,,,,,,,,
1.7640000000,,,0.0,0.0,,,,,-0.0373400000,0.0795300000,-0.5386800000,0.5457979836,,,,
1.7644000000,,,0.0,0.0,,,,,,,,,-2.6870700000,13.2904100000,-48.3963000000,50.2598965065
1.7656000000,,,0.0,0.0,0.8688700000,3.0558600000,9.7064200000,10.2131192411,,,,,,,,
1.7668000000,,,0.0,0.0,,,,,,,,,-1.3366700000,11.6394000000,-47.7966300000,49.2115856116
1.7672000000,,,0.0,0.0,,,,,-0.0459900000,0.0924700000,-0.5142800000,0.5245471374,,,,
1.7760000000,,,0.0,0.0,0.8413500000,3.0953400000,9.6214800000,10.1420844469,,,,,,,,
1.7802000000,,,0.0,0.0,,,,,,,,,-2.6870700000,11.7904700000,-48.8464400000,50.3210714182
1.7805000000,,,0.0,0.0,,,,,-0.0531900000,0.1068300000,-0.4896900000,0.5040219451,,,,
1.7853000000,,,0.0,0.0,0.7767500000,3.1982300000,9.5700200000,10.1201432053,,,,,,,,
1.7894000000,,,0.0,0.0,,,,,-0.0590500000,0.1152800000,-0.4909700000,0.5077675864,,,,
1.7901000000,,,0.0,0.0,,,,,,,,,-2.3880000000,11.4898700000,-49.1455100000,50.5272283999
1.7961000000,,,0.0,0.0,0.7336700000,3.2173800000,9.5377200000,10.0924679109,,,,,,,,
1.7968000000,,,0.0,0.0,,,,,,,,,-1.1871300000,11.7904700000,-49.4461100000,50.8462609696
1.7982000000,,,0.0,0.0,,,,,-0.0657800000,0.1205100000,-0.5198500000,0.5376743354,,,,
1.8058000000,,,0.0,0.0,0.7683700000,3.1946400000,9.5389300000,10.0889693592,,,,,,,,
1.8077000000,,,0.0,0.0,,,,,-0.0660400000,0.1374200000,-0.4796400000,0.5032892484,,,,
1.8111000000,,,0.0,0.0,,,,,,,,,-0.8880600000,13.2904100000,-48.3963000000,50.1958713663
1.8161000000,,,0.0,0.0,0.8413500000,3.1779000000,9.5736200000,10.1223079452,,,,,,,,
1.8171000000,,,0.0,0.0,,,,,-0.0604400000,0.1683500000,-0.3676600000,0.4088625584,,,,
1.8237000000,,,0.0,0.0,,,,,,,,,-0.2868700000,10.5896000000,-48.9959700000,50.1281058768
1.8258000000,,,0.0,0.0,0.8999800000,3.1850700000,9.5915700000,10.1465683840,,,,,,,,
1.8267000000,,,0.0,0.0,,,,,,,,,-1.9378700000,12.2390700000,-50.1968400000,51.7037031613
1.8273000000,,,0.0,0.0,,,,,-0.0562600000,0.1887100000,-0.2536200000,0.3210915074,,,,
1.8365000000,,,0.0,0.0,0.9023600000,3.1767000000,9.6071200000,10.1588597369,,,,,,,,
1.8377000000,,,0.0,0.0,,,,,,,,,-1.3366700000,11.3403300000,-48.9959700000,50.3089937033
1.8381000000,,,0.0,0.0,,,,,-0.0574300000,0.1968500000,-0.1829500000,0.2748068957,,,,
1.8467000000,,,0.0,0.0,0.8927900000,3.1611500000,9.6238700000,10.1690125914,,,,,,,,
1.8484000000,,,0.0,0.0,,,,,-0.0655700000,0.1685200000,-0.2094900000,0.2767390023,,,,
1.8488000000,,,0.0,0.0,,,,,,,,,-3.2867400000,10.1394700000,-49.2965700000,50.4357346082
1.8563000000,,,0.0,0.0,0.9394500000,3.1479800000,9.6166800000,10.1623264367,,,,,,,,
1.8584000000,,,0.0,0.0,,,,,,,,,-0.8880600000,11.0397300000,-48.3963000000,49.6474182886
1.8602000000,,,0.0,0.0,,,,,-0.0695500000,0.1489700000,-0.1973600000,0.2568661772,,,,
1.8701000000,,,0.0,0.0,0.9765500000,3.1731100000,9.6250600000,10.1815547427,,,,,,,,
1.8707000000,,,0.0,0.0,,,,,-0.0711100000,0.1368300000,-0.1747300000,0.2330443175,,,,
1.8717000000,,,0.0,0.0,,,,,,,,,-1.7868000000,11.3403300000,-49.2965700000,50.6156848468
1.8766000000,,,0.0,0.0,0.9944900000,3.2114000000,9.6501900000,10.2190149895,,,,,,,,
1.8776000000,,,0.0,0.0,,,,,,,,,-1.7868000000,11.9400000000,-48.9959700000,50.4614836334
1.8787000000,,,0.0,0.0,,,,,-0.0737800000,0.1208000000,-0.1799200000,0.2289264834,,,,
1.8890000000,,,0.0,0.0,0.9813200000,3.2496800000,9.6848900000,10.2625778125,,,,,,,,
1.8902000000,,,0.0,0.0,,,,,-0.0783500000,0.0884100000,-0.2218300000,0.2513236947,,,,
1.8906000000,,,0.0,0.0,,,,,,,,,-3.4378100000,12.2390700000,-48.0957000000,49.7474595387
1.8969000000,,,0.0,0.0,0.9861100000,3.2819800000,9.7267600000,10.3127913656,,,,,,,,
1.8975000000,,,0.0,0.0,,,,,,,,,-1.3366700000,11.6394000000,-49.2965700000,50.6696569242
1.8992000000,,,0.0,0.0,,,,,-0.0771800000,0.0721400000,-0.1975100000,0.2239891339,,,,
1.9074000000,,,0.0,0.0,1.0255900000,3.2664300000,9.7686300000,10.3512091984,,,,,,,,
1.9095000000,,,0.0,0.0,,,,,,,,,-1.9378700000,11.4898700000,-48.3963000000,49.7792557844
1.9100000000,,,0.0,0.0,,,,,-0.0748900000,0.0584000000,-0.1465100000,0.1745974003,,,,
1.9181000000,,,0.0,0.0,,,,,-0.0738100000,0.0417600000,-0.1059600000,0.1357178518,,,,
1.9235000000,,,0.0,0.0,1.0842100000,3.1779000000,9.7626500000,10.3239476343,,,,,,,,
1.9239000000,,,0.0,0.0,,,,,,,,,-1.7868000000,11.9400000000,-48.9959700000,50.4614836334
1.9271000000,,,0.0,0.0,1.2696700000,3.1120900000,9.8284600000,10.3872899280,,,,,,,,
1.9283000000,,,0.0,0.0,,,,,-0.0693800000,0.0391800000,-0.0262900000,0.0839036406,,,,
1.9287000000,,,0.0,0.0,,,,,,,,,-0.1373300000,12.2390700000,-50.6454500000,52.1035056373
1.9383000000,,,0.0,0.0,1.3366500000,3.1790900000,9.9480900000,10.5289002796,,,,,,,,
1.9395000000,,,0.0,0.0,,,,,-0.0606500000,0.0444200000,0.0509900000,0.0908379821,,,,
1.9398000000,,,0.0,0.0,,,,,,,,,-0.8880600000,11.7904700000,-48.3963000000,49.8197319049
1.9489000000,,,0.0,0.0,1.1990800000,3.2484900000,10.0270500000,10.6081200893,,,,,,,,
1.9494000000,,,0.0,0.0,,,,,,,,,0.0122100000,11.6394000000,-48.9959700000,50.3595160589
1.9497000000,,,0.0,0.0,,,,,-0.0481400000,0.0605200000,0.1152200000,0.1387651916,,,,
1.9600000000,,,0.0,0.0,1.0459300000,3.2568500000,10.0306500000,10.5978762453,,,,,,,,
1.9642000000,,,0.0,0.0,,,,,,,,,-0.4379300000,11.4898700000,-48.8464400000,50.1815065136
1.9646000000,,,0.0,0.0,,,,,-0.0288400000,0.0744800000,0.2219700000,0.2359018798,,,,
1.9670000000,,,0.0,0.0,1.0650800000,3.2125900000,9.9839900000,10.5420674554,,,,,,,,
1.9682000000,,,0.0,0.0,,,,,,,,,-2.0874000000,10.5896000000,-48.2467700000,49.4393333526
1.9685000000,,,0.0,0.0,,,,,-0.0064800000,0.0811500000,0.3456600000,0.3551170913,,,,
1.9784000000,,,0.0,0.0,1.2242000000,3.1671300000,9.9421100000,10.5059473313,,,,,,,,
1.9789000000,,,0.0,0.0,,,,,,,,,-1.7868000000,11.3403300000,-47.7966300000,49.1560126343
1.9794000000,,,0.0,0.0,,,,,0.0126300000,0.0763100000,0.4592300000,0.4656983207,,,,
1.9897000000,,,0.0,0.0,1.4527100000,3.1443900000,9.9146000000,10.5022306191,,,,,,,,
1.9901000000,,,0.0,0.0,,,,,,,,,-1.0376000000,10.8902000000,-48.2467700000,49.4714451500
1.9908000000,,,0.0,0.0,,,,,0.0270200000,0.0502000000,0.5281500000,0.5312179806,,,,
1.9986000000,,,0.0,0.0,2.1322800000,3.3214600000,9.8392200000,10.6013661732,,,,,,,,
1.9990000000,,,0.0,0.0,,,,,,,,,-1.7868000000,11.6394000000,-48.9959700000,50.3912032287
1.9995000000,,,0.0,0.0,,,,,0.0523800000,-0.0028100000,0.6617900000,0.6638656224,,,,
2.0083000000,,,0.0,0.0,2.4852100000,3.4710100000,9.6860800000,10.5850991932,,,,,,,,
2.0087000000,,,0.0,0.0,,,,,0.0937800000,-0.0669100000,0.8511800000,0.8589406434,,,,
2.0103000000,,,0.0,0.0,,,,,,,,,-0.1373300000,9.9899300000,-48.8464400000,49.8577201806
2.0189000000,,,0.0,0.0,2.2710600000,3.5332300000,9.6298500000,10.5059715771,,,,,,,,
2.0202000000,,,0.0,0.0,,,,,0.1368900000,-0.1141700000,0.9602200000,0.9766248560,,,,
2.0208000000,,,0.0,0.0,,,,,,,,,-1.7868000000,10.8902000000,-46.7468300000,48.0318147203
2.0288000000,,,0.0,0.0,1.8965800000,3.5523700000,9.6262700000,10.4346261278,,,,,,,,
2.0307000000,,,0.0,0.0,,,,,,,,,0.3128100000,9.9899300000,-47.3465000000,48.3899536449
2.0309000000,,,0.0,0.0,,,,,0.1768500000,-0.1213800000,1.0132300000,1.0356853093,,,,
2.0412000000,,,0.0,0.0,,,,,0.1950200000,-0.1224500000,0.9433900000,0.9710877895,,,,
2.0416000000,,,0.0,0.0,1.5675700000,3.4686300000,9.6489900000,10.3726408307,,,,,,,,
2.0418000000,,,0.0,0.0,,,,,,,,,-0.8880600000,11.0397300000,-49.8962400000,51.1106550063
2.0502000000,,,0.0,0.0,1.4096400000,3.2963400000,9.7135900000,10.3540703597,,,,,,,,
2.0507000000,,,0.0,0.0,,,,,,,,,-0.2868700000,10.8902000000,-47.7966300000,49.0224090574
2.0524000000,,,0.0,0.0,,,,,0.1939700000,-0.1119100000,0.8441200000,0.8733194051,,,,
2.0615000000,,,0.0,0.0,1.3486300000,3.0857700000,9.8440100000,10.4041007420,,,,,,,,
2.0621000000,,,0.0,0.0,,,,,,,,,-0.1373300000,10.2905300000,-48.0957000000,49.1844510562
2.0626000000,,,0.0,0.0,,,,,0.1680100000,-0.1015500000,0.7287000000,0.7546810271,,,,
2.0688000000,,,0.0,0.0,1.3235000000,2.9027300000,10.0521900000,10.5462797943,,,,,,,,
2.0694000000,,,0.0,0.0,,,,,,,,,-0.7370000000,9.8403900000,-48.2467700000,49.2455811194
2.0702000000,,,0.0,0.0,,,,,0.1250500000,-0.0803400000,0.6432800000,0.6602281246,,,,
2.0791000000,,,0.0,0.0,1.2744400000,2.7603500000,10.3046300000,10.7437949009,,,,,,,,
2.0801000000,,,0.0,0.0,,,,,,,,,-0.1373300000,11.0397300000,-47.6455700000,48.9080242765
2.0806000000,,,0.0,0.0,,,,,0.0714400000,-0.0575100000,0.5671400000,0.5745074876,,,,
2.1042000000,,,0.0,0.0,,,,,,,,,0.0122100000,11.3403300000,-48.9959700000,50.2912349205
2.1048000000,,,0.0,0.0,1.1572000000,2.6012300000,10.5187800000,10.8972584645,,,,,,,,
2.1054000000,,,0.0,0.0,,,,,0.0267500000,-0.0253600000,0.5423600000,0.5436111310,,,,
2.1060000000,,,0.0,0.0,1.0567000000,2.4229600000,10.7161900000,11.0373945371,,,,,,,,
2.1072000000,,,0.0,0.0,,,,,,,,,-0.2868700000,11.9400000000,-48.5458400000,49.9934443273
2.1077000000,,,0.0,0.0,,,,,-0.0217600000,0.0058700000,0.4802900000,0.4808185090,,,,
2.1127000000,,,0.0,0.0,1.0016600000,2.2877700000,10.8729200000,11.1560568148,,,,,,,,
2.1135000000,,,0.0,0.0,,,,,,,,,-0.7370000000,11.9400000000,-46.7468300000,48.2532163078
2.1147000000,,,0.0,0.0,,,,,-0.0567500000,0.0309900000,0.3964100000,0.4016488898,,,,
2.1198000000,,,0.0,0.0,,,,,,,,,-1.6372700000,12.2390700000,-49.8962400000,51.4014615907
2.1202000000,,,0.0,0.0,1.0255900000,2.1848800000,11.0200800000,11.2812986251,,,,,,,,
2.1207000000,,,0.0,0.0,,,,,-0.1334800000,0.0518300000,0.3334700000,0.3629125242,,,,
2.1289000000,,,0.0,0.0,,,,,-0.2468000000,0.0909600000,0.3684200000,0.4526778744,,,,
2.1295000000,,,0.0,0.0,,,,,,,,,-0.7370000000,12.3901400000,-47.7966300000,49.3819458666
2.1297000000,,,0.0,0.0,1.0925900000,2.0963400000,11.0894800000,11.3386489925,,,,,,,,
2.1450000000,,,0.0,0.0,,,,,-0.3796700000,0.1079600000,0.3723000000,0.5425974203,,,,
2.1457000000,,,0.0,0.0,,,,,,,,,-1.1871300000,13.2904100000,-48.0957000000,49.9123294797
2.1459000000,,,0.0,0.0,1.1356700000,2.0054200000,11.0715300000,11.3088563642,,,,,,,,
2.1491000000,,,0.0,0.0,,,,,,,,,-0.7370000000,11.3403300000,-48.9959700000,50.2966333839
2.1495000000,,,0.0,0.0,1.1141400000,1.9204700000,10.9746100000,11.1969450125,,,,,,,,
2.1496000000,,,0.0,0.0,,,,,-0.4835200000,0.1226200000,0.3926700000,0.6348361865,,,,
2.1605000000,,,0.0,0.0,,,,,-0.5454700000,0.1308300000,0.4031800000,0.6908025204,,,,
2.1608000000,,,0.0,0.0,,,,,,,,,-0.7370000000,11.9400000000,-48.9959700000,50.4352242509
2.1610000000,,,0.0,0.0,1.0136300000,1.8319200000,10.8143000000,11.0151015044,,,,,,,,
2.1702000000,,,0.0,0.0,,,,,,,,,0.7629400000,12.3901400000,-46.7468300000,48.3669697388
2.1706000000,,,0.0,0.0,0.9059600000,1.7469900000,10.6252600000,10.8059653733,,,,,,,,
2.1710000000,,,0.0,0.0,,,,,-0.5759100000,0.1309100000,0.3906600000,0.7081136856,,,,
2.1802000000,,,0.0,0.0,,,,,-0.5862400000,0.1373900000,0.4137100000,0.7305541142,,,,
2.1808000000,,,0.0,0.0,,,,,,,,,1.0620100000,10.7391400000,-47.6455700000,48.8524035622
2.1810000000,,,0.0,0.0,0.7982800000,1.6859700000,10.4099100000,10.5757256019,,,,,,,,
2.1926000000,,,0.0,0.0,,,,,,,,,-0.4379300000,10.7391400000,-47.6455700000,48.8428219010
2.1928000000,,,0.0,0.0,0.6906000000,1.6632400000,10.1897700000,10.3476909652,,,,,,,,
2.1929000000,,,0.0,0.0,,,,,-0.5969400000,0.1280500000,0.3961300000,0.7277727276,,,,
2.2000000000,,,0.0,0.0,,,,,-0.6013600000,0.1201500000,0.3662900000,0.7143096221,,,,
2.2009000000,,,0.0,0.0,,,,,,,,,-0.1373300000,12.5396700000,-47.3465000000,48.9791102970
2.2011000000,,,0.0,0.0,0.5853100000,1.6512800000,9.9660500000,10.1188668356,,,,,,,,
2.2105000000,,,0.0,0.0,,,,,-0.5935400000,0.1279100000,0.3534100000,0.7025306597,,,,
2.2108000000,,,0.0,0.0,,,,,,,,,0.0122100000,10.8902000000,-47.7966300000,49.0215712160
2.2110000000,,,0.0,0.0,0.6008800000,1.7027100000,9.7447100000,9.9105827832,,,,,,,,
2.2207000000,,,0.0,0.0,,,,,,,,,-0.7370000000,11.6394000000,-47.7966300000,49.1989495896
2.2213000000,,,0.0,0.0,,,,,-0.5768100000,0.1440400000,0.3046600000,0.6680381825,,,,
2.2216000000,,,0.0,0.0,0.6834300000,1.8116000000,9.5891700000,9.7826965819,,,,,,,,
2.2301000000,,,0.0,0.0,,,,,,,,,-0.4379300000,10.2905300000,-47.3465000000,48.4538734532
2.2303000000,,,0.0,0.0,0.7623900000,1.9001300000,9.4539800000,9.6731313632,,,,,,,,
2.2305000000,,,0.0,0.0,,,,,-0.5571300000,0.1667600000,0.1927800000,0.6126719048,,,,
2.2432000000,,,0.0,0.0,,,,,,,,,0.3128100000,11.0397300000,-47.6455700000,48.9088318118
2.2436000000,,,0.0,0.0,0.8676800000,1.9575500000,9.3666400000,9.6082680788,,,,,,,,
2.2438000000,,,0.0,0.0,,,,,-0.5524300000,0.2175300000,0.0279100000,0.5943712425,,,,
2.2510000000,,,0.0,0.0,,,,,-0.5680400000,0.2832600000,-0.2068200000,0.6675928262,,,,
2.2512000000,,,0.0,0.0,,,,,,,,,1.0620100000,12.2390700000,-47.6455700000,49.2038925323
2.2514000000,,,0.0,0.0,0.9861100000,1.9886600000,9.3331500000,9.5934806223,,,,,,,,
2.2604000000,,,0.0,0.0,,,,,,,,,0.7629400000,10.1394700000,-47.1954300000,48.2783548002
2.2609000000,,,0.0,0.0,1.0650800000,2.0054200000,9.3522800000,9.6239932451,,,,,,,,
2.2618000000,,,0.0,0.0,,,,,-0.5809800000,0.3444700000,-0.3564000000,0.7636873060,,,,
2.2745000000,,,0.0,0.0,,,,,,,,,-0.4379300000,8.7890600000,-48.3963000000,49.1898486688
2.2751000000,,,0.0,0.0,1.1009700000,2.0101900000,9.4085100000,9.6836490641,,,,,,,,
2.2755000000,,,0.0,0.0,,,,,-0.5913400000,0.3492900000,-0.4576100000,0.8252838371,,,,
2.2823000000,,,0.0,0.0,,,,,-0.5809500000,0.3292200000,-0.3933700000,0.7750023663,,,,
2.2844000000,,,0.0,0.0,,,,,,,,,0.6134000000,9.2392000000,-46.5957600000,47.5068829348
2.2847000000,,,0.0,0.0,1.0973800000,1.9814800000,9.5006400000,9.7669169273,,,,,,,,
2.2921000000,,,0.0,0.0,,,,,,,,,1.0620100000,9.2392000000,-49.1455100000,50.0177152121
2.2952000000,,,0.0,0.0,,,,,-0.5541500000,0.2931200000,-0.2581500000,0.6779697481,,,,
2.2955000000,,,0.0,0.0,1.0890000000,1.9527700000,9.6119100000,9.8685381654,,,,,,,,
2.3012000000,,,0.0,0.0,,,,,,,,,0.6134000000,10.7391400000,-48.0957000000,49.2838893148
2.3021000000,,,0.0,0.0,,,,,-0.5232800000,0.2528800000,-0.1396600000,0.5977249940,,,,
2.3023000000,,,0.0,0.0,1.0543100000,1.9228500000,9.7076100000,9.9522165175,,,,,,,,
2.3105000000,,,0.0,0.0,,,,,,,,,0.6134000000,10.2905300000,-49.1455100000,50.2150616887
2.3113000000,,,0.0,0.0,0.9837200000,1.9037200000,9.7722200000,10.0044059596,,,,,,,,
2.3115000000,,,0.0,0.0,,,,,-0.4819500000,0.2193900000,-0.0288200000,0.5303191181,,,,
2.3211000000,,,0.0,0.0,,,,,,,,,0.0122100000,7.8903200000,-47.7966300000,48.4435252448
2.3221000000,,,0.0,0.0,0.9119400000,1.9252500000,9.8033300000,10.0321234649,,,,,,,,
2.3226000000,,,0.0,0.0,,,,,-0.4377900000,0.1871000000,0.0330700000,0.4772422016,,,,
2.3298000000,,,0.0,0.0,,,,,,,,,1.0620100000,9.5397900000,-48.8464400000,49.7806203171
2.3310000000,,,0.0,0.0,,,,,-0.3954300000,0.1675100000,0.0908100000,0.4389429816,,,,
2.3313000000,,,0.0,0.0,0.8593000000,1.9719100000,9.7937600000,10.0271910561,,,,,,,,
2.3449000000,,,0.0,0.0,,,,,-0.3205100000,0.1580200000,0.1984300000,0.4087437405,,,,
2.3461000000,,,0.0,0.0,,,,,,,,,2.8625500000,8.4899900000,-48.8464400000,49.6613413369
2.3465000000,,,0.0,0.0,0.8329800000,2.0401000000,9.7578600000,10.0035841312,,,,,,,,
2.3530000000,,,0.0,0.0,,,,,,,,,2.2628800000,9.0896600000,-46.7468300000,47.6760805841
2.3536000000,,,0.0,0.0,0.8413500000,2.1346300000,9.7183800000,9.9855608197,,,,,,,,
2.3540000000,,,0.0,0.0,,,,,-0.2309100000,0.1498600000,0.3003700000,0.4074304660,,,,
2.3627000000,,,0.0,0.0,,,,,-0.1423500000,0.1494300000,0.4157900000,0.4641919554,,,,
2.3632000000,,,0.0,0.0,,,,,,,,,2.1133400000,9.5397900000,-48.8464400000,49.8141395577
2.3636000000,,,0.0,0.0,0.8616800000,2.2231600000,9.6992500000,9.9880119829,,,,,,,,
2.3710000000,,,0.0,0.0,,,,,,,,,-0.1373300000,7.4401900000,-49.1455100000,49.7056982641
2.3715000000,,,0.0,0.0,0.8688700000,2.2913500000,9.7052300000,10.0098306306,,,,,,,,
2.3720000000,,,0.0,0.0,,,,,-0.0631700000,0.1387200000,0.4507800000,0.4758532292,,,,
2.3813000000,,,0.0,0.0,,,,,,,,,2.8625500000,9.2392000000,-46.5957600000,47.5890939094
2.3820000000,,,0.0,0.0,0.8317700000,2.3487900000,9.7315500000,10.0454826265,,,,,,,,
2.3822000000,,,0.0,0.0,,,,,0.0121200000,0.1423800000,0.5223200000,0.5415137498,,,,
2.3918000000,,,0.0,0.0,,,,,,,,,1.6632100000,10.2905300000,-48.0957000000,49.2123727702
2.3920000000,,,0.0,0.0,0.7324700000,2.3619400000,9.7518800000,10.0605385740,,,,,,,,
2.3922000000,,,0.0,0.0,,,,,0.0677200000,0.1389000000,0.5134400000,0.5361901174,,,,
2.4012000000,,,0.0,0.0,,,,,,,,,0.6134000000,9.5397900000,-48.0957000000,49.0365191596
2.4021000000,,,0.0,0.0,,,,,0.1000500000,0.1362800000,0.4586900000,0.4888545356,,,,
2.4023000000,,,0.0,0.0,0.6582900000,2.3763000000,9.7542700000,10.0611098119,,,,,,,,
2.4110000000,,,0.0,0.0,,,,,,,,,1.6632100000,8.4899900000,-47.6455700000,48.4246480455
2.4123000000,,,0.0,0.0,,,,,0.1052600000,0.1347500000,0.3861200000,0.4222864958,,,,
2.4127000000,,,0.0,0.0,0.6248000000,2.3930500000,9.7518800000,10.0606275588,,,,,,,,
2.4225000000,,,0.0,0.0,,,,,,,,,0.4623400000,8.6395300000,-48.2467700000,49.0163855494
2.4231000000,,,0.0,0.0,,,,,0.1183200000,0.1181000000,0.2338000000,0.2874189841,,,,
2.4236000000,,,0.0,0.0,0.6224100000,2.4133900000,9.7351400000,10.0491191813,,,,,,,,
2.4326000000,,,0.0,0.0,,,,,,,,,2.2628800000,8.3404500000,-46.7468300000,47.5389298065
2.4328000000,,,0.0,0.0,,,,,0.1666600000,0.1137400000,0.1693000000,0.2633910272,,,,
2.4331000000,,,0.0,0.0,0.6164200000,2.4193700000,9.7159900000,10.0316392725,,,,,,,,
2.4421000000,,,0.0,0.0,,,,,0.2378700000,0.1065100000,0.1293200000,0.2909470388,,,,
2.4424000000,,,0.0,0.0,,,,,,,,,1.5121500000,8.3404500000,-47.7966300000,48.5424303386
2.4426000000,,,0.0,0.0,0.5925000000,2.4265400000,9.6956500000,10.0122315966,,,,,,,,
2.4520000000,,,0.0,0.0,,,,,0.3076300000,0.0865500000,0.0585000000,0.3248836244,,,,
2.4526000000,,,0.0,0.0,,,,,,,,,0.3128100000,8.4899900000,-47.6455700000,48.3970879384
2.4538000000,,,0.0,0.0,0.6391600000,2.4803900000,9.6860800000,10.0190321800,,,,,,,,
2.4617000000,,,0.0,0.0,,,,,,,,,1.5121500000,8.3404500000,-46.4462300000,47.2133665929
2.4622000000,,,0.0,0.0,,,,,0.3633400000,0.0761600000,0.0526000000,0.3749440774,,,,
2.4627000000,,,0.0,0.0,0.6272000000,2.5473800000,9.5784000000,9.9311767311,,,,,,,,
2.4738000000,,,0.0,0.0,,,,,,,,,1.0620100000,8.7890600000,-48.3963000000,49.1993627460
2.4743000000,,,0.0,0.0,,,,,0.3891100000,0.0663800000,0.0433200000,0.3971013962,,,,
2.4747000000,,,0.0,0.0,0.5063500000,2.5366200000,9.4551700000,9.8026053208,,,,,,,,
2.4825000000,,,0.0,0.0,,,,,,,,,1.0620100000,7.7392600000,-47.6455700000,48.2817186025
2.4827000000,,,0.0,0.0,,,,,0.3829200000,0.0642200000,0.0344400000,0.3897923144,,,,
2.4829000000,,,0.0,0.0,0.3544000000,2.5019200000,9.2984500000,9.6356824070,,,,,,,,
2.4951000000,,,0.0,0.0,,,,,,,,,1.2130700000,9.3902600000,-47.4960300000,48.4305831831
2.4957000000,,,0.0,0.0,0.2574900000,2.4684300000,9.2111100000,9.5396014171,,,,,,,,
2.4962000000,,,0.0,0.0,,,,,0.3478400000,0.0677000000,-0.0086500000,0.3544725350,,,,
2.5022000000,,,0.0,0.0,,,,,0.3055300000,0.0885900000,-0.0659800000,0.3248847940,,,,
2.5027000000,,,0.0,0.0,,,,,,,,,2.2628800000,7.8903200000,-46.7468300000,47.4620257748
2.5035000000,,,0.0,0.0,0.2323800000,2.4157900000,9.1776100000,9.4930799586,,,,,,,,
2.5119000000,,,0.0,0.0,,,,,,,,,2.8625500000,8.1893900000,-48.0957000000,48.8718391261
2.5121000000,,,0.0,0.0,,,,,0.2610900000,0.1282500000,-0.1204200000,0.3148285676,,,,
2.5124000000,,,0.0,0.0,0.2467300000,2.3308400000,9.2254600000,9.5185504679,,,,,,,,
2.5228000000,,,0.0,0.0,,,,,0.2116700000,0.1580000000,-0.2610200000,0.3713483934,,,,
2.5237000000,,,0.0,0.0,,,,,,,,,1.0620100000,9.5397900000,-48.0957000000,49.0441822949
2.5239000000,,,0.0,0.0,0.2479200000,2.2387100000,9.3558700000,9.6231798407,,,,,,,,
2.5332000000,,,0.0,0.0,,,,,0.1626400000,0.1733100000,-0.4667800000,0.5238050153,,,,
2.5353000000,,,0.0,0.0,,,,,,,,,0.4623400000,9.8403900000,-46.7468300000,47.7735611890
2.5357000000,,,0.0,0.0,0.2323800000,2.1453900000,9.4791000000,9.7216272057,,,,,,,,
2.5425000000,,,0.0,0.0,,,,,0.1251400000,0.2037800000,-0.5547900000,0.6041342997,,,,
2.5476000000,,,0.0,0.0,,,,,,,,,2.8625500000,8.1893900000,-47.6455700000,48.4289236067
2.5481000000,,,0.0,0.0,0.1713600000,2.0807800000,9.5915700000,9.8161715920,,,,,,,,
2.5530000000,,,0.0,0.0,,,,,,,,,0.7629400000,9.3902600000,-48.2467700000,49.1580092736
2.5566000000,,,0.0,0.0,,,,,0.0920600000,0.2172200000,-0.6629800000,0.7037059417,,,,
2.5574000000,,,0.0,0.0,0.0624800000,2.0448900000,9.6298500000,9.8447696715,,,,,,,,
2.5627000000,,,0.0,0.0,,,,,,,,,1.3626100000,9.9899300000,-47.3465000000,48.4081240048
2.5633000000,,,0.0,0.0,,,,,0.0683300000,0.2264300000,-0.7258600000,0.7634214258,,,,
2.5639000000,,,0.0,0.0,-0.0452000000,2.0604400000,9.6154900000,9.8338753284,,,,,,,,
2.5780000000,,,0.0,0.0,,,,,0.0536000000,0.2318000000,-0.7407100000,0.7779816862,,,,
2.5786000000,,,0.0,0.0,,,,,,,,,2.2628800000,9.0896600000,-47.7966300000,48.7058557482
2.5789000000,,,0.0,0.0,-0.1098000000,2.0987200000,9.5425100000,9.7711912671,,,,,,,,
2.5825000000,,,0.0,0.0,,,,,0.0427700000,0.2213000000,-0.7933200000,0.8247178822,,,,
2.5838000000,,,0.0,0.0,,,,,,,,,2.4124100000,8.7890600000,-46.8963600000,47.7737990842
2.5842000000,,,0.0,0.0,-0.1433000000,2.1597400000,9.3989400000,9.6449512638,,,,,,,,
2.5923000000,,,0.0,0.0,,,,,,,,,1.9622800000,8.6395300000,-47.4960300000,48.3152655708
2.5927000000,,,0.0,0.0,,,,,0.0379900000,0.2082500000,-0.8412500000,0.8674749939,,,,
2.5939000000,,,0.0,0.0,-0.1421100000,2.2459000000,9.2290500000,9.4994539824,,,,,,,,
2.6027000000,,,0.0,0.0,,,,,,,,,2.1133400000,8.7890600000,-48.0957000000,48.9378191191
2.6040000000,,,0.0,0.0,,,,,0.0396300000,0.1976300000,-0.8705600000,0.8935898765,,,,
2.6044000000,,,0.0,0.0,-0.0894600000,2.3392000000,9.0017400000,9.3011387883,,,,,,,,
2.6125000000,,,0.0,0.0,,,,,0.0494400000,0.1986800000,-0.8349800000,0.8597148692,,,,
2.6141000000,,,0.0,0.0,,,,,,,,,2.2628800000,6.3903800000,-47.4960300000,47.9773951794
2.6146000000,,,0.0,0.0,-0.0128900000,2.4528700000,8.7756000000,9.1119642640,,,,,,,,
2.6233000000,,,0.0,0.0,,,,,0.0665700000,0.1950400000,-0.7846500000,0.8112630825,,,,
2.6249000000,,,0.0,0.0,,,,,,,,,3.7628200000,9.0896600000,-47.7966300000,48.7985509275
2.6255000000,,,0.0,0.0,0.0684700000,2.5521700000,8.6260700000,8.9959626219,,,,,,,,
2.6326000000,,,0.0,0.0,,,,,,,,,3.0120800000,9.0896600000,-47.1954300000,48.1570675782
2.6341000000,,,0.0,0.0,,,,,0.0904800000,0.1905700000,-0.7045000000,0.7354072377,,,,
2.6346000000,,,0.0,0.0,0.1940900000,2.6251500000,8.6200700000,9.0130289168,,,,,,,,
2.6434000000,,,0.0,0.0,,,,,0.1176000000,0.1762200000,-0.6029100000,0.6390490721,,,,
2.6441000000,,,0.0,0.0,,,,,,,,,1.5121500000,8.6395300000,-46.4462300000,47.2671170843
2.6453000000,,,0.0,0.0,0.3508100000,2.6419100000,8.7851900000,9.1805402586,,,,,,,,
2.6529000000,,,0.0,0.0,,,,,0.1413600000,0.1531700000,-0.4925100000,0.5347988394,,,,
2.6540000000,,,0.0,0.0,,,,,,,,,2.2628800000,10.1394700000,-48.5458400000,49.6450204863
2.6552000000,,,0.0,0.0,0.4118300000,2.6909500000,9.0603600000,9.4604936013,,,,,,,,
2.6641000000,,,0.0,0.0,,,,,0.1591300000,0.1379400000,-0.3501600000,0.4086096256,,,,
2.6646000000,,,0.0,0.0,,,,,,,,,2.2628800000,10.1394700000,-47.4960300000,48.6189504570
2.6650000000,,,0.0,0.0,0.5015700000,2.7136800000,9.3415200000,9.7406174095,,,,,,,,
2.6735000000,,,0.0,0.0,,,,,0.1671400000,0.1043700000,-0.3035000000,0.3618578816,,,,
2.6791000000,,,0.0,0.0,,,,,,,,,1.0620100000,9.2392000000,-48.0957000000,48.9866006207
2.6797000000,,,0.0,0.0,0.7312800000,2.7639300000,9.5999500000,10.0166421263,,,,,,,,
2.6835000000,,,0.0,0.0,,,,,0.1758100000,0.0906800000,-0.1709100000,0.2614235005,,,,
2.6848000000,,,0.0,0.0,,,,,,,,,3.6132800000,9.2392000000,-48.0957000000,49.1081965408
2.6852000000,,,0.0,0.0,0.8604900000,2.7806900000,9.7399100000,10.1655558984,,,,,,,,
2.6947000000,,,0.0,0.0,,,,,,,,,3.0120800000,8.6395300000,-47.7966300000,48.6644833930
2.6953000000,,,0.0,0.0,0.9382600000,2.8321400000,9.8057300000,10.2495702173,,,,,,,,
2.6957000000,,,0.0,0.0,,,,,0.1846500000,0.0879400000,-0.0018500000,0.2045299210,,,,
2.7047000000,,,0.0,0.0,,,,,0.1897600000,0.0641200000,0.0376700000,0.2038118272,,,,
2.7057000000,,,0.0,0.0,,,,,,,,,1.5121500000,10.1394700000,-47.1954300000,48.2960046214
2.7079000000,,,0.0,0.0,0.9155300000,2.8345200000,9.8320500000,10.2733590424,,,,,,,,
2.7166000000,,,0.0,0.0,,,,,0.1824500000,0.0448500000,0.0363800000,0.1913714435,,,,
2.7189000000,,,0.0,0.0,,,,,,,,,1.5121500000,9.8403900000,-47.4960300000,48.5282674195
2.7195000000,,,0.0,0.0,0.8820200000,2.8189700000,9.8428000000,10.2764421363,,,,,,,,
2.7247000000,,,0.0,0.0,,,,,,,,,2.2628800000,8.6395300000,-47.4960300000,48.3284074875
2.7257000000,,,0.0,0.0,,,,,0.1694200000,0.0322000000,0.0642700000,0.1840396949,,,,
2.7323000000,,,0.0,0.0,0.8246000000,2.8273500000,9.8081200000,10.2407563743,,,,,,,,
2.7342000000,,,0.0,0.0,,,,,0.1622200000,0.0097700000,0.1253500000,0.2052398689,,,,
2.7347000000,,,0.0,0.0,,,,,,,,,1.3626100000,8.7890600000,-46.8963600000,47.7323041864
2.7361000000,,,0.0,0.0,0.7695600000,2.8034200000,9.7770100000,10.2000642562,,,,,,,,
2.7453000000,,,0.0,0.0,,,,,,,,,2.4124100000,9.2392000000,-47.3465000000,48.2998302367
2.7458000000,,,0.0,0.0,,,,,0.1529500000,-0.0220200000,0.2163500000,0.2658682106,,,,
2.7461000000,,,0.0,0.0,0.6726500000,2.7878600000,9.7518800000,10.1648307874,,,,,,,,
2.7553000000,,,0.0,0.0,,,,,0.1365800000,-0.0600600000,0.2827300000,0.3196835199,,,,
2.7555000000,,,0.0,0.0,,,,,,,,,1.3626100000,9.5397900000,-46.8963600000,47.8762245849
2.7562000000,,,0.0,0.0,0.5733500000,2.8010300000,9.7435200000,10.1543429760,,,,,,,,
2.7639000000,,,0.0,0.0,,,,,,,,,0.0122100000,9.8403900000,-47.4960300000,48.5047037946
2.7643000000,,,0.0,0.0,,,,,0.1196300000,-0.0826600000,0.3277000000,0.3585126253,,,,
2.7656000000,,,0.0,0.0,0.4728500000,2.8046100000,9.7124000000,10.1202835007,,,,,,,,
2.7753000000,,,0.0,0.0,,,,,0.1115300000,-0.0824400000,0.3461200000,0.3728731003,,,,
2.7758000000,,,0.0,0.0,,,,,,,,,1.3626100000,7.4401900000,-47.6455700000,48.2422374468
2.7763000000,,,0.0,0.0,0.3771400000,2.7974400000,9.6454000000,10.0499575269,,,,,,,,
2.7844000000,,,0.0,0.0,,,,,0.1183200000,-0.0809200000,0.2898100000,0.3233226019,,,,
2.7874000000,,,0.0,0.0,,,,,,,,,0.4623400000,10.5896000000,-48.5458400000,49.6895559222
2.7885000000,,,0.0,0.0,0.3101300000,2.7974400000,9.6083200000,10.0120759282,,,,,,,,
2.8025000000,,,0.0,0.0,,,,,,,,,0.7629400000,10.5896000000,-47.1954300000,48.3748934726
2.8029000000,,,0.0,0.0,,,,,0.1438900000,-0.0817600000,0.2007000000,0.2601336574,,,,
2.8033000000,,,0.0,0.0,0.2754500000,2.8070100000,9.5903600000,9.9965085291,,,,,,,,
2.8036000000,,,0.0,0.0,,,,,0.1838400000,-0.0919800000,0.0961500000,0.2269411565,,,,
2.8041000000,,,0.0,0.0,,,,,,,,,0.0122100000,9.3902600000,-47.4960300000,48.4153900915
2.8093000000,,,0.0,0.0,0.2778300000,2.8237600000,9.6394200000,10.0483445394,,,,,,,,
2.8160000000,,,0.0,0.0,,,,,,,,,1.3626100000,9.2392000000,-46.5957600000,47.5224617695
2.8162000000,,,0.0,0.0,,,,,0.2271100000,-0.1087800000,-0.0003800000,0.2518177613,,,,
2.8165000000,,,0.0,0.0,0.3005700000,2.8596500000,9.7459000000,10.1612256769,,,,,,,,
2.8244000000,,,0.0,0.0,,,,,,,,,1.3626100000,9.5397900000,-47.3465000000,48.3172366915
2.8248000000,,,0.0,0.0,,,,,0.2640700000,-0.1264600000,-0.0670800000,0.3003744711,,,,
2.8253000000,,,0.0,0.0,0.3508100000,2.8907600000,9.9014300000,10.3207498312,,,,,,,,
2.8343000000,,,0.0,0.0,,,,,,,,,1.2130700000,7.8903200000,-48.2467700000,48.9027555866
2.8348000000,,,0.0,0.0,,,,,0.2849700000,-0.1338200000,-0.0688000000,0.3222563162,,,,
2.8361000000,,,0.0,0.0,0.3914900000,2.8728000000,10.0761100000,10.4849528846,,,,,,,,
2.8511000000,,,0.0,0.0,,,,,0.2789600000,-0.1340600000,-0.0246600000,0.3104816916,,,,
2.8516000000,,,0.0,0.0,,,,,,,,,1.5121500000,8.6395300000,-47.1954300000,48.0035070503
2.8518000000,,,0.0,0.0,0.4333600000,2.8417100000,10.2137000000,10.6105034896,,,,,,,,
2.8544000000,,,0.0,0.0,,,,,0.2457900000,-0.1334800000,0.0261400000,0.2809144605,,,,
2.8552000000,,,0.0,0.0,,,,,,,,,1.5121500000,7.8903200000,-46.4462300000,47.1359313957
2.8576000000,,,0.0,0.0,0.4704600000,2.7771000000,10.3225700000,10.6999564684,,,,,,,,
2.8653000000,,,0.0,0.0,,,,,,,,,1.3626100000,10.2905300000,-48.0957000000,49.2031307153
2.8660000000,,,0.0,0.0,,,,,0.1832600000,-0.1456000000,0.0174600000,0.2347092653,,,,
2.8663000000,,,0.0,0.0,0.4860100000,2.7364200000,10.3704200000,10.7363779327,,,,,,,,
2.8746000000,,,0.0,0.0,,,,,0.1040800000,-0.1578800000,-0.0142400000,0.1896352246,,,,
2.8754000000,,,0.0,0.0,,,,,,,,,0.3128100000,8.4899900000,-48.3963000000,49.1363372056
2.8782000000,,,0.0,0.0,0.5111400000,2.7148900000,10.3800000000,10.7413356624,,,,,,,,
2.8849000000,,,0.0,0.0,,,,,,,,,1.3626100000,10.2905300000,-48.0957000000,49.2031307153
2.8854000000,,,0.0,0.0,,,,,0.0258600000,-0.1371800000,0.0368500000,0.1443780264,,,,
2.8869000000,,,0.0,0.0,0.5410500000,2.7196700000,10.3608600000,10.7255190994,,,,,,,,
2.8962000000,,,0.0,0.0,,,,,-0.0416700000,-0.1223400000,0.0352600000,0.1339654138,,,,
2.8969000000,,,0.0,0.0,,,,,,,,,0.7629400000,9.8403900000,-46.4462300000,47.4833405945
2.8979000000,,,0.0,0.0,0.5865200000,2.7364200000,10.2998400000,10.6732705462,,,,,,,,
2.9052000000,,,0.0,0.0,,,,,-0.0834700000,-0.1051900000,0.0334800000,0.1383946798,,,,
2.9058000000,,,0.0,0.0,,,,,,,,,1.2130700000,7.8903200000,-48.5458400000,49.1978380606
2.9151000000,,,0.0,0.0,0.6307800000,2.7723100000,10.2292500000,10.6170213199,,,,,,,,
2.9160000000,,,0.0,0.0,,,,,-0.0977500000,-0.0927400000,0.0189500000,0.1360693669,,,,
2.9166000000,,,0.0,0.0,,,,,,,,,0.0122100000,9.8403900000,-47.4960300000,48.5047037946
2.9177000000,,,0.0,0.0,0.6451400000,2.8237600000,10.1299400000,10.5359152692,,,,,,,,
2.9245000000,,,0.0,0.0,,,,,,,,,0.6134000000,9.2392000000,-48.8464400000,49.7163330996
2.9254000000,,,0.0,0.0,,,,,-0.0964100000,-0.1010900000,-0.0804000000,0.1611776542,,,,
2.9281000000,,,0.0,0.0,0.6439400000,2.8704200000,10.0402200000,10.4623127151,,,,,,,,
2.9353000000,,,0.0,0.0,,,,,,,,,0.6134000000,9.9899300000,-47.6455700000,48.6854732091
2.9359000000,,,0.0,0.0,,,,,-0.0843800000,-0.1088700000,-0.1922800000,0.2365253891,,,,
2.9371000000,,,0.0,0.0,0.6020700000,2.9099000000,9.9816000000,10.4145256663,,,,,,,,
2.9449000000,,,0.0,0.0,,,,,-0.0632500000,-0.0896100000,-0.2059600000,0.2333453154,,,,
2.9458000000,,,0.0,0.0,,,,,,,,,1.2130700000,9.8403900000,-45.6955000000,46.7587802923
2.9515000000,,,0.0,0.0,0.5195200000,2.9422000000,9.9780100000,10.4157153106,,,,,,,,
2.9565000000,,,0.0,0.0,,,,,-0.0422700000,-0.0714700000,-0.1888000000,0.2062526456,,,,
2.9571000000,,,0.0,0.0,,,,,,,,,1.0620100000,10.2905300000,-45.5459600000,46.7060739652
2.9578000000,,,0.0,0.0,0.4094400000,2.9745000000,10.0545800000,10.4933250374,,,,,,,,
2.9654000000,,,0.0,0.0,,,,,,,,,0.3128100000,9.9899300000,-47.3465000000,48.3899536449
2.9661000000,,,0.0,0.0,,,,,-0.0278300000,-0.0682200000,-0.2397800000,0.2508444253,,,,
2.9674000000,,,0.0,0.0,0.3316800000,2.9876700000,10.1945500000,10.6285009928,,,,,,,,
2.9761000000,,,0.0,0.0,,,,,-0.0187400000,-0.0475500000,-0.3016200000,0.3059196210,,,,
2.9775000000,,,0.0,0.0,,,,,,,,,0.6134000000,9.2392000000,-46.5957600000,47.5068829348
2.9788000000,,,0.0,0.0,0.3029600000,2.9936500000,10.3417200000,10.7705569792,,,,,,,,
2.9858000000,,,0.0,0.0,,,,,,,,,1.6632100000,9.5397900000,-46.8963600000,47.8857227365
2.9865000000,,,0.0,0.0,,,,,-0.0149500000,-0.0194500000,-0.3965000000,0.3972581717,,,,
2.9878000000,,,0.0,0.0,0.3388500000,2.9697300000,10.5092200000,10.9260157699,,,,,,,,
2.9968000000,,,0.0,0.0,,,,,,,,,0.3128100000,9.2392000000,-46.5957600000,47.5039526431
2.9975000000,,,0.0,0.0,,,,,-0.0156400000,0.0058900000,-0.4912700000,0.4915541828,,,,
2.9989000000,,,0.0,0.0,0.4261900000,2.9613500000,10.6874800000,11.0983539540,,,,,,,,
3.0095000000,,,0.0,0.0,,,,,,,,,0.6134000000,9.5397900000,-47.3465000000,48.3019141966
3.0103000000,,,0.0,0.0,,,,,-0.0183400000,0.0301400000,-0.4877900000,0.4890642691,,,,
3.0119000000,,,0.0,0.0,0.5649700000,2.9565600000,10.8525800000,11.2622791117,,,,,,,,
3.0161000000,,,0.0,0.0,,,,,-0.0287200000,0.0178200000,-0.4636400000,0.4648703479,,,,
3.0164000000,,,0.0,0.0,,,,,,,,,-1.1871300000,8.7890600000,-48.0957000000,48.9065763657
3.0181000000,,,0.0,0.0,0.7779400000,2.9745000000,10.9662500000,11.3890947821,,,,,,,,
3.0317000000,,,0.0,0.0,,,,,-0.0429200000,-0.0029900000,-0.3550300000,0.3576274142,,,,
3.0321000000,,,0.0,0.0,,,,,,,,,-0.4379300000,8.4899900000,-47.6455700000,48.3980583651
3.0325000000,,,0.0,0.0,1.0136300000,2.9960300000,11.0045300000,11.4500358977,,,,,,,,
3.0366000000,,,0.0,0.0,,,,,-0.0590500000,-0.0218800000,-0.2135800000,0.2226702793,,,,
3.0382000000,,,0.0,0.0,,,,,,,,,0.6134000000,9.9899300000,-46.1456300000,47.2185782194
3.0413000000,,,0.0,0.0,1.2230100000,3.0355200000,10.9805900000,11.4579008496,,,,,,,,
3.0474000000,,,0.0,0.0,,,,,-0.0718200000,-0.0307800000,-0.0866900000,0.1167076557,,,,
3.0477000000,,,0.0,0.0,,,,,,,,,0.3128100000,10.2905300000,-48.3963000000,49.4792351544
3.0480000000,,,0.0,0.0,1.3534100000,3.0786000000,10.8860800000,11.3936927444,,,,,,,,
3.0573000000,,,0.0,0.0,,,,,-0.0783700000,-0.0407900000,-0.0841700000,0.1220256936,,,,
3.0577000000,,,0.0,0.0,,,,,,,,,-0.4379300000,10.7391400000,-47.3465000000,48.5511274110
3.0591000000,,,0.0,0.0,1.3929000000,3.0881700000,10.6946600000,11.2184097302,,,,,,,,
3.0659000000,,,0.0,0.0,,,,,,,,,0.4623400000,11.3403300000,-46.7468300000,48.1049161504
3.0663000000,,,0.0,0.0,,,,,-0.0717800000,-0.0551300000,-0.0555700000,0.1062059801,,,,
3.0678000000,,,0.0,0.0,1.3833200000,3.0474900000,10.4805000000,11.0018930086,,,,,,,,
3.0759000000,,,0.0,0.0,,,,,,,,,-1.9378700000,11.0397300000,-46.5957600000,47.9248977942
3.0762000000,,,0.0,0.0,,,,,-0.0516700000,-0.1218000000,0.0768300000,0.1529963326,,,,
3.0780000000,,,0.0,0.0,1.3582000000,2.9374100000,10.2531700000,10.7517710075,,,,,,,,
3.0864000000,,,0.0,0.0,,,,,,,,,-1.6372700000,10.7391400000,-46.8963600000,48.1381175602
3.0866000000,,,0.0,0.0,,,,,-0.0236100000,-0.2096900000,0.2620800000,0.3364717739,,,,
3.0885000000,,,0.0,0.0,1.3223100000,2.7782900000,10.0569600000,10.5171214456,,,,,,,,
3.1005000000,,,0.0,0.0,,,,,,,,,0.6134000000,11.0397300000,-46.8963600000,48.1821593464
3.1009000000,,,0.0,0.0,1.2445400000,2.5844700000,9.9157900000,10.3223667982,,,,,,,,
3.1030000000,,,0.0,0.0,,,,,0.0068200000,-0.2603100000,0.4789100000,0.5451262208,,,,
3.1064000000,,,0.0,0.0,,,,,0.0263500000,-0.2824900000,0.5831100000,0.6484691162,,,,
3.1071000000,,,0.0,0.0,,,,,,,,,0.0122100000,10.8902000000,-46.7468300000,47.9985699805
3.1104000000,,,0.0,0.0,1.0818300000,2.3846700000,9.8787100000,10.2198785913,,,,,,,,
3.1161000000,,,0.0,0.0,,,,,0.0308400000,-0.2713900000,0.5782800000,0.6395399879,,,,
3.1173000000,,,0.0,0.0,,,,,,,,,-0.1373300000,10.7391400000,-47.6455700000,48.8410516686
3.1188000000,,,0.0,0.0,0.9083400000,2.1896500000,9.9696400000,10.2476031543,,,,,,,,
3.1280000000,,,0.0,0.0,,,,,0.0224200000,-0.2433600000,0.4745000000,0.5337386964,,,,
3.1287000000,,,0.0,0.0,,,,,,,,,-0.2868700000,11.6394000000,-46.7468300000,48.1749316741
3.1291000000,,,0.0,0.0,0.7731500000,2.0054200000,10.1586600000,10.3835371283,,,,,,,,
3.1371000000,,,0.0,0.0,,,,,,,,,-1.3366700000,11.3403300000,-47.7966300000,49.1417094794
3.1373000000,,,0.0,0.0,,,,,0.0125400000,-0.2138800000,0.3238400000,0.3882966026,,,,
3.1394000000,,,0.0,0.0,0.7288800000,1.8762100000,10.4075200000,10.6003727561,,,,,,,,
3.1468000000,,,0.0,0.0,,,,,,,,,-0.4379300000,12.2390700000,-46.8963600000,48.4691159234
3.1473000000,,,0.0,0.0,,,,,-0.0258200000,-0.1873200000,0.1758600000,0.2582289573,,,,
3.1492000000,,,0.0,0.0,0.7408400000,1.8175800000,10.6240700000,10.8038559934,,,,,,,,
3.1584000000,,,0.0,0.0,,,,,,,,,-1.3366700000,11.9400000000,-46.4462300000,47.9750202491
3.1588000000,,,0.0,0.0,,,,,-0.1014700000,-0.1578500000,0.0857200000,0.2063024522,,,,
3.1594000000,,,0.0,0.0,0.7863200000,1.7924500000,10.7796000000,10.9558638320,,,,,,,,
3.1668000000,,,0.0,0.0,,,,,,,,,-1.0376000000,11.9400000000,-47.7966300000,49.2763437475
3.1672000000,,,0.0,0.0,,,,,-0.2075200000,-0.1325700000,0.0322700000,0.2483560110,,,,
3.1764000000,,,0.0,0.0,0.8401500000,1.8295400000,10.8394200000,11.0247945364,,,,,,,,
3.1780000000,,,0.0,0.0,,,,,,,,,0.3128100000,11.4898700000,-47.3465000000,48.7217202587
3.1782000000,,,0.0,0.0,,,,,-0.3132500000,-0.1046000000,0.0341000000,0.3320083320,,,,
3.1844000000,,,0.0,0.0,0.9215100000,1.9204700000,10.7712200000,10.9798254080,,,,,,,,
3.1874000000,,,0.0,0.0,,,,,-0.3895100000,-0.0974100000,-0.0033100000,0.4015192452,,,,
3.1876000000,,,0.0,0.0,,,,,,,,,-1.7868000000,10.8902000000,-48.5458400000,49.7844121346
3.1923000000,,,0.0,0.0,1.0148300000,2.0568500000,10.5355400000,10.7823056413,,,,,,,,
3.2322000000,,,0.0,0.0,,,,,,,,,-0.4379300000,9.9899300000,-47.6455700000,48.6835785940
3.2324000000,,,0.0,0.0,,,,,-0.4127800000,-0.0942500000,-0.0181400000,0.4237917537,,,,
3.2326000000,,,0.0,0.0,1.0973800000,2.2231600000,10.2137000000,10.5102973764,,,,,,,,
3.2328000000,,,0.0,0.0,,,,,,,,,-0.8880600000,10.2905300000,-48.3963000000,49.4862153729
3.2334000000,,,0.0,0.0,,,,,-0.4002200000,-0.0923300000,-0.0069300000,0.4107905819,,,,
3.2337000000,,,0.0,0.0,1.1476300000,2.4050100000,9.8727300000,10.2260415298,,,,,,,,
3.2340000000,,,0.0,0.0,,,,,,,,,-3.4378100000,11.7904700000,-46.8963600000,48.4778537238
3.2341000000,,,0.0,0.0,,,,,-0.3700600000,-0.1228000000,-0.0443700000,0.3924193427,,,,
3.2343000000,,,0.0,0.0,1.1859100000,2.5880600000,9.5568700000,9.9718705010,,,,,,,,
3.2344000000,,,0.0,0.0,,,,,,,,,-1.6372700000,10.7391400000,-48.0957000000,49.3072625430
3.2345000000,,,0.0,0.0,,,,,-0.3140600000,-0.1681800000,-0.0183900000,0.3567301334,,,,
3.2349000000,,,0.0,0.0,1.2086500000,2.7591600000,9.2948600000,9.7707840600,,,,,,,,
3.2369000000,,,0.0,0.0,,,,,-0.2345300000,-0.2050200000,0.1185300000,0.3332969880,,,,
3.2396000000,,,0.0,0.0,,,,,,,,,-1.1871300000,9.9899300000,-47.6455700000,48.6960811531
3.2400000000,,,0.0,0.0,1.2265900000,2.8799900000,9.1094100000,9.6322487497,,,,,,,,
3.2485000000,,,0.0,0.0,,,,,,,,,-0.4379300000,9.5397900000,-48.0957000000,49.0346381084
3.2488000000,,,0.0,0.0,,,,,-0.1539800000,-0.2287400000,0.2762900000,0.3903434284,,,,
3.2501000000,,,0.0,0.0,1.2337600000,2.9434100000,9.0232700000,9.5710619922,,,,,,,,
3.2570000000,,,0.0,0.0,,,,,-0.0913200000,-0.2289400000,0.3972300000,0.4674874746,,,,
3.2585000000,,,0.0,0.0,,,,,,,,,-1.1871300000,10.2905300000,-46.8963600000,48.0267932155
3.2606000000,,,0.0,0.0,1.2206100000,2.9446000000,9.0053300000,9.5528281855,,,,,,,,
3.2671000000,,,0.0,0.0,,,,,-0.0468900000,-0.2168400000,0.4194300000,0.4744889699,,,,
3.2676000000,,,0.0,0.0,,,,,,,,,-1.1871300000,10.7391400000,-48.8464400000,50.0271237055
3.2701000000,,,0.0,0.0,1.1942900000,2.9063100000,9.0519900000,9.5818312123,,,,,,,,
3.2776000000,,,0.0,0.0,,,,,,,,,0.0122100000,9.3902600000,-47.1954300000,48.1205335053
3.2780000000,,,0.0,0.0,,,,,0.0159500000,-0.2001300000,0.3902300000,0.4388460690,,,,
3.2810000000,,,0.0,0.0,1.1440400000,2.8321400000,9.1429100000,9.6396394004,,,,,,,,
3.2879000000,,,0.0,0.0,,,,,,,,,-1.9378700000,11.0397300000,-46.5957600000,47.9248977942
3.2884000000,,,0.0,0.0,,,,,0.0863000000,-0.1953300000,0.2793600000,0.3516297890,,,,
3.2908000000,,,0.0,0.0,1.0830200000,2.7376100000,9.2422200000,9.6997974907,,,,,,,,
3.2988000000,,,0.0,0.0,,,,,,,,,-1.6372700000,10.2905300000,-48.8464400000,49.9454738831
3.2992000000,,,0.0,0.0,,,,,0.1428200000,-0.1816900000,0.1695100000,0.2866050394,,,,
3.3006000000,,,0.0,0.0,1.0303800000,2.6478900000,9.3104100000,9.7343073079,,,,,,,,
3.3124000000,,,0.0,0.0,,,,,,,,,-1.7868000000,9.0896600000,-48.5458400000,49.4217882564
3.3137000000,,,0.0,0.0,,,,,0.1592400000,-0.1652800000,0.0554500000,0.2361134441,,,,
3.3139000000,,,0.0,0.0,0.9944900000,2.5581500000,9.3654500000,9.7593440090,,,,,,,,
3.3190000000,,,0.0,0.0,,,,,,,,,-1.7868000000,11.3403300000,-47.4960300000,48.8637759952
3.3195000000,,,0.0,0.0,,,,,0.1379700000,-0.1338000000,0.0102800000,0.1924677617,,,,
3.3211000000,,,0.0,0.0,0.9909100000,2.4899600000,9.3738300000,9.7493842010,,,,,,,,
3.3280000000,,,0.0,0.0,,,,,,,,,-1.9378700000,9.5397900000,-47.3465000000,48.3368802844
3.3294000000,,,0.0,0.0,,,,,0.0920100000,-0.1051300000,0.0083000000,0.1399537316,,,,
3.3319000000,,,0.0,0.0,0.9968900000,2.4385100000,9.3642400000,9.7277495583,,,,,,,,
3.3386000000,,,0.0,0.0,,,,,,,,,-1.0376000000,10.8902000000,-46.4462300000,47.7171389651
3.3390000000,,,0.0,0.0,,,,,0.0313400000,-0.0873700000,-0.0436400000,0.1025678415,,,,
3.3413000000,,,0.0,0.0,0.9909100000,2.3822800000,9.3259600000,9.6762952905,,,,,,,,
3.3480000000,,,0.0,0.0,,,,,,,,,-2.8366100000,9.8403900000,-46.7468300000,47.8554672602
3.3484000000,,,0.0,0.0,,,,,-0.0317100000,-0.0744600000,-0.1690100000,0.1873878219,,,,
3.3515000000,,,0.0,0.0,0.9633800000,2.3129000000,9.2912600000,9.6231553984,,,,,,,,
3.3582000000,,,0.0,0.0,,,,,,,,,-2.0874000000,9.3902600000,-47.4960300000,48.4603661500
3.3601000000,,,0.0,0.0,,,,,-0.0719600000,-0.0599800000,-0.2778500000,0.2932174355,,,,
3.3631000000,,,0.0,0.0,0.9358700000,2.2578600000,9.2829000000,9.5992716831,,,,,,,,
3.3681000000,,,0.0,0.0,,,,,-0.0817300000,-0.0547900000,-0.3639700000,0.3770356719,,,,
3.3692000000,,,0.0,0.0,,,,,,,,,-2.9876700000,10.2905300000,-48.3963000000,49.5683672658
3.3720000000,,,0.0,0.0,0.9250900000,2.2088000000,9.3140000000,9.6169218021,,,,,,,,
3.3783000000,,,0.0,0.0,,,,,-0.0544900000,-0.0483600000,-0.3471700000,0.3547320941,,,,
3.3823000000,,,0.0,0.0,,,,,,,,,-2.6870700000,7.7392600000,-48.0957000000,48.7884499551
3.3829000000,,,0.0,0.0,0.9203000000,2.1956500000,9.3558700000,9.6540216733,,,,,,,,
3.4026000000,,,0.0,0.0,,,,,,,,,-1.3366700000,9.8403900000,-48.2467700000,49.2582051792
3.4033000000,,,0.0,0.0,0.9418500000,2.2267500000,9.4025300000,9.7084018966,,,,,,,,
3.4038000000,,,0.0,0.0,,,,,,,,,-3.5873400000,9.3902600000,-47.7966300000,48.8422340859
3.4042000000,,,0.0,0.0,0.9729500000,2.2722200000,9.4396200000,9.7578707296,,,,,,,,
3.4045000000,,,0.0,0.0,,,,,-0.0059200000,-0.0481900000,-0.2800400000,0.2842177406,,,,
3.4049000000,,,0.0,0.0,,,,,0.0432300000,-0.0622700000,-0.2370100000,0.2488375492,,,,
3.4181000000,,,0.0,0.0,,,,,0.0871900000,-0.0721900000,-0.1773400000,0.2103876608,,,,
3.4186000000,,,0.0,0.0,,,,,,,,,-2.0874000000,8.6395300000,-45.9960900000,46.8469744239
3.4189000000,,,0.0,0.0,1.0172300000,2.3212600000,9.4503900000,9.7843178614,,,,,,,,
3.4193000000,,,0.0,0.0,,,,,,,,,-4.3380700000,10.5896000000,-48.9959700000,50.3146455391
3.4197000000,,,0.0,0.0,,,,,0.1031600000,-0.1048100000,-0.2252200000,0.2689817282,,,,
3.4215000000,,,0.0,0.0,1.1117400000,2.3870700000,9.4372300000,9.7977231582,,,,,,,,
3.4343000000,,,0.0,0.0,,,,,,,,,-0.7370000000,8.6395300000,-46.4462300000,47.2486711859
3.4347000000,,,0.0,0.0,,,,,0.1308300000,-0.1000800000,-0.1560800000,0.2269217083,,,,
3.4351000000,,,0.0,0.0,1.2409500000,2.4756000000,9.4049200000,9.8041354779,,,,,,,,
3.4377000000,,,0.0,0.0,,,,,0.1666300000,-0.1153300000,-0.2108000000,0.2924093121,,,,
3.4384000000,,,0.0,0.0,,,,,,,,,-4.1870100000,8.7890600000,-48.0957000000,49.0711217206
3.4435000000,,,0.0,0.0,1.3677700000,2.5677200000,9.3187900000,9.7623679420,,,,,,,,
3.4489000000,,,0.0,0.0,,,,,,,,,-2.0874000000,8.6395300000,-48.2467700000,49.0586336216
3.4491000000,,,0.0,0.0,,,,,0.2115000000,-0.1215400000,-0.2289700000,0.3345616274,,,,
3.4521000000,,,0.0,0.0,1.4383500000,2.6526600000,9.2087100000,9.6905002793,,,,,,,,
3.4594000000,,,0.0,0.0,,,,,0.2485700000,-0.1104900000,-0.1401400000,0.3059972297,,,,
3.4596000000,,,0.0,0.0,,,,,,,,,-2.6870700000,8.4899900000,-47.3465000000,48.1766679798
3.4631000000,,,0.0,0.0,1.4407500000,2.7220600000,9.0639500000,9.5729076465,,,,,,,,
3.4693000000,,,0.0,0.0,,,,,0.2511900000,-0.1127200000,-0.0740800000,0.2851141191,,,,
3.4697000000,,,0.0,0.0,,,,,,,,,-2.9876700000,9.5397900000,-48.0957000000,49.1236208332
3.4722000000,,,0.0,0.0,1.3905000000,2.7938500000,8.9227800000,9.4527821831,,,,,,,,
3.4796000000,,,0.0,0.0,,,,,,,,,-2.6870700000,8.4899900000,-47.6455700000,48.4706160061
3.4798000000,,,0.0,0.0,,,,,0.2278900000,-0.1198600000,-0.0227700000,0.2584932196,,,,
3.4832000000,,,0.0,0.0,1.3115400000,2.8500800000,8.7756000000,9.3195626795,,,,,,,,
3.4897000000,,,0.0,0.0,,,,,0.1850000000,-0.1373700000,-0.0424500000,0.2343021967,,,,
3.4905000000,,,0.0,0.0,,,,,,,,,-2.9876700000,11.0397300000,-49.1455100000,50.4587253472
3.4939000000,,,0.0,0.0,1.1907000000,2.8919500000,8.6595600000,9.2070147543,,,,,,,,
3.5008000000,,,0.0,0.0,,,,,,,,,-4.1870100000,8.7890600000,-46.8963600000,47.8962128949
3.5021000000,,,0.0,0.0,,,,,0.1376600000,-0.1481200000,-0.1019600000,0.2264633560,,,,
3.5040000000,,,0.0,0.0,1.0758500000,2.9338200000,8.5817900000,9.1330100525,,,,,,,,
3.5108000000,,,0.0,0.0,,,,,0.1016800000,-0.1455700000,-0.1668500000,0.2436562534,,,,
3.5112000000,,,0.0,0.0,,,,,,,,,-2.9876700000,10.2905300000,-48.0957000000,49.2749179421
3.5149000000,,,0.0,0.0,0.9765500000,2.9804800000,8.5279500000,9.0864097495,,,,,,,,
3.5233000000,,,0.0,0.0,,,,,0.0816300000,-0.1282200000,-0.2070300000,0.2568370032,,,,
3.5238000000,,,0.0,0.0,,,,,,,,,-1.3366700000,9.0896600000,-48.9959700000,49.8499115530
3.5242000000,,,0.0,0.0,0.8939800000,3.0426900000,8.5136000000,9.0850727920,,,,,,,,
3.5315000000,,,0.0,0.0,,,,,,,,,-2.8366100000,9.8403900000,-45.6955000000,46.8290332155
3.5320000000,,,0.0,0.0,,,,,0.0779000000,-0.1066000000,-0.2237400000,0.2597913732,,,,
3.5355000000,,,0.0,0.0,0.9083400000,3.1037100000,8.5722200000,9.1619350057,,,,,,,,
3.5389000000,,,0.0,0.0,,,,,,,,,-1.3366700000,8.3404500000,-47.7966300000,48.5372808493
3.5390000000,,,0.0,0.0,,,,,0.0921000000,-0.0798300000,-0.1845700000,0.2211816534,,,,
3.5441000000,,,0.0,0.0,1.0076400000,3.1479800000,8.6356400000,9.2465882713,,,,,,,,
3.5504000000,,,0.0,0.0,,,,,,,,,-2.9876700000,8.1893900000,-46.8963600000,47.6996945677
3.5506000000,,,0.0,0.0,,,,,0.1117400000,-0.0719900000,-0.1744200000,0.2192959737,,,,
3.5540000000,,,0.0,0.0,1.1141400000,3.1432000000,8.6882800000,9.3063002067,,,,,,,,
3.5633000000,,,0.0,0.0,,,,,0.1430700000,-0.0703600000,-0.1647500000,0.2292642951,,,,
3.5636000000,,,0.0,0.0,,,,,,,,,-2.6870700000,10.2905300000,-47.3465000000,48.5263476383
3.5655000000,,,0.0,0.0,1.1368600000,3.1312400000,8.7827900000,9.3933228828,,,,,,,,
3.5699000000,,,0.0,0.0,,,,,,,,,-1.6372700000,9.9899300000,-48.0957000000,49.1495240358
3.5701000000,,,0.0,0.0,,,,,0.1866800000,-0.0621200000,-0.1353600000,0.2388109009,,,,
3.5733000000,,,0.0,0.0,1.0938000000,3.1180700000,8.9203800000,9.5127250727,,,,,,,,
3.5815000000,,,0.0,0.0,,,,,0.2312200000,-0.0649900000,-0.1523700000,0.2844345362,,,,
3.5817000000,,,0.0,0.0,,,,,,,,,-2.8366100000,8.6395300000,-48.2467700000,49.0962182897
3.5837000000,,,0.0,0.0,1.0578900000,3.1073000000,9.0699300000,9.6456246427,,,,,,,,
3.5901000000,,,0.0,0.0,,,,,,,,,-3.5873400000,10.5896000000,-46.7468300000,48.0653175531
3.5908000000,,,0.0,0.0,,,,,0.2751500000,-0.0686600000,-0.1770800000,0.3343337322,,,,
3.5935000000,,,0.0,0.0,1.0866100000,3.0845800000,9.2422200000,9.8037740486,,,,,,,,
3.5999000000,,,0.0,0.0,,,,,0.3139000000,-0.0651900000,-0.1812100000,0.3682662219,,,,
3.6004000000,,,0.0,0.0,,,,,,,,,-1.7868000000,10.5896000000,-47.4960300000,48.6950218006
3.6038000000,,,0.0,0.0,1.1763500000,3.0510700000,9.3750200000,9.9289388893,,,,,,,,
3.6105000000,,,0.0,0.0,,,,,0.3421600000,-0.0494500000,-0.1506700000,0.3771209580,,,,
3.6108000000,,,0.0,0.0,,,,,,,,,-1.0376000000,9.0896600000,-48.2467700000,49.1065102416
3.6136000000,,,0.0,0.0,1.2481200000,3.0127900000,9.4814900000,10.0266325224,,,,,,,,
3.6203000000,,,0.0,0.0,,,,,0.3522000000,-0.0437600000,-0.1232800000,0.3757096432,,,,
3.6207000000,,,0.0,0.0,,,,,,,,,-2.3880000000,9.9899300000,-46.8963600000,48.0080183579
3.6243000000,,,0.0,0.0,1.2672700000,2.9769000000,9.5688300000,10.1010105649,,,,,,,,
3.6313000000,,,0.0,0.0,,,,,,,,,-3.2867400000,9.0896600000,-47.1954300000,48.1750266386
3.6315000000,,,0.0,0.0,,,,,0.3486300000,-0.0500600000,-0.0846900000,0.3622447744,,,,
3.6345000000,,,0.0,0.0,1.2170300000,2.9446000000,9.6681400000,10.1796248576,,,,,,,,
3.6408000000,,,0.0,0.0,,,,,,,,,-1.9378700000,10.2905300000,-48.0957000000,49.2224207685
3.6414000000,,,0.0,0.0,,,,,0.3397400000,-0.0565000000,-0.0139300000,0.3446876303,,,,
3.6504000000,,,0.0,0.0,1.1584000000,2.9278400000,9.7841800000,10.2783420792,,,,,,,,
3.6508000000,,,0.0,0.0,,,,,0.3258800000,-0.0648300000,0.0455000000,0.3353668936,,,,
3.6514000000,,,0.0,0.0,,,,,,,,,-0.7370000000,10.1394700000,-48.2467700000,49.3062149867
3.6555000000,,,0.0,0.0,1.1153300000,2.9027300000,9.9050300000,10.3816868457,,,,,,,,
3.6624000000,,,0.0,0.0,,,,,0.3037600000,-0.0533900000,0.1190200000,0.3305849212,,,,
3.6628000000,,,0.0,0.0,,,,,,,,,-1.0376000000,10.1394700000,-48.2467700000,49.3116241983
3.6663000000,,,0.0,0.0,1.0997800000,2.8799900000,9.9887700000,10.4536780399,,,,,,,,
3.6702000000,,,0.0,0.0,,,,,0.2630000000,-0.0388200000,0.1372500000,0.2991881597,,,,
3.6709000000,,,0.0,0.0,,,,,,,,,-2.9876700000,9.5397900000,-46.5957600000,47.6560448973
3.6766000000,,,0.0,0.0,1.1201200000,2.8883700000,10.0378300000,10.5050169529,,,,,,,,
3.6800000000,,,0.0,0.0,,,,,,,,,-1.6372700000,9.9899300000,-48.0957000000,49.1495240358
3.6804000000,,,0.0,0.0,,,,,0.2173500000,-0.0010400000,0.1729600000,0.2777719671,,,,
3.6848000000,,,0.0,0.0,1.1380600000,2.9051100000,10.0593600000,10.5321207876,,,,,,,,
3.6906000000,,,0.0,0.0,,,,,0.1572600000,0.0176800000,0.1171700000,0.1969063201,,,,
3.6912000000,,,0.0,0.0,,,,,,,,,-1.9378700000,11.0397300000,-46.8963600000,48.2172122780
3.6952000000,,,0.0,0.0,1.1787400000,2.9242600000,10.0749200000,10.5567389634,,,,,,,,
3.7015000000,,,0.0,0.0,,,,,,,,,-1.1871300000,10.2905300000,-48.0957000000,49.1985837582
3.7019000000,,,0.0,0.0,,,,,0.1004200000,0.0390800000,0.0755900000,0.1316254949,,,,
3.7052000000,,,0.0,0.0,1.2361600000,2.9302400000,10.0797000000,10.5695198611,,,,,,,,
3.7121000000,,,0.0,0.0,,,,,,,,,-1.9378700000,9.9899300000,-48.8464400000,49.8951775447
3.7124000000,,,0.0,0.0,,,,,0.0540800000,0.0608700000,0.0650500000,0.1042175887,,,,
3.7154000000,,,0.0,0.0,1.2912000000,2.9314300000,10.0629600000,10.5604755218,,,,,,,,
3.7210000000,,,0.0,0.0,,,,,0.0124100000,0.0753000000,0.0710000000,0.1042357813,,,,
3.7218000000,,,0.0,0.0,,,,,,,,,-1.3366700000,9.0896600000,-46.7468300000,47.6411032686
3.7263000000,,,0.0,0.0,1.3558000000,2.9481800000,10.0378300000,10.5493123028,,,,,,,,
3.7320000000,,,0.0,0.0,,,,,-0.0221700000,0.0880000000,0.0938000000,0.1305141713,,,,
3.7325000000,,,0.0,0.0,,,,,,,,,-1.6372700000,9.5397900000,-47.3465000000,48.3257623690
3.7355000000,,,0.0,0.0,1.4060500000,2.9625400000,9.9792000000,10.5041921391,,,,,,,,
3.7409000000,,,0.0,0.0,,,,,,,,,-2.8366100000,10.8902000000,-47.4960300000,48.8110200477
3.7416000000,,,0.0,0.0,,,,,-0.0524000000,0.0932000000,0.0958600000,0.1436006253,,,,
3.7450000000,,,0.0,0.0,1.4479200000,3.0020300000,9.9086200000,10.4541573908,,,,,,,,
3.7516000000,,,0.0,0.0,,,,,-0.0668800000,0.1114500000,0.1562300000,0.2032285654,,,,
3.7524000000,,,0.0,0.0,,,,,,,,,-0.1373300000,8.4899900000,-47.3465000000,48.1018695269
3.7562000000,,,0.0,0.0,1.4742400000,3.0367100000,9.8392200000,10.4021748404,,,,,,,,
3.7611000000,,,0.0,0.0,,,,,-0.0858300000,0.0965100000,0.1209000000,0.1769117831,,,,
3.7615000000,,,0.0,0.0,,,,,,,,,-1.7868000000,9.8403900000,-47.4960300000,48.5376018706
3.7650000000,,,0.0,0.0,1.5041700000,3.0833700000,9.7542700000,10.3399942543,,,,,,,,
3.7706000000,,,0.0,0.0,,,,,,,,,-0.2868700000,11.3403300000,-48.2467700000,49.5624474208
3.7711000000,,,0.0,0.0,,,,,-0.0904400000,0.1042500000,0.1547200000,0.2073300135,,,,
3.7815000000,,,0.0,0.0,1.5161300000,3.1324300000,9.6705300000,10.2776416732,,,,,,,,
3.7821000000,,,0.0,0.0,,,,,,,,,-1.1871300000,9.9899300000,-46.5957600000,47.6694118804
3.7822000000,,,0.0,0.0,,,,,-0.0899500000,0.0823500000,0.1745100000,0.2128996597,,,,
3.7857000000,,,0.0,0.0,1.5723600000,3.1922500000,9.5903600000,10.2292610174,,,,,,,,
3.7914000000,,,0.0,0.0,,,,,,,,,-1.3366700000,10.1394700000,-47.7966300000,48.8785574452
3.7920000000,,,0.0,0.0,,,,,-0.0759700000,0.0572800000,0.2743400000,0.2903702376,,,,
3.7957000000,,,0.0,0.0,1.6608900000,3.2616400000,9.5090200000,10.1891271678,,,,,,,,
3.8036000000,,,0.0,0.0,,,,,,,,,-0.7370000000,8.3404500000,-47.1954300000,47.9323991480
3.8048000000,,,0.0,0.0,,,,,-0.0492100000,0.0325300000,0.4358400000,0.4398139727,,,,
3.8062000000,,,0.0,0.0,1.7960800000,3.3142900000,9.4551700000,10.1789322279,,,,,,,,
3.8148000000,,,0.0,0.0,,,,,,,,,-0.7370000000,7.1395900000,-47.1954300000,47.7380930416
3.8170000000,,,0.0,0.0,,,,,-0.0195500000,-0.0016000000,0.5833700000,0.5836996825,,,,
3.8174000000,,,0.0,0.0,1.9037600000,3.3501700000,9.4467900000,10.2024400253,,,,,,,,
3.8208000000,,,0.0,0.0,,,,,,,,,-1.1871300000,8.4899900000,-46.5957600000,47.3777802120
3.8214000000,,,0.0,0.0,,,,,0.0143600000,-0.0314900000,0.7240400000,0.7248667128,,,,
3.8279000000,,,0.0,0.0,1.9276900000,3.3334400000,9.4814900000,10.2335948518,,,,,,,,
3.8311000000,,,0.0,0.0,,,,,0.0479400000,-0.0535900000,0.8313600000,0.8344636489,,,,
3.8318000000,,,0.0,0.0,,,,,,,,,-1.9378700000,10.2905300000,-48.3963000000,49.5161812089
3.8357000000,,,0.0,0.0,1.8487200000,3.3011300000,9.5257600000,10.2496501644,,,,,,,,
3.8413000000,,,0.0,0.0,,,,,0.0740100000,-0.0693500000,0.8506200000,0.8566453683,,,,
3.8423000000,,,0.0,0.0,,,,,,,,,-1.0376000000,10.8902000000,-45.9960900000,47.2791007221
3.8457000000,,,0.0,0.0,1.7195100000,3.2676200000,9.5461000000,10.2353348902,,,,,,,,
3.8516000000,,,0.0,0.0,,,,,,,,,-1.1871300000,8.7890600000,-47.6455700000,48.4639783132
3.8518000000,,,0.0,0.0,,,,,0.0889600000,-0.0799000000,0.7631700000,0.7724806409,,,,
3.8562000000,,,0.0,0.0,1.5615800000,3.2161900000,9.5556800000,10.2026188047,,,,,,,,
3.8615000000,,,0.0,0.0,,,,,0.1163200000,-0.0392500000,0.7485200000,0.7585203328,,,,
3.8629000000,,,0.0,0.0,,,,,,,,,2.1133400000,9.2392000000,-47.6455700000,48.5791041830
3.8666000000,,,0.0,0.0,1.4000700000,3.1551700000,9.5556800000,10.1600351375,,,,,,,,
3.8716000000,,,0.0,0.0,,,,,0.1337000000,-0.0063000000,0.6699200000,0.6831604397,,,,
3.8722000000,,,0.0,0.0,,,,,,,,,-1.6372700000,8.7890600000,-47.3465000000,48.1831847327
3.8778000000,,,0.0,0.0,1.2553100000,3.1132800000,9.5449100000,10.1179850990,,,,,,,,
3.8823000000,,,0.0,0.0,,,,,0.1371800000,0.0035400000,0.5285000000,0.5460248474,,,,
3.8829000000,,,0.0,0.0,,,,,,,,,-1.7868000000,9.3902600000,-46.7468300000,47.7141043315
3.8868000000,,,0.0,0.0,1.1261000000,3.0857700000,9.5473000000,10.0965843231,,,,,,,,
3.8917000000,,,0.0,0.0,,,,,,,,,-0.1373300000,9.9899300000,-46.1456300000,47.2147935401
3.8924000000,,,0.0,0.0,,,,,0.1334100000,0.0085800000,0.3953700000,0.4173598943,,,,
3.8969000000,,,0.0,0.0,1.0758500000,3.0714100000,9.5664400000,10.1048397753,,,,,,,,
3.9032000000,,,0.0,0.0,,,,,,,,,-1.0376000000,8.3404500000,-46.7468300000,47.4963770725
3.9038000000,,,0.0,0.0,,,,,0.1230000000,0.0092800000,0.2843600000,0.3099608491,,,,
3.9106000000,,,0.0,0.0,1.0782300000,3.0271500000,9.7351400000,10.2517885208,,,,,,,,
3.9113000000,,,0.0,0.0,,,,,,,,,-1.0376000000,10.8902000000,-47.4960300000,48.7395725829
3.9156000000,,,0.0,0.0,,,,,0.1146500000,0.0191700000,0.2362700000,0.2633165857,,,,
3.9161000000,,,0.0,0.0,1.0220000000,3.0367100000,10.1622500000,10.6553937837,,,,,,,,
3.9222000000,,,0.0,0.0,,,,,0.1071600000,0.0243400000,0.1942100000,0.2231439564,,,,
3.9225000000,,,0.0,0.0,,,,,,,,,-0.8880600000,10.2905300000,-47.3465000000,48.4600321966
3.9293000000,,,0.0,0.0,0.9191100000,3.1120900000,10.3931600000,10.8879585849,,,,,,,,
3.9340000000,,,0.0,0.0,,,,,0.1069000000,0.0373500000,0.1928300000,0.2236203063,,,,
3.9348000000,,,0.0,0.0,,,,,,,,,-0.4379300000,8.7890600000,-48.0957000000,48.8941276316
3.9380000000,,,0.0,0.0,1.0327800000,3.1228600000,10.0820900000,10.6050661420,,,,,,,,
3.9423000000,,,0.0,0.0,,,,,0.1027200000,0.0394600000,0.1601700000,0.1943268353,,,,
3.9427000000,,,0.0,0.0,,,,,,,,,-0.8880600000,9.5397900000,-48.3963000000,49.3355662529
3.9493000000,,,0.0,0.0,1.2816300000,3.1013200000,9.6454000000,10.2124679857,,,,,,,,
3.9526000000,,,0.0,0.0,,,,,,,,,0.4623400000,9.8403900000,-45.9960900000,47.0392105473
3.9535000000,,,0.0,0.0,,,,,0.1052900000,0.0491800000,0.1628700000,0.2000782182,,,,
3.9569000000,,,0.0,0.0,1.5173200000,3.1240500000,9.2912600000,9.9191461715,,,,,,,,
3.9649000000,,,0.0,0.0,,,,,,,,,-2.3880000000,8.4899900000,-47.3465000000,48.1609129528
3.9653000000,,,0.0,0.0,,,,,0.1128200000,0.0319200000,0.1266600000,0.1725977821,,,,
3.9685000000,,,0.0,0.0,1.6573000000,3.1719100000,8.9574700000,9.6459279045,,,,,,,,
3.9720000000,,,0.0,0.0,,,,,,,,,-1.7868000000,9.3902600000,-48.9959700000,49.9196826247
3.9722000000,,,0.0,0.0,,,,,0.1343700000,0.0093800000,0.1127500000,0.1756583155,,,,
3.9778000000,,,0.0,0.0,1.7099500000,3.1898700000,8.7624500000,9.4804920559,,,,,,,,
3.9828000000,,,0.0,0.0,,,,,0.1662000000,0.0016600000,0.1544200000,0.2268716201,,,,
3.9835000000,,,0.0,0.0,,,,,,,,,-1.3366700000,8.3404500000,-48.2467700000,48.9806146177
3.9872000000,,,0.0,0.0,1.6010700000,3.2078100000,8.9072100000,9.6016592381,,,,,,,,
3.9940000000,,,0.0,0.0,,,,,,,,,-0.4379300000,8.7890600000,-47.6455700000,48.4514158616
3.9942000000,,,0.0,0.0,,,,,0.1818500000,-0.0127600000,0.1499600000,0.2360513539,,,,
3.9976000000,41.406368,2.175568,0.0,0.0,,,,,,,,,,,,
3.9981000000,41.406368,2.175568,0.0,0.0,1.3617900000,3.2317400000,9.2805000000,9.9210027559,,,,,,,,
4.0024000000,,,0.0,0.0,,,,,0.1843400000,-0.0092200000,0.1569500000,0.2422798929,,,,
4.0031000000,,,0.0,0.0,,,,,,,,,-0.4379300000,8.4899900000,-47.3465000000,48.1036669614
4.0073000000,,,0.0,0.0,1.0985700000,3.2173800000,9.6322500000,10.2146282444,,,,,,,,
4.0155000000,,,0.0,0.0,,,,,0.1719800000,0.0062400000,0.1667600000,0.2396350467,,,,
4.0157000000,,,0.0,0.0,,,,,,,,,0.6134000000,7.4401900000,-46.5957600000,47.1900152233
4.0177000000,,,0.0,0.0,0.9430400000,3.1312400000,9.8152900000,10.3457192192,,,,,,,,
4.0220000000,,,0.0,0.0,,,,,0.1409000000,0.0216500000,0.1560400000,0.2113528190,,,,
4.0222000000,,,0.0,0.0,,,,,,,,,-0.7370000000,7.8903200000,-47.7966300000,48.4491295903
4.0274000000,,,0.0,0.0,0.9442400000,3.0654300000,9.8487900000,10.3579493495,,,,,,,,
4.0323000000,,,0.0,0.0,,,,,0.1031600000,0.0438200000,0.1390100000,0.1785663969,,,,
4.0335000000,,,0.0,0.0,,,,,,,,,-0.1373300000,7.7392600000,-46.8963600000,47.5308698229
4.0378000000,,,0.0,0.0,1.0435300000,3.0510700000,9.8571600000,10.3711902052,,,,,,,,
4.0431000000,,,0.0,0.0,,,,,,,,,0.6134000000,8.1893900000,-46.5957600000,47.3139220326
4.0441000000,,,0.0,0.0,,,,,0.0602900000,0.0701900000,0.0767700000,0.1202295850,,,,
4.0488000000,,,0.0,0.0,1.2110400000,3.0881700000,9.8272600000,10.3720032269,,,,,,,,
4.0521000000,,,0.0,0.0,,,,,,,,,-1.3366700000,8.3404500000,-47.1954300000,47.9453689711
4.0529000000,,,0.0,0.0,,,,,0.0147900000,0.0912600000,-0.0615100000,0.1110432880,,,,
4.0582000000,,,0.0,0.0,1.3546100000,3.1432000000,9.7782000000,10.3599164925,,,,,,,,
4.0654000000,,,0.0,0.0,,,,,,,,,0.3128100000,9.9899300000,-48.3963000000,49.4175920618
4.0666000000,,,0.0,0.0,,,,,-0.0186800000,0.1206400000,-0.1877900000,0.2239822227,,,,
4.0686000000,,,0.0,0.0,1.4012600000,3.1898700000,9.7016300000,10.3082697317,,,,,,,,
4.0732000000,,,0.0,0.0,,,,,,,,,0.3128100000,9.9899300000,-47.3465000000,48.3899536449
4.0735000000,,,0.0,0.0,,,,,-0.0313300000,0.1573000000,-0.2513600000,0.2981722799,,,,
4.0788000000,,,0.0,0.0,1.3940900000,3.1886600000,9.6071200000,10.2180132226,,,,,,,,
4.0833000000,,,0.0,0.0,,,,,,,,,-1.9378700000,8.7890600000,-46.8963600000,47.7521884008
4.0842000000,,,0.0,0.0,,,,,-0.0443100000,0.1577900000,-0.3331100000,0.3712456495,,,,
4.0889000000,,,0.0,0.0,1.3510100000,3.1432000000,9.4731100000,10.0719783227,,,,,,,,
4.0953000000,,,0.0,0.0,,,,,-0.0587800000,0.1500200000,-0.3372000000,0.3737177127,,,,
4.0961000000,,,0.0,0.0,,,,,,,,,-0.7370000000,8.3404500000,-46.4462300000,47.1948996865
4.0988000000,,,0.0,0.0,1.2720500000,3.0953400000,9.3690300000,9.9487669617,,,,,,,,
4.1044000000,,,0.0,0.0,,,,,-0.0832700000,0.1047700000,-0.3737200000,0.3969600537,,,,
4.1052000000,,,0.0,0.0,,,,,,,,,-1.9378700000,9.9899300000,-46.8963600000,47.9877340869
4.1117000000,,,0.0,0.0,1.1524200000,3.0690200000,9.2996400000,9.8605405403,,,,,,,,
4.1148000000,,,0.0,0.0,,,,,-0.0925400000,0.0835100000,-0.3319400000,0.3545726093,,,,
4.1154000000,,,0.0,0.0,,,,,,,,,-1.0376000000,8.6395300000,-46.7468300000,47.5498076487
4.1196000000,,,0.0,0.0,1.0267900000,3.0546600000,9.2446000000,9.7901927754,,,,,,,,
4.1239000000,,,0.0,0.0,,,,,-0.0898600000,0.0729700000,-0.2708000000,0.2945031078,,,,
4.1244000000,,,0.0,0.0,,,,,,,,,-0.2868700000,9.0896600000,-46.4462300000,47.3281786521
4.1305000000,,,0.0,0.0,0.9203000000,3.0295400000,9.2517900000,9.7785828680,,,,,,,,
4.1373000000,,,0.0,0.0,,,,,-0.0820300000,0.0648200000,-0.2204300000,0.2439670843,,,,
4.1378000000,,,0.0,0.0,,,,,,,,,-0.4379300000,7.7392600000,-46.5957600000,47.2361384748
4.1385000000,,,0.0,0.0,0.8377500000,3.0163700000,9.2924700000,9.8056265348,,,,,,,,
4.1436000000,,,0.0,0.0,,,,,,,,,1.3626100000,8.7890600000,-47.6455700000,48.4685941855
4.1440000000,,,0.0,0.0,,,,,-0.0728100000,0.0634500000,-0.1776900000,0.2022397950,,,,
4.1504000000,,,0.0,0.0,0.7647700000,2.9924500000,9.3678300000,9.8638668414,,,,,,,,
4.1536000000,,,0.0,0.0,,,,,-0.0549000000,0.0660400000,-0.1388200000,0.1632368953,,,,
4.1540000000,,,0.0,0.0,,,,,,,,,0.6134000000,7.4401900000,-45.8465600000,46.4504009738
4.1605000000,,,0.0,0.0,0.7336700000,2.9649400000,9.4623600000,9.9431080474,,,,,,,,
4.1634000000,,,0.0,0.0,,,,,,,,,-0.2868700000,9.8403900000,-45.9960900000,47.0378131405
4.1638000000,,,0.0,0.0,,,,,-0.0304600000,0.0641900000,-0.1140600000,0.1343795048,,,,
4.1684000000,,,0.0,0.0,0.7408400000,2.9350300000,9.5688300000,10.0362220270,,,,,,,,
4.1732000000,,,0.0,0.0,,,,,,,,,-1.3366700000,9.8403900000,-47.1954300000,48.2289184507
4.1736000000,,,0.0,0.0,,,,,-0.0014600000,0.0519400000,-0.0959000000,0.1090720184,,,,
4.1795000000,,,0.0,0.0,0.7887100000,2.9290500000,9.6825000000,10.1465365331,,,,,,,,
4.1846000000,,,0.0,0.0,,,,,,,,,0.0122100000,9.8403900000,-47.4960300000,48.5047037946
4.1848000000,,,0.0,0.0,,,,,0.0202500000,0.0527200000,-0.0564600000,0.0798573259,,,,
4.1897000000,,,0.0,0.0,0.8437300000,2.9374100000,9.7782000000,10.2446792561,,,,,,,,
4.1940000000,,,0.0,0.0,,,,,0.0087100000,0.0552200000,-0.0890000000,0.1051004876,,,,
4.1947000000,,,0.0,0.0,,,,,,,,,-1.1871300000,9.9899300000,-47.3465000000,48.4035023660
4.1994000000,,,0.0,0.0,0.8939800000,2.9410100000,9.8583700000,10.3264804807,,,,,,,,
4.2045000000,,,0.0,0.0,,,,,,,,,-1.1871300000,8.7890600000,-47.3465000000,48.1699897817
4.2047000000,,,0.0,0.0,,,,,-0.0205400000,0.0792100000,-0.1299600000,0.1535764217,,,,
4.2113000000,,,0.0,0.0,0.9167200000,2.9457900000,9.9026300000,10.3720844192,,,,,,,,
4.2132000000,,,0.0,0.0,,,,,,,,,0.4623400000,8.6395300000,-47.4960300000,48.2776149230
4.2145000000,,,0.0,0.0,,,,,-0.0507500000,0.1219800000,-0.1471100000,0.1977271731,,,,
4.2201000000,,,0.0,0.0,0.9406400000,2.9565600000,9.8930700000,10.3681668904,,,,,,,,
4.2244000000,,,0.0,0.0,,,,,,,,,-1.0376000000,9.0896600000,-47.1954300000,48.0739757619
4.2246000000,,,0.0,0.0,,,,,-0.0825000000,0.1397700000,-0.2314000000,0.2826444107,,,,
4.2315000000,,,0.0,0.0,0.9717600000,2.9936500000,9.8487900000,10.3394836566,,,,,,,,
4.2359000000,,,0.0,0.0,,,,,,,,,-0.2868700000,10.1394700000,-46.7468300000,47.8346868008
4.2361000000,,,0.0,0.0,,,,,-0.0992300000,0.1422900000,-0.3041400000,0.3501345122,,,,
4.2398000000,,,0.0,0.0,0.9992700000,3.0271500000,9.7746100000,10.2813023644,,,,,,,,
4.2448000000,,,0.0,0.0,,,,,,,,,-0.4379300000,8.7890600000,-46.8963600000,47.7148607838
4.2462000000,,,0.0,0.0,,,,,-0.1123500000,0.1328400000,-0.3354200000,0.3778565396,,,,
4.2548000000,,,0.0,0.0,1.0220000000,3.0498800000,9.7052300000,10.2243699741,,,,,,,,
4.2556000000,,,0.0,0.0,,,,,,,,,-0.2868700000,9.0896600000,-45.9960900000,46.8865066794
4.2558000000,,,0.0,0.0,,,,,-0.1369300000,0.1108700000,-0.3352200000,0.3787009773,,,,
4.2618000000,,,0.0,0.0,1.0459300000,3.0642400000,9.6489900000,10.1777475093,,,,,,,,
4.2664000000,,,0.0,0.0,,,,,,,,,-0.4379300000,9.5397900000,-46.1456300000,47.1234394333
4.2666000000,,,0.0,0.0,,,,,-0.1477700000,0.0877100000,-0.2804000000,0.3288665033,,,,
4.2703000000,,,0.0,0.0,1.0567000000,3.0869600000,9.6035300000,10.1426685538,,,,,,,,
4.2743000000,,,0.0,0.0,,,,,,,,,-1.1871300000,8.7890600000,-46.5957600000,47.4322854530
4.2747000000,,,0.0,0.0,,,,,-0.1357000000,0.0583600000,-0.2259500000,0.2699514440,,,,
4.2821000000,,,0.0,0.0,1.0471300000,3.1037100000,9.5820000000,10.1264120497,,,,,,,,
4.2840000000,,,0.0,0.0,,,,,-0.1086000000,0.0337400000,-0.1827900000,0.2152778012,,,,
4.2844000000,,,0.0,0.0,,,,,,,,,0.0122100000,10.1394700000,-45.9960900000,47.1004171558
4.2898000000,,,0.0,0.0,1.0220000000,3.0941500000,9.5796100000,10.1186548501,,,,,,,,
4.2946000000,,,0.0,0.0,,,,,,,,,-0.7370000000,9.0896600000,-47.1954300000,48.0684272761
4.2951000000,,,0.0,0.0,,,,,-0.0816500000,0.0205700000,-0.1540500000,0.1755598186,,,,
4.3007000000,,,0.0,0.0,1.0004700000,3.0786000000,9.6011400000,10.1321570991,,,,,,,,
4.3049000000,,,0.0,0.0,,,,,,,,,-0.7370000000,9.0896600000,-45.6955000000,46.5966072602
4.3055000000,,,0.0,0.0,,,,,-0.0646200000,0.0169700000,-0.1529100000,0.1668687910,,,,
4.3117000000,,,0.0,0.0,1.0040600000,3.0726200000,9.6238700000,10.1522413252,,,,,,,,
4.3147000000,,,0.0,0.0,,,,,,,,,0.4623400000,9.3902600000,-47.1954300000,48.1227529764
4.3157000000,,,0.0,0.0,,,,,-0.0594200000,0.0206900000,-0.1757500000,0.1866731770,,,,
4.3211000000,,,0.0,0.0,1.0351700000,3.0558600000,9.6561700000,10.1809369086,,,,,,,,
4.3248000000,,,0.0,0.0,,,,,,,,,-0.1373300000,9.5397900000,-47.6455700000,48.5914271595
4.3294000000,,,0.0,0.0,,,,,-0.0593900000,0.0327600000,-0.1952700000,0.2067142051,,,,
4.3338000000,,,0.0,0.0,1.0901900000,3.0534700000,9.6812900000,10.2097781240,,,,,,,,
4.3348000000,,,0.0,0.0,,,,,,,,,-0.7370000000,9.0896600000,-45.9960900000,46.8914212112
4.3351000000,,,0.0,0.0,,,,,-0.0601800000,0.0412900000,-0.2215700000,0.2332804351,,,,
4.3413000000,,,0.0,0.0,1.1607800000,3.0391100000,9.7112100000,10.2416404675,,,,,,,,
4.3456000000,,,0.0,0.0,,,,,-0.0573900000,0.0462800000,-0.2149400000,0.2272325991,,,,
4.3458000000,,,0.0,0.0,,,,,,,,,-0.1373300000,8.7890600000,-46.8963600000,47.7130487022
4.3511000000,,,0.0,0.0,1.2277800000,3.0163700000,9.7411200000,10.2710929584,,,,,,,,
4.3551000000,,,0.0,0.0,,,,,-0.0475500000,0.0473200000,-0.1427300000,0.1577087119,,,,
4.3553000000,,,0.0,0.0,,,,,,,,,0.4623400000,9.3902600000,-47.1954300000,48.1227529764
4.3635000000,,,0.0,0.0,1.2636900000,3.0151800000,9.7339300000,10.2682820420,,,,,,,,
4.3685000000,,,0.0,0.0,,,,,-0.0350200000,0.0440200000,-0.0388900000,0.0683856191,,,,
4.3688000000,,,0.0,0.0,,,,,,,,,-0.4379300000,8.4899900000,-45.8465600000,46.6280899965
4.3716000000,,,0.0,0.0,1.2720500000,3.0199700000,9.6789100000,10.2185923097,,,,,,,,
4.3762000000,,,0.0,0.0,,,,,,,,,-1.7868000000,10.5896000000,-46.7468300000,47.9645535521
4.3767000000,,,0.0,0.0,,,,,-0.0374500000,0.0285000000,0.0234400000,0.0525755276,,,,
4.3819000000,,,0.0,0.0,1.2481200000,3.0726200000,9.5999500000,10.1566646691,,,,,,,,
4.3848000000,,,0.0,0.0,,,,,,,,,0.4623400000,9.3902600000,-46.4462300000,47.3882160706
4.3852000000,,,0.0,0.0,,,,,-0.0459600000,0.0103900000,0.0450700000,0.0652041302,,,,
4.3916000000,,,0.0,0.0,1.2445400000,3.1420000000,9.4814900000,10.0657685465,,,,,,,,
4.3951000000,,,0.0,0.0,,,,,-0.0505500000,-0.0100400000,0.0109400000,0.0526857448,,,,
4.3962000000,,,0.0,0.0,,,,,,,,,-0.8880600000,9.9899300000,-47.6455700000,48.6897082821
4.4015000000,,,0.0,0.0,1.2493300000,3.1982300000,9.3510900000,9.9615453003,,,,,,,,
4.4059000000,,,0.0,0.0,,,,,-0.0431200000,-0.0094800000,0.0132900000,0.0461067121,,,,
4.4063000000,,,0.0,0.0,,,,,,,,,1.2130700000,9.8403900000,-45.9960900000,47.0525781383
4.4120000000,,,0.0,0.0,1.2397500000,3.2568500000,9.2362400000,9.8717871392,,,,,,,,
4.4155000000,,,0.0,0.0,,,,,-0.0159800000,-0.0257100000,0.1126400000,0.1166367614,,,,
4.4162000000,,,0.0,0.0,,,,,,,,,-0.7370000000,10.1394700000,-46.4462300000,47.5458126662
4.4219000000,,,0.0,0.0,1.2565000000,3.3083000000,9.1536700000,9.8139347669,,,,,,,,
4.4261000000,,,0.0,0.0,,,,,,,,,0.7629400000,10.8902000000,-46.4462300000,47.7119567268
4.4265000000,,,0.0,0.0,,,,,0.0212400000,-0.0562700000,0.2607400000,0.2675869916,,,,
4.4315000000,,,0.0,0.0,1.2720500000,3.3454000000,9.0926700000,9.7717173563,,,,,,,,
4.4352000000,,,0.0,0.0,,,,,,,,,-1.0376000000,9.0896600000,-45.9960900000,46.8971089510
4.4357000000,,,0.0,0.0,,,,,0.0650300000,-0.0805100000,0.3666100000,0.3809378599,,,,
4.4426000000,,,0.0,0.0,1.3127300000,3.3621400000,9.1082200000,9.7972913094,,,,,,,,
4.4455000000,,,0.0,0.0,,,,,,,,,0.6134000000,8.7890600000,-46.1456300000,46.9791762735
4.4460000000,,,0.0,0.0,,,,,0.1087800000,-0.0892900000,0.4155600000,0.4387435539,,,,
4.4525000000,,,0.0,0.0,1.3641800000,3.3657400000,9.1393300000,9.8344570602,,,,,,,,
4.4564000000,,,0.0,0.0,,,,,0.1444700000,-0.0913800000,0.4170200000,0.4506967558,,,,
4.4566000000,,,0.0,0.0,,,,,,,,,1.2130700000,10.1394700000,-45.9960900000,47.1160342770
4.4622000000,,,0.0,0.0,1.4419400000,3.3777000000,9.1883700000,9.8951600043,,,,,,,,
4.4656000000,,,0.0,0.0,,,,,,,,,1.2130700000,8.6395300000,-47.7966300000,48.5863237630
4.4658000000,,,0.0,0.0,,,,,0.1997200000,-0.0817900000,0.4536100000,0.5023342658,,,,
4.4726000000,,,0.0,0.0,1.4910000000,3.3980400000,9.2482000000,9.9648863557,,,,,,,,
4.4764000000,,,0.0,0.0,,,,,,,,,-1.1871300000,10.2905300000,-45.8465600000,47.0022483415
4.4769000000,,,0.0,0.0,,,,,0.2539200000,-0.0870400000,0.4475100000,0.5218395616,,,,
4.4823000000,,,0.0,0.0,1.4754500000,3.4446900000,9.2577700000,9.9874494878,,,,,,,,
4.4858000000,,,0.0,0.0,,,,,,,,,0.6134000000,10.2905300000,-45.8465600000,46.9912580282
4.4869000000,,,0.0,0.0,,,,,0.2940500000,-0.0881000000,0.4332000000,0.5309324369,,,,
4.4929000000,,,0.0,0.0,1.4048600000,3.5081000000,9.2015400000,9.9472979045,,,,,,,,
4.4969000000,,,0.0,0.0,,,,,,,,,1.0620100000,10.2905300000,-46.5957600000,47.7303647891
4.5010000000,,,0.0,0.0,,,,,0.3156900000,-0.0814400000,0.4134200000,0.5265061691,,,,
4.5041000000,,,0.0,0.0,1.2923900000,3.5691200000,9.1201800000,9.8785916364,,,,,,,,
4.5069000000,,,0.0,0.0,,,,,0.3222200000,-0.0731500000,0.3710900000,0.4968746713,,,,
4.5071000000,,,0.0,0.0,,,,,,,,,0.3128100000,9.2392000000,-45.8465600000,46.7693032936
4.5183000000,,,0.0,0.0,1.1907000000,3.5966300000,9.0376300000,9.7996055974,,,,,,,,
4.5193000000,,,0.0,0.0,,,,,0.3266600000,-0.0578800000,0.3440600000,0.4779478356,,,,
4.5195000000,,,0.0,0.0,,,,,,,,,0.7629400000,10.5896000000,-45.6955000000,46.9126893905
4.5234000000,,,0.0,0.0,1.1213100000,3.6157800000,8.9873800000,9.7521382470,,,,,,,,
4.5259000000,,,0.0,0.0,,,,,0.3229700000,-0.0488400000,0.2974100000,0.4417552202,,,,
4.5265000000,,,0.0,0.0,,,,,,,,,1.0620100000,11.0397300000,-46.5957600000,47.8974775295
4.5356000000,,,0.0,0.0,1.0961800000,3.6397100000,8.9718200000,9.7438520919,,,,,,,,
4.5366000000,,,0.0,0.0,,,,,,,,,0.3128100000,9.5397900000,-46.5957600000,47.5633292918
4.5369000000,,,0.0,0.0,,,,,0.3204800000,-0.0421900000,0.2518900000,0.4097999495,,,,
4.5433000000,,,0.0,0.0,1.1141400000,3.6624500000,8.9945500000,9.7753147082,,,,,,,,
4.5482000000,,,0.0,0.0,,,,,,,,,1.3626100000,8.4899900000,-46.5957600000,47.3825018988
4.5486000000,,,0.0,0.0,,,,,0.3287200000,-0.0273900000,0.2469800000,0.4120754432,,,,
4.5553000000,,,0.0,0.0,1.1464400000,3.6791800000,9.0376300000,9.8249400081,,,,,,,,
4.5563000000,,,0.0,0.0,,,,,,,,,-0.4379300000,11.4898700000,-46.1456300000,47.5565774988
4.5565000000,,,0.0,0.0,,,,,0.3270000000,-0.0437300000,0.1647600000,0.3687643834,,,,
4.5642000000,,,0.0,0.0,1.1607800000,3.7126900000,9.0842900000,9.8820950233,,,,,,,,
4.5663000000,,,0.0,0.0,,,,,0.3267500000,-0.0646800000,0.0778200000,0.3420599616,,,,
4.5665000000,,,0.0,0.0,,,,,,,,,-1.1871300000,10.7391400000,-46.8963600000,48.1249102527
4.5737000000,,,0.0,0.0,1.1631800000,3.7629400000,9.1046300000,9.9200298685,,,,,,,,
4.5766000000,,,0.0,0.0,,,,,,,,,0.3128100000,10.2905300000,-45.0958300000,46.2560995023
4.5790000000,,,0.0,0.0,,,,,0.3346300000,-0.0703700000,0.0347700000,0.3437122731,,,,
4.5860000000,,,0.0,0.0,1.1703600000,3.8143900000,9.0962500000,9.9328282812,,,,,,,,
4.5892000000,,,0.0,0.0,,,,,,,,,0.3128100000,10.2905300000,-45.0958300000,46.2560995023
4.5894000000,,,0.0,0.0,,,,,0.3461900000,-0.0740200000,-0.0057700000,0.3540618158,,,,
4.5976000000,,,0.0,0.0,1.1787400000,3.8454900000,9.0926700000,9.9425283030,,,,,,,,
4.5986000000,,,0.0,0.0,,,,,,,,,1.5121500000,11.3403300000,-46.7468300000,48.1264563123
4.5989000000,,,0.0,0.0,,,,,0.3608700000,-0.0736700000,-0.0373200000,0.3701988766,,,,
4.6048000000,,,0.0,0.0,1.1476300000,3.8263500000,9.1357300000,9.9709363438,,,,,,,,
4.6063000000,,,0.0,0.0,,,,,,,,,1.3626100000,11.4898700000,-45.8465600000,47.2840446923
4.6068000000,,,0.0,0.0,,,,,0.3728300000,-0.0690900000,-0.0582000000,0.3836181396,,,,
4.6146000000,,,0.0,0.0,1.1344800000,3.8000300000,9.2398200000,10.0549264793,,,,,,,,
4.6164000000,,,0.0,0.0,,,,,,,,,0.0122100000,10.5896000000,-46.4462300000,47.6381365972
4.6168000000,,,0.0,0.0,,,,,0.3796500000,-0.0530100000,-0.0484300000,0.3863801852,,,,
4.6242000000,,,0.0,0.0,1.1033600000,3.7545600000,9.3857900000,10.1689319993,,,,,,,,
4.6268000000,,,0.0,0.0,,,,,,,,,0.4623400000,11.6394000000,-46.4462300000,47.8846705309
4.6271000000,,,0.0,0.0,,,,,0.3665900000,-0.0477800000,-0.0658100000,0.3755024802,,,,
4.6340000000,,,0.0,0.0,1.0746500000,3.7114900000,9.5425100000,10.2951215507,,,,,,,,
4.6387000000,,,0.0,0.0,,,,,,,,,-0.1373300000,11.4898700000,-46.8963600000,48.2835847198
4.6390000000,,,0.0,0.0,,,,,0.3382600000,-0.0373700000,-0.0645400000,0.3463838277,,,,
