time,seconds_elapsed,z,y,x
1751013755130582800,0.119582763671875,-400.89630126953125,-159.21652221679688,-49.77037048339844
1751013755140625700,0.129625732421875,-400.74560546875,-158.98880004882812,-49.74482727050781
1751013755150667800,0.139667724609375,-400.8791198730469,-158.9552764892578,-50.17066955566406
1751013755160708600,0.14970849609375,-401.5979309082031,-159.0230712890625,-50.01100158691406
1751013755170750700,0.159750732421875,-401.09527587890625,-159.17518615722656,-49.630401611328125
1751013755180792800,0.169792724609375,-400.84710693359375,-159.14341735839844,-49.63139343261719
1751013755190834700,0.179834716796875,-400.79620361328125,-159.0065155029297,-49.7674560546875
1751013755200876800,0.189876708984375,-401.28515625,-159.28111267089844,-49.55497741699219
1751013755210918700,0.199918701171875,-401.0973205566406,-158.8428955078125,-49.95159912109375
1751013755220961800,0.2099619140625,-401.0067138671875,-159.38967895507812,-49.74943542480469
1751013755231004700,0.220004638671875,-400.85235595703125,-159.1380157470703,-49.67045593261719
1751013755241046800,0.230046875,-400.90765380859375,-159.06161499023438,-49.8834228515625
1751013755251090000,0.24008984375,-401.20556640625,-159.10877990722656,-50.04286193847656
1751013755261131800,0.2501318359375,-401.5001525878906,-158.9905548095703,-49.95420837402344
1751013755271173600,0.260173583984375,-401.17181396484375,-159.20440673828125,-50.12010192871094
1751013755281214700,0.270214599609375,-401.22430419921875,-159.03179931640625,-50.10453796386719
1751013755291255800,0.280255859375,-401.024658203125,-159.16726684570312,-50.07676696777344
1751013755301296600,0.290296630859375,-401.35009765625,-158.96932983398438,-50.218780517578125
1751013755311337700,0.300337646484375,-401.67413330078125,-158.7576904296875,-50.43646240234375
1751013755321379600,0.310379638671875,-401.55181884765625,-159.20065307617188,-50.20436096191406
1751013755331420700,0.320420654296875,-400.83837890625,-158.95913696289062,-50.22938537597656
1751013755341462500,0.330462646484375,-401.111083984375,-158.76373291015625,-50.21247863769531
1751013755351502600,0.340502685546875,-401.04644775390625,-158.8407745361328,-50.171051025390625
1751013755361543700,0.350543701171875,-401.4371032714844,-158.6929473876953,-49.99333190917969
1751013755371584800,0.360584716796875,-401.16143798828125,-159.02806091308594,-50.287017822265625
1751013755381625600,0.37062548828125,-401.16705322265625,-159.15415954589844,-49.947509765625
1751013755391666700,0.380666748046875,-400.8040771484375,-158.9662322998047,-50.24073791503906
1751013755401706800,0.390706787109375,-401.18701171875,-158.95594787597656,-49.7896728515625
1751013755411745800,0.400745849609375,-401.15032958984375,-159.11871337890625,-49.76091003417969
1751013755421785600,0.41078564453125,-401.4082336425781,-159.0583038330078,-49.915618896484375
1751013755431827000,0.420826904296875,-401.1785888671875,-158.87255859375,-50.20501708984375
1751013755441868800,0.430868896484375,-400.9806823730469,-158.96957397460938,-49.94091796875
1751013755451910700,0.44091064453125,-401.1777038574219,-158.83309936523438,-49.826080322265625
1751013755461952800,0.450952880859375,-400.9267883300781,-158.73165893554688,-49.80670166015625
1751013755471994600,0.46099462890625,-400.96807861328125,-158.69955444335938,-49.775848388671875
1751013755482035700,0.47103564453125,-401.0325927734375,-158.28404235839844,-50.058563232421875
1751013755492077800,0.481077880859375,-400.7026062011719,-158.6109161376953,-49.72038269042969
1751013755502119000,0.491118896484375,-400.712646484375,-158.5396270751953,-49.736053466796875
1751013755512159700,0.50115966796875,-401.0150146484375,-158.48045349121094,-49.93780517578125
1751013755522201900,0.511201904296875,-401.02081298828125,-158.1871337890625,-49.95533752441406
1751013755532242700,0.52124267578125,-400.90960693359375,-158.38742065429688,-49.747283935546875
1751013755542283800,0.53128369140625,-401.2655029296875,-158.26341247558594,-49.632171630859375
1751013755552324900,0.541324951171875,-400.93658447265625,-158.53050231933594,-49.677337646484375
1751013755562365000,0.551364990234375,-400.7905578613281,-158.26058959960938,-50.00799560546875
1751013755572406800,0.56140673828125,-401.161865234375,-158.78041076660156,-50.04957580566406
1751013755582447900,0.57144775390625,-400.87969970703125,-158.29580688476562,-49.74308776855469
1751013755592489700,0.58148974609375,-400.9085388183594,-158.1182403564453,-50.00714111328125
1751013755602532600,0.59153271484375,-401.0638732910156,-158.395751953125,-49.998992919921875
1751013755612574700,0.60157470703125,-400.916748046875,-158.33404541015625,-49.74864196777344
1751013755622617600,0.61161767578125,-400.91314697265625,-158.49952697753906,-49.6990966796875
1751013755632654600,0.621654541015625,-400.55169677734375,-158.00486755371094,-49.92298889160156
1751013755642704000,0.631703857421875,-400.4914245605469,-158.24757385253906,-49.88929748535156
1751013755652748000,0.641748046875,-400.73828125,-158.2091522216797,-49.98707580566406
1751013755662791000,0.651791015625,-400.55517578125,-158.38134765625,-49.68766784667969
1751013755672834000,0.661833984375,-400.637451171875,-158.38433837890625,-49.74859619140625
1751013755682876200,0.671876220703125,-400.951171875,-158.281982421875,-49.60235595703125
1751013755692919000,0.6819189453125,-400.9056396484375,-158.5903778076172,-50.22589111328125
1751013755702961000,0.6919609375,-401.01812744140625,-158.34005737304688,-49.98614501953125
1751013755712999200,0.701999267578125,-400.46893310546875,-158.2067108154297,-49.71717834472656
1751013755723047000,0.712046875,-400.96258544921875,-158.2314453125,-49.96388244628906
1751013755733090000,0.722090087890625,-401.29010009765625,-157.9769744873047,-50.42066955566406
1751013755743129000,0.732129150390625,-400.8275451660156,-158.37191772460938,-50.179656982421875
1751013755753177000,0.742177001953125,-400.8846435546875,-158.46621704101562,-49.680419921875
1751013755763216100,0.752216064453125,-400.8936767578125,-158.50552368164062,-50.253448486328125
1751013755773261000,0.762260986328125,-400.70452880859375,-158.27024841308594,-50.00370788574219
1751013755783305200,0.77230517578125,-401.182373046875,-158.4772491455078,-49.91749572753906
1751013755793349000,0.78234912109375,-400.97119140625,-158.3056640625,-49.42521667480469
1751013755803397000,0.792397216796875,-400.7509460449219,-157.82638549804688,-49.64717102050781
1751013755813440000,0.80243994140625,-401.2821044921875,-157.84837341308594,-49.73728942871094
1751013755823479300,0.812479248046875,-400.60980224609375,-157.9290313720703,-49.72688293457031
1751013755833526000,0.822526123046875,-400.9475402832031,-157.41310119628906,-49.74317932128906
1751013755843565000,0.83256494140625,-400.7695007324219,-157.49729919433594,-49.67539978027344
1751013755853613000,0.842613037109375,-400.752197265625,-157.76296997070312,-49.634674072265625
1751013755863656000,0.852656005859375,-400.81317138671875,-157.9273681640625,-49.6402587890625
1751013755873698000,0.862697998046875,-400.56494140625,-157.58543395996094,-49.93577575683594
1751013755883741200,0.8727412109375,-401.32049560546875,-157.80763244628906,-49.73579406738281
1751013755893782000,0.882781982421875,-400.7177734375,-157.42755126953125,-49.62483215332031
1751013755903824100,0.89282421875,-401.1753845214844,-157.8870849609375,-49.8541259765625
1751013755913867000,0.902866943359375,-400.57763671875,-157.6669158935547,-50.1329345703125
1751013755923909000,0.9129091796875,-400.5829772949219,-157.7128448486328,-49.7442626953125
1751013755933952000,0.922951904296875,-400.90478515625,-157.93666076660156,-49.75761413574219
1751013755943995000,0.932994873046875,-400.45758056640625,-157.70925903320312,-50.02507019042969
1751013755954038000,0.9430380859375,-400.7261962890625,-157.60841369628906,-49.86680603027344
1751013755964081200,0.9530810546875,-401.2456359863281,-158.045654296875,-50.05535888671875
1751013755974122000,0.9631220703125,-400.91204833984375,-158.0979766845703,-50.131744384765625
1751013755984163000,0.9731630859375,-401.36328125,-157.8479766845703,-50.072052001953125
1751013755994205000,0.983204833984375,-400.71832275390625,-157.9446563720703,-49.98951721191406
1751013756004245000,0.993244873046875,-400.58978271484375,-157.86468505859375,-49.859161376953125
1751013756014286000,1.0032861328125,-401.1907958984375,-158.19374084472656,-50.42832946777344
1751013756024326100,1.013326171875,-400.74395751953125,-157.93995666503906,-50.150604248046875
1751013756034367000,1.023366943359375,-400.84344482421875,-157.9356231689453,-50.12132263183594
1751013756044409000,1.0334091796875,-401.52789306640625,-158.01353454589844,-49.79103088378906
1751013756054450000,1.043449951171875,-401.3889465332031,-158.24737548828125,-50.07710266113281
1751013756064491000,1.053490966796875,-400.82769775390625,-158.2205047607422,-50.15345764160156
1751013756074532900,1.063532958984375,-401.22381591796875,-157.7501983642578,-49.47975158691406
1751013756084574000,1.073573974609375,-400.921630859375,-157.9462127685547,-50.09651184082031
1751013756094617000,1.0836171875,-400.93389892578125,-157.8617401123047,-49.96025085449219
1751013756104659200,1.0936591796875,-400.947021484375,-158.06982421875,-49.90434265136719
1751013756114701000,1.103701171875,-400.83306884765625,-158.30259704589844,-50.422943115234375
1751013756124742100,1.1137421875,-400.7076416015625,-158.21044921875,-50.004608154296875
1751013756134784000,1.123783935546875,-401.17681884765625,-158.5410919189453,-50.04541015625
1751013756144825000,1.1338251953125,-401.20404052734375,-158.2494354248047,-49.737548828125
1751013756154866000,1.143865966796875,-400.949462890625,-158.1483612060547,-49.9757080078125
1751013756164908300,1.153908203125,-400.7265319824219,-158.11045837402344,-49.9951171875
1751013756174950100,1.1639501953125,-400.89862060546875,-157.97665405273438,-50.13346862792969
1751013756184990200,1.173990234375,-400.5945739746094,-157.90879821777344,-50.05030822753906
1751013756195032000,1.184031982421875,-400.46923828125,-158.36087036132812,-50.35504150390625
1751013756205072100,1.194072021484375,-400.4935302734375,-158.0373992919922,-50.15470886230469
1751013756215113200,1.20411328125,-400.74755859375,-157.84341430664062,-50.35711669921875
1751013756225154000,1.214154052734375,-400.9422302246094,-158.25730895996094,-50.66703796386719
1751013756235195100,1.224195068359375,-401.083251953125,-157.9529266357422,-50.17088317871094
1751013756245236200,1.234236328125,-400.7242126464844,-158.1294403076172,-50.26422119140625
1751013756255278000,1.244278076171875,-400.6839599609375,-158.0348358154297,-50.05706787109375
1751013756265320000,1.25431982421875,-400.934814453125,-157.8962860107422,-50.04669189453125
1751013756275361000,1.264361083984375,-400.294921875,-158.2136993408203,-49.99406433105469
1751013756285403100,1.274403076171875,-400.45245361328125,-158.15057373046875,-50.48783874511719
1751013756295445200,1.2844453125,-400.6251220703125,-157.82901000976562,-50.42381286621094
1751013756305486000,1.294486083984375,-401.1348571777344,-157.8397216796875,-50.26129150390625
1751013756315523000,1.304523193359375,-400.5456237792969,-157.84536743164062,-50.01518249511719
1751013756325570000,1.314570068359375,-401.27093505859375,-158.0993194580078,-50.39234924316406
1751013756335612200,1.324612060546875,-401.07781982421875,-158.0439453125,-50.22093200683594
1751013756345655300,1.3346552734375,-401.12030029296875,-157.8287353515625,-50.08226013183594
1751013756355698200,1.3446982421875,-401.32086181640625,-158.04791259765625,-49.97532653808594
1751013756365740000,1.354739990234375,-400.78948974609375,-158.11573791503906,-50.02215576171875
1751013756375782000,1.364781982421875,-400.42047119140625,-158.16455078125,-50.28871154785156
1751013756385823000,1.374822998046875,-400.74737548828125,-158.10287475585938,-50.327545166015625
1751013756395865000,1.384864990234375,-400.7414245605469,-158.04763793945312,-50.38645935058594
1751013756405907200,1.3949072265625,-400.85906982421875,-157.779541015625,-50.301605224609375
1751013756415949000,1.404948974609375,-401.34320068359375,-157.80874633789062,-50.38459777832031
1751013756425991200,1.4149912109375,-401.2740478515625,-157.75550842285156,-50.1783447265625
1751013756436033000,1.425032958984375,-400.676025390625,-157.64442443847656,-49.96861267089844
1751013756446076200,1.435076171875,-400.57928466796875,-158.0739288330078,-50.37303161621094
1751013756456118000,1.445117919921875,-400.923095703125,-157.44667053222656,-50.357025146484375
1751013756466160000,1.45516015625,-400.4220886230469,-158.03762817382812,-50.094635009765625
1751013756476201000,1.465200927734375,-400.79547119140625,-157.53822326660156,-50.28572082519531
1751013756486244000,1.475244140625,-400.9070129394531,-158.0390167236328,-50.12579345703125
1751013756496285200,1.48528515625,-400.86572265625,-157.65481567382812,-50.3687744140625
1751013756506327000,1.4953271484375,-400.447998046875,-157.93251037597656,-50.17515563964844
1751013756516367000,1.5053671875,-400.48040771484375,-158.07827758789062,-50.38270568847656
1751013756526409200,1.5154091796875,-400.64166259765625,-157.87362670898438,-50.801605224609375
1751013756536450000,1.525449951171875,-400.5752868652344,-157.9968719482422,-50.54176330566406
1751013756546492200,1.5354921875,-400.291259765625,-158.08584594726562,-50.314910888671875
1751013756556533000,1.545532958984375,-400.95709228515625,-158.04476928710938,-50.72418212890625
1751013756566576000,1.555576171875,-400.93994140625,-157.70437622070312,-50.69110107421875
1751013756576618200,1.5656181640625,-400.81378173828125,-158.24461364746094,-50.77838134765625
1751013756586656000,1.575656005859375,-401.03851318359375,-157.62232971191406,-50.67124938964844
1751013756596704000,1.5857041015625,-400.5743408203125,-157.85699462890625,-50.69374084472656
1751013756606746000,1.59574609375,-400.73968505859375,-158.14869689941406,-50.65425109863281
1751013756616788200,1.605788330078125,-400.8182373046875,-157.89340209960938,-50.70668029785156
1751013756626831000,1.6158310546875,-400.6314697265625,-158.18392944335938,-50.31597900390625
1751013756636874200,1.625874267578125,-400.63250732421875,-157.72500610351562,-50.19554138183594
1751013756646917000,1.635917236328125,-400.9259033203125,-157.973876953125,-50.73558044433594
1751013756656959700,1.645959716796875,-400.74334716796875,-157.9875030517578,-50.642852783203125
1751013756667000800,1.656000732421875,-400.284423828125,-157.5620880126953,-50.4847412109375
1751013756677037800,1.666037841796875,-401.0232849121094,-157.96221923828125,-50.96733093261719
1751013756687085600,1.67608544921875,-401.1560363769531,-158.0264434814453,-50.83992004394531
1751013756697128700,1.686128662109375,-400.8688659667969,-158.04470825195312,-50.5614013671875
1751013756707171600,1.696171630859375,-400.283935546875,-157.721435546875,-50.41038513183594
1751013756717214700,1.706214599609375,-400.83331298828125,-158.1198272705078,-50.608154296875
1751013756727257900,1.7162578125,-400.609619140625,-157.70565795898438,-50.836090087890625
1751013756737300700,1.72630078125,-400.7855224609375,-157.85816955566406,-50.44654846191406
1751013756747342800,1.7363427734375,-400.947509765625,-157.8563995361328,-50.496826171875
1751013756757385700,1.7463857421875,-400.9445495605469,-157.97740173339844,-50.56547546386719
1751013756767427600,1.756427490234375,-400.95062255859375,-158.12461853027344,-50.42369079589844
1751013756777468700,1.76646875,-400.6859436035156,-157.9690704345703,-50.11878967285156
1751013756787507000,1.7765068359375,-400.7366638183594,-157.95730590820312,-50.551544189453125
1751013756797553000,1.786552978515625,-401.0841979980469,-157.83299255371094,-50.3428955078125
1751013756807590000,1.79658984375,-400.70440673828125,-157.72935485839844,-50.56288146972656
1751013756817635800,1.8066357421875,-401.21856689453125,-157.82789611816406,-50.39762878417969
1751013756827676700,1.8166767578125,-400.4233093261719,-157.96542358398438,-50.87550354003906
1751013756837717800,1.8267177734375,-401.08251953125,-158.03492736816406,-50.60894775390625
1751013756847757800,1.8367578125,-400.653076171875,-158.34439086914062,-50.669921875
1751013756857799000,1.846798828125,-400.1529846191406,-157.9651336669922,-50.47576904296875
1751013756867839700,1.85683984375,-400.8001708984375,-157.9813690185547,-50.8983154296875
1751013756877881900,1.8668818359375,-400.7019958496094,-158.203857421875,-50.8585205078125
1751013756887922700,1.876922607421875,-400.34332275390625,-157.74896240234375,-50.72975158691406
1751013756897964800,1.88696484375,-400.7007751464844,-158.17510986328125,-50.75152587890625
1751013756908005600,1.897005615234375,-400.9564208984375,-157.96481323242188,-50.557708740234375
1751013756918047700,1.9070478515625,-400.9038391113281,-157.8659210205078,-50.4498291015625
1751013756928089600,1.917089599609375,-401.0247497558594,-158.2261199951172,-50.743133544921875
1751013756938129700,1.927129638671875,-400.78192138671875,-158.30511474609375,-50.82305908203125
1751013756948169700,1.937169677734375,-400.639404296875,-158.2361297607422,-51.07810974121094
1751013756958209800,1.947209716796875,-399.9748840332031,-158.42332458496094,-51.37998962402344
1751013756968250600,1.957250732421875,-400.03704833984375,-158.18807983398438,-51.471038818359375
1751013756978292700,1.967292724609375,-400.21734619140625,-158.4657440185547,-51.26695251464844
1751013756988333800,1.977333740234375,-400.3070068359375,-158.42800903320312,-51.65812683105469
1751013756998373600,1.98737353515625,-400.3431396484375,-158.34628295898438,-51.60585021972656
1751013757008414700,1.997414794921875,-399.99493408203125,-158.2532196044922,-51.97540283203125
1751013757018455800,2.007455810546875,-399.9128112792969,-158.3789520263672,-51.702789306640625
1751013757028496600,2.01749658203125,-400.4022521972656,-158.05697631835938,-51.54582214355469
1751013757038537700,2.027537841796875,-400.0105285644531,-157.91619873046875,-51.50630187988281
1751013757048577800,2.037577880859375,-400.02032470703125,-158.03318786621094,-51.48310852050781
1751013757058619000,2.047618896484375,-400.388427734375,-158.40267944335938,-51.3919677734375
1751013757068659700,2.05765966796875,-400.2440185546875,-157.9945068359375,-51.114166259765625
1751013757078700800,2.06770068359375,-400.6058349609375,-158.17225646972656,-51.60748291015625
1751013757088742000,2.077741943359375,-399.8019104003906,-158.15093994140625,-51.6522216796875
1751013757098782700,2.08778271484375,-399.885986328125,-158.03807067871094,-51.32203674316406
1751013757108824800,2.097824951171875,-399.95404052734375,-158.2613067626953,-51.561065673828125
1751013757118865700,2.10786572265625,-400.276123046875,-158.0937042236328,-51.36174011230469
1751013757128906800,2.11790673828125,-400.1354064941406,-157.86936950683594,-51.44013977050781
1751013757138947800,2.12794775390625,-400.33154296875,-158.05599975585938,-51.232147216796875
1751013757148988700,2.13798876953125,-399.9732360839844,-157.96926879882812,-51.18524169921875
1751013757159030800,2.14803076171875,-400.1980895996094,-157.8739776611328,-51.26194763183594
1751013757169072600,2.15807275390625,-400.0581970214844,-157.763427734375,-51.17213439941406
1751013757179113700,2.16811376953125,-399.7017822265625,-157.7897491455078,-51.55268859863281
1751013757189155800,2.17815576171875,-399.7080993652344,-157.8510284423828,-51.44398498535156
1751013757199197000,2.188197021484375,-399.63690185546875,-157.336181640625,-51.22355651855469
1751013757209238800,2.19823876953125,-400.2681884765625,-157.69851684570312,-51.463958740234375
1751013757219280000,2.20827978515625,-399.9561767578125,-157.80235290527344,-51.56529235839844
1751013757229320000,2.21831982421875,-399.63897705078125,-157.7598419189453,-51.571319580078125
1751013757239360800,2.22836083984375,-400.22088623046875,-157.38693237304688,-51.55400085449219
1751013757249400600,2.238400634765625,-400.47528076171875,-157.34640502929688,-51.7388916015625
1751013757259442700,2.248442626953125,-399.9432373046875,-157.93191528320312,-51.28797912597656
1751013757269483800,2.25848388671875,-400.29443359375,-157.73130798339844,-51.8218994140625
1751013757279523600,2.268523681640625,-400.1203308105469,-157.69044494628906,-51.55381774902344
1751013757289564700,2.278564697265625,-400.236083984375,-157.9037628173828,-51.9041748046875
1751013757299606800,2.288606689453125,-400.9006042480469,-157.9624481201172,-51.57647705078125
1751013757309648600,2.298648681640625,-400.8970031738281,-157.99571228027344,-51.60050964355469
1751013757319689700,2.308689697265625,-400.6669616699219,-158.19505310058594,-51.703369140625
1751013757329731600,2.318731689453125,-400.6662902832031,-158.0279998779297,-51.999359130859375
1751013757339772700,2.328772705078125,-400.60382080078125,-157.9261474609375,-51.82078552246094
1751013757349814500,2.338814453125,-400.40826416015625,-158.32073974609375,-51.94978332519531
1751013757359856600,2.348856689453125,-400.60113525390625,-158.04444885253906,-51.90046691894531
1751013757369898800,2.358898681640625,-399.9466552734375,-158.45814514160156,-52.420562744140625
1751013757379939800,2.36893994140625,-400.4487609863281,-158.4224395751953,-51.65972900390625
1751013757389980700,2.378980712890625,-400.42138671875,-158.43399047851562,-52.110504150390625
1751013757400022800,2.389022705078125,-400.2538757324219,-158.49241638183594,-51.65989685058594
1751013757410063600,2.399063720703125,-400.4313049316406,-158.7121124267578,-51.92158508300781
1751013757420104700,2.409104736328125,-400.69952392578125,-158.44100952148438,-51.79754638671875
1751013757430146800,2.419146728515625,-400.3486022949219,-158.66075134277344,-52.12663269042969
1751013757440184600,2.4291845703125,-399.853271484375,-158.24464416503906,-51.99479675292969
1751013757450232800,2.43923291015625,-400.305419921875,-158.43380737304688,-52.21855163574219
1751013757460275700,2.449275634765625,-400.875244140625,-158.59695434570312,-52.34014892578125
1751013757470317600,2.459317626953125,-400.43646240234375,-158.215576171875,-52.193817138671875
1751013757480359700,2.469359619140625,-400.201904296875,-158.15985107421875,-51.94134521484375
1751013757490400800,2.47940087890625,-400.1863098144531,-158.3072052001953,-52.197265625
1751013757500441900,2.48944189453125,-400.5960998535156,-158.80911254882812,-52.39439392089844
1751013757510483700,2.499483642578125,-399.9241638183594,-159.00791931152344,-52.520477294921875
1751013757520524800,2.50952490234375,-400.19842529296875,-159.0415802001953,-52.45709228515625
1751013757530566700,2.519566650390625,-400.68499755859375,-158.71632385253906,-52.23731994628906
1751013757540608800,2.52960888671875,-399.9843444824219,-158.86083984375,-52.1240234375
1751013757550652000,2.53965185546875,-400.2115478515625,-159.42559814453125,-52.217742919921875
1751013757560695600,2.549695556640625,-400.735107421875,-159.00347900390625,-52.24053955078125
1751013757570733800,2.55973388671875,-400.79766845703125,-159.05162048339844,-52.35472106933594
1751013757580781800,2.56978173828125,-400.53582763671875,-159.10861206054688,-52.15449523925781
1751013757590824700,2.57982470703125,-400.74786376953125,-159.15663146972656,-52.122589111328125
1751013757600868600,2.58986865234375,-400.8930969238281,-159.10931396484375,-52.210113525390625
1751013757610911500,2.599911376953125,-400.45989990234375,-158.9033660888672,-52.09541320800781
1751013757620953900,2.609953857421875,-400.412109375,-159.2133331298828,-52.400238037109375
1751013757630997800,2.619997802734375,-400.1244812011719,-159.12060546875,-51.896820068359375
1751013757641041000,2.630041015625,-400.04486083984375,-159.19100952148438,-52.11674499511719
1751013757651085600,2.64008544921875,-400.5301513671875,-159.33929443359375,-52.28297424316406
1751013757661129700,2.650129638671875,-400.2888488769531,-159.3520050048828,-52.1326904296875
1751013757671174000,2.660173828125,-400.87103271484375,-159.14370727539062,-52.17803955078125
1751013757681216800,2.670216796875,-400.3516540527344,-158.84628295898438,-52.22041320800781
1751013757691260000,2.680260009765625,-400.31756591796875,-159.09999084472656,-52.22416687011719
1751013757701302800,2.690302734375,-400.7384948730469,-159.1398162841797,-52.16900634765625
1751013757711346000,2.700345947265625,-399.7059326171875,-159.1646270751953,-52.25736999511719
1751013757721389800,2.710389892578125,-400.5136413574219,-158.8997802734375,-52.14210510253906
1751013757731432700,2.7204326171875,-400.26898193359375,-158.9425506591797,-52.286041259765625
1751013757741475800,2.730475830078125,-400.15411376953125,-159.08070373535156,-52.054473876953125
1751013757751518700,2.740518798828125,-400.59814453125,-158.80584716796875,-52.10746765136719
1751013757761561900,2.750561767578125,-400.52618408203125,-158.6247100830078,-52.57838439941406
1751013757771603700,2.760603759765625,-399.9149169921875,-158.72389221191406,-52.136322021484375
1751013757781646800,2.770646728515625,-400.27923583984375,-159.093017578125,-52.460601806640625
1751013757791690000,2.78068994140625,-399.970458984375,-158.78921508789062,-52.4390869140625
1751013757801731800,2.79073193359375,-400.40045166015625,-158.6948699951172,-52.24870300292969
1751013757811773700,2.800773681640625,-400.3186950683594,-158.81797790527344,-52.11448669433594
1751013757821814800,2.810814697265625,-400.2326965332031,-158.641357421875,-52.12718200683594
1751013757831856600,2.820856689453125,-400.0582580566406,-158.6771697998047,-51.930999755859375
1751013757841897700,2.830897705078125,-400.4462890625,-158.7360382080078,-52.210693359375
1751013757851938800,2.840938720703125,-400.39544677734375,-158.8675079345703,-52.13330078125
1751013757861979600,2.850979736328125,-400.2921142578125,-158.7362060546875,-52.073486328125
1751013757872020700,2.861020751953125,-400.2579345703125,-158.7416534423828,-52.342193603515625
1751013757882061800,2.871061767578125,-400.1710510253906,-158.4254913330078,-51.99400329589844
1751013757892104000,2.88110400390625,-400.60626220703125,-159.0238800048828,-52.11724853515625
1751013757902145800,2.891145751953125,-400.42877197265625,-158.67222595214844,-52.12757873535156
1751013757912187000,2.901186767578125,-400.048828125,-158.66555786132812,-52.08979797363281
1751013757922228000,2.91122802734375,-400.3680725097656,-158.67041015625,-52.183563232421875
1751013757932268800,2.921268798828125,-400.27679443359375,-158.62643432617188,-52.350921630859375
1751013757942311000,2.931310791015625,-400.6563720703125,-158.52247619628906,-52.14813232421875
1751013757952352800,2.941352783203125,-400.4073181152344,-158.38363647460938,-51.69493103027344
1751013757962393900,2.951393798828125,-400.1266174316406,-158.4977264404297,-52.08905029296875
1751013757972435700,2.961435791015625,-400.447021484375,-158.0145263671875,-51.94938659667969
1751013757982476800,2.971476806640625,-400.2231750488281,-158.42750549316406,-51.9583740234375
1751013757992517600,2.981517578125,-400.8160705566406,-158.24514770507812,-51.854705810546875
1751013758002555000,2.991554931640625,-400.7632141113281,-158.53468322753906,-51.83245849609375
1751013758012601900,3.001601806640625,-400.25738525390625,-158.511962890625,-51.67816162109375
1751013758022644700,3.011644775390625,-400.377197265625,-158.68666076660156,-52.12901306152344
1751013758032685800,3.021685791015625,-399.52239990234375,-158.38148498535156,-52.410858154296875
1751013758042729000,3.03172900390625,-399.9725341796875,-158.36070251464844,-52.103515625
1751013758052771800,3.041771728515625,-400.0242614746094,-158.20980834960938,-52.05726623535156
1751013758062812000,3.05181201171875,-400.04071044921875,-158.67396545410156,-52.09539794921875
1751013758072852700,3.061852783203125,-399.86187744140625,-158.4027862548828,-52.2655029296875
1751013758082893800,3.071893798828125,-400.0689392089844,-157.8666534423828,-52.14888000488281
1751013758092935000,3.081934814453125,-400.14111328125,-158.38133239746094,-52.03758239746094
1751013758102977800,3.091977783203125,-399.9456787109375,-157.96929931640625,-52.234466552734375
1751013758113017900,3.102017822265625,-400.1407775878906,-158.2681884765625,-51.77326965332031
1751013758123059700,3.112059814453125,-400.2902526855469,-157.62527465820312,-52.118316650390625
1751013758133100800,3.122100830078125,-400.310546875,-157.82806396484375,-51.87297058105469
1751013758143142700,3.132142578125,-400.01812744140625,-157.84547424316406,-51.77545166015625
1751013758153184800,3.142184814453125,-400.38934326171875,-157.913330078125,-52.16007995605469
1751013758163227000,3.152226806640625,-399.9454345703125,-157.6836700439453,-51.63331604003906
1751013758173269800,3.162269775390625,-400.01019287109375,-157.6438751220703,-51.68498229980469
1751013758183311600,3.1723115234375,-399.930419921875,-157.7562713623047,-52.04145812988281
1751013758193354000,3.18235400390625,-400.23297119140625,-157.7966766357422,-51.815216064453125
1751013758203394800,3.192394775390625,-400.58984375,-157.74160766601562,-51.894561767578125
1751013758213437000,3.20243701171875,-399.88934326171875,-157.77557373046875,-51.897552490234375
1751013758223477800,3.212477783203125,-400.03900146484375,-157.6647186279297,-51.96961975097656
1751013758233519900,3.222519775390625,-400.09686279296875,-157.627197265625,-52.02259826660156
1751013758243561700,3.232561767578125,-400.24969482421875,-157.8418731689453,-52.017425537109375
1751013758253602800,3.242602783203125,-400.0360107421875,-157.91700744628906,-52.023162841796875
1751013758263643600,3.2526435546875,-400.094970703125,-158.04678344726562,-51.96632385253906
1751013758273685800,3.262685791015625,-399.9339904785156,-157.75680541992188,-52.18914794921875
1751013758283726600,3.2727265625,-400.3927307128906,-158.2744598388672,-52.57939147949219
1751013758293769000,3.28276904296875,-400.1902160644531,-157.93841552734375,-52.309326171875
1751013758303809800,3.292809814453125,-399.975830078125,-158.24070739746094,-52.160736083984375
1751013758313851000,3.302850830078125,-400.3525390625,-157.74209594726562,-51.968109130859375
1751013758323892700,3.312892822265625,-400.25634765625,-157.95449829101562,-51.9249267578125
1751013758333933800,3.322933837890625,-400.3630676269531,-158.38270568847656,-51.79740905761719
1751013758343975700,3.3329755859375,-400.71417236328125,-157.91734313964844,-51.425567626953125
1751013758354019800,3.343019775390625,-400.51763916015625,-158.15402221679688,-51.25617980957031
1751013758364062000,3.35306201171875,-399.9205627441406,-158.12123107910156,-51.1279296875
1751013758374104800,3.363104736328125,-400.2095947265625,-158.00302124023438,-51.00151062011719
1751013758384146700,3.373146728515625,-400.59234619140625,-157.71490478515625,-51.252197265625
1751013758394187800,3.383187744140625,-399.93017578125,-157.48260498046875,-51.014495849609375
1751013758404230000,3.39322998046875,-399.85565185546875,-157.32632446289062,-51.01280212402344
1751013758414271700,3.403271728515625,-400.0806884765625,-157.2759246826172,-50.96697998046875
1751013758424313900,3.41331396484375,-399.92852783203125,-157.1974639892578,-51.10496520996094
1751013758434354700,3.423354736328125,-400.00079345703125,-157.13194274902344,-50.886016845703125
1751013758444396800,3.433396728515625,-400.09368896484375,-156.78866577148438,-51.02217102050781
1751013758454438700,3.443438720703125,-400.2041015625,-156.98550415039062,-51.07337951660156
1751013758464479700,3.453479736328125,-399.9193420410156,-156.49624633789062,-50.9442138671875
1751013758474519800,3.463519775390625,-400.0998840332031,-156.44154357910156,-51.3499755859375
1751013758484560600,3.473560546875,-399.6490478515625,-156.30465698242188,-50.963348388671875
1751013758494598000,3.483597900390625,-399.72418212890625,-156.80734252929688,-51.216156005859375
1751013758504644900,3.493644775390625,-399.36138916015625,-156.82696533203125,-51.13177490234375
1751013758514686700,3.503686767578125,-399.56439208984375,-156.8180694580078,-51.15052795410156
1751013758524730600,3.513730712890625,-399.541259765625,-156.82339477539062,-51.32395935058594
1751013758534769000,3.523768798828125,-399.80078125,-156.636474609375,-51.31158447265625
1751013758544815900,3.53381591796875,-399.8769226074219,-156.432861328125,-51.4769287109375
1751013758554859800,3.54385986328125,-399.8909912109375,-156.49583435058594,-51.219268798828125
1751013758564902000,3.55390185546875,-399.81146240234375,-156.8070068359375,-51.15785217285156
1751013758574939600,3.563939697265625,-399.3739013671875,-156.67822265625,-51.08909606933594
1751013758584988000,3.57398779296875,-399.8474426269531,-156.59219360351562,-50.98321533203125
1751013758595030800,3.58403076171875,-400.56488037109375,-156.63299560546875,-50.97526550292969
1751013758605072600,3.59407275390625,-399.6903076171875,-156.6698760986328,-50.91755676269531
1751013758615114800,3.60411474609375,-399.84942626953125,-156.48672485351562,-51.186553955078125
1751013758625156900,3.614156982421875,-399.9190673828125,-156.71360778808594,-51.12060546875
1751013758635198700,3.62419873046875,-399.8687744140625,-156.56912231445312,-51.30644226074219
1751013758645236700,3.63423681640625,-399.72308349609375,-156.5140380859375,-50.93174743652344
1751013758655285200,3.64428515625,-400.10235595703125,-156.9697723388672,-51.35057067871094
1751013758665328400,3.654328369140625,-399.90106201171875,-156.9663848876953,-51.09053039550781
1751013758675369500,3.664369384765625,-400.14373779296875,-157.26219177246094,-51.086456298828125
1751013758685410600,3.67441064453125,-399.77569580078125,-157.02854919433594,-51.058349609375
1751013758695450400,3.684450439453125,-399.98199462890625,-157.27593994140625,-50.84629821777344
1751013758705491200,3.6944912109375,-400.0252685546875,-157.1107940673828,-50.93731689453125
1751013758715532300,3.7045322265625,-400.76531982421875,-156.98922729492188,-50.75474548339844
1751013758725574400,3.714574462890625,-400.1886291503906,-157.2000732421875,-50.89759826660156
1751013758735615500,3.724615478515625,-400.0389099121094,-157.0943603515625,-50.68656921386719
1751013758745657300,3.7346572265625,-399.842041015625,-157.08067321777344,-51.01887512207031
1751013758755698400,3.744698486328125,-400.12811279296875,-157.08741760253906,-50.806365966796875
1751013758765740300,3.754740234375,-399.648681640625,-156.83062744140625,-51.152801513671875
1751013758775780400,3.7647802734375,-399.63275146484375,-156.87977600097656,-51.06056213378906
1751013758785821400,3.774821533203125,-399.90557861328125,-156.97482299804688,-51.14796447753906
1751013758795862500,3.784862548828125,-399.7471008300781,-156.8258056640625,-51.28778076171875
1751013758805902600,3.794902587890625,-399.690673828125,-156.96461486816406,-51.2601318359375
1751013758815943400,3.804943359375,-400.010986328125,-156.86561584472656,-51.13197326660156
1751013758825983500,3.8149833984375,-400.0650329589844,-157.40646362304688,-51.59043884277344
1751013758836024600,3.825024658203125,-399.9444580078125,-157.4073028564453,-51.36393737792969
1751013758846065400,3.8350654296875,-400.5091552734375,-157.23379516601562,-51.21745300292969
1751013758856106500,3.8451064453125,-400.34686279296875,-156.98399353027344,-51.22566223144531
1751013758866147600,3.855147705078125,-399.91021728515625,-157.25244140625,-51.22267150878906
1751013758876188400,3.8651884765625,-400.34210205078125,-156.9644775390625,-51.36277770996094
1751013758886229500,3.8752294921875,-399.649169921875,-156.9622344970703,-51.71464538574219
1751013758896270600,3.8852705078125,-399.6206970214844,-157.08531188964844,-51.59185791015625
1751013758906312400,3.8953125,-399.22021484375,-156.8091278076172,-51.86195373535156
1751013758916352500,3.9053525390625,-399.6436767578125,-157.00022888183594,-51.87876892089844
1751013758926394400,3.915394287109375,-399.3355407714844,-156.7307891845703,-51.8363037109375
1751013758936435500,3.925435546875,-399.2655334472656,-156.9191131591797,-52.24635314941406
1751013758946477300,3.935477294921875,-399.30780029296875,-156.74197387695312,-51.97929382324219
1751013758956518400,3.945518310546875,-399.43658447265625,-156.9499053955078,-52.48823547363281
1751013758966559500,3.9555595703125,-399.33441162109375,-156.9925079345703,-52.21466064453125
1751013758976600300,3.965600341796875,-399.62945556640625,-156.94595336914062,-52.43769836425781
1751013758986641400,3.975641357421875,-399.7706604003906,-157.374755859375,-52.53736877441406
1751013758996681500,3.985681396484375,-399.6191711425781,-157.1094512939453,-52.31510925292969
1751013759006722600,3.99572265625,-399.3781433105469,-157.35025024414062,-52.339996337890625
1751013759016762400,4.005762451171875,-399.8416748046875,-157.50018310546875,-52.13298034667969
1751013759026802200,4.01580224609375,-399.6434326171875,-157.46066284179688,-52.42924499511719
1751013759036842200,4.02584228515625,-398.99267578125,-157.310302734375,-52.505828857421875
1751013759046881500,4.035881591796875,-399.2130126953125,-157.53587341308594,-52.26530456542969
1751013759056921600,4.045921630859375,-398.94561767578125,-157.49388122558594,-52.57780456542969
1751013759066961400,4.05596142578125,-398.9441223144531,-157.36788940429688,-52.309906005859375
1751013759077001200,4.066001220703125,-399.6956481933594,-157.3158416748047,-52.208709716796875
1751013759087042300,4.076042236328125,-400.22991943359375,-157.21044921875,-52.41059875488281
1751013759097081300,4.086081298828125,-400.0894470214844,-157.31683349609375,-52.4598388671875
1751013759107121400,4.096121337890625,-399.59234619140625,-157.1334686279297,-52.65843200683594
1751013759117162500,4.10616259765625,-400.1408996582031,-157.21548461914062,-52.366424560546875
1751013759127202600,4.11620263671875,-400.1070861816406,-157.3518829345703,-52.577239990234375
1751013759137243400,4.126243408203125,-399.59075927734375,-157.55186462402344,-52.50384521484375
1751013759147284500,4.136284423828125,-399.8038024902344,-157.6251220703125,-52.313232421875
1751013759157325600,4.14632568359375,-399.6326904296875,-157.37811279296875,-51.62321472167969
1751013759167367400,4.156367431640625,-399.5367736816406,-157.1806640625,-51.958740234375
1751013759177409500,4.166409423828125,-399.68048095703125,-157.49139404296875,-52.24540710449219
1751013759187452400,4.176452392578125,-399.6856689453125,-157.7034912109375,-52.13917541503906
1751013759197495600,4.18649560546875,-400.0217590332031,-157.60203552246094,-52.46849060058594
1751013759207538400,4.196538330078125,-399.9656982421875,-157.9014892578125,-52.30938720703125
1751013759217580300,4.206580322265625,-399.76611328125,-157.96778869628906,-52.45921325683594
1751013759227623400,4.21662353515625,-399.6165771484375,-158.27389526367188,-52.36875915527344
1751013759237667300,4.226667236328125,-399.6153564453125,-157.77565002441406,-52.37498474121094
1751013759247709400,4.23670947265625,-399.01397705078125,-157.8865966796875,-52.66325378417969
1751013759257751600,4.24675146484375,-399.28485107421875,-157.8066864013672,-52.69743347167969
1751013759267793400,4.25679345703125,-399.477783203125,-157.82931518554688,-52.652587890625
1751013759277836300,4.266836181640625,-399.45587158203125,-157.96571350097656,-52.653778076171875
1751013759287880400,4.27688037109375,-399.28546142578125,-158.15284729003906,-52.213226318359375
1751013759297923300,4.28692333984375,-399.46417236328125,-158.0355682373047,-52.59458923339844
1751013759307964400,4.29696435546875,-399.49462890625,-157.77598571777344,-52.49951171875
1751013759318006500,4.307006591796875,-398.941650390625,-158.02532958984375,-52.32395935058594
1751013759328048400,4.31704833984375,-398.9517822265625,-157.9755401611328,-52.35102844238281
1751013759338089500,4.32708935546875,-399.3188171386719,-157.779296875,-52.71931457519531
1751013759348132400,4.33713232421875,-398.9100341796875,-157.72061157226562,-52.56953430175781
1751013759358174200,4.34717431640625,-399.17315673828125,-158.17453002929688,-52.712127685546875
1751013759368215300,4.35721533203125,-398.9821472167969,-157.95431518554688,-52.62193298339844
1751013759378256400,4.36725634765625,-399.090087890625,-158.19522094726562,-52.6234130859375
1751013759388298500,4.377298583984375,-399.011962890625,-158.5048370361328,-53.076629638671875
1751013759398340400,4.38734033203125,-399.395263671875,-158.42872619628906,-52.77510070800781
1751013759408382500,4.397382568359375,-399.04339599609375,-158.1299285888672,-52.93907165527344
1751013759418424300,4.40742431640625,-399.5482177734375,-158.25999450683594,-52.728607177734375
1751013759428465400,4.41746533203125,-399.0728759765625,-158.37164306640625,-53.213470458984375
1751013759438506200,4.42750634765625,-399.2034912109375,-157.93875122070312,-52.725616455078125
1751013759448547300,4.43754736328125,-399.574951171875,-158.2864990234375,-53.05926513671875
1751013759458587400,4.44758740234375,-399.26434326171875,-158.49990844726562,-52.719818115234375
1751013759468627500,4.45762744140625,-399.05938720703125,-158.49673461914062,-52.71800231933594
1751013759478669300,4.46766943359375,-399.5260009765625,-158.3671875,-52.568328857421875
1751013759488710400,4.47771044921875,-399.76031494140625,-158.34716796875,-52.90631103515625
1751013759498752300,4.487752197265625,-399.7933349609375,-158.33058166503906,-52.984771728515625
1751013759508794400,4.49779443359375,-399.922607421875,-157.93417358398438,-52.44752502441406
1751013759518835200,4.507835205078125,-399.5811767578125,-157.8532257080078,-52.15521240234375
1751013759528877600,4.517877685546875,-399.60772705078125,-157.5670928955078,-51.76751708984375
1751013759538919400,4.52791943359375,-399.3118591308594,-157.4929656982422,-51.98944091796875
1751013759548960500,4.53796044921875,-399.5967102050781,-157.53428649902344,-51.89178466796875
1751013759559001300,4.54800146484375,-399.60418701171875,-157.5545196533203,-51.87916564941406
1751013759569042400,4.55804248046875,-399.5361633300781,-157.7195587158203,-51.8677978515625
1751013759579085300,4.568085205078125,-399.84259033203125,-157.3087921142578,-51.725921630859375
1751013759589129500,4.57812939453125,-400.03033447265625,-157.46356201171875,-51.95587158203125
1751013759599172400,4.58817236328125,-399.8066101074219,-157.53579711914062,-51.819915771484375
1751013759609215500,4.598215576171875,-399.60662841796875,-157.35018920898438,-51.793975830078125
1751013759619254300,4.608254150390625,-399.33038330078125,-157.3595733642578,-52.06440734863281
1751013759629303600,4.618303466796875,-399.334228515625,-157.36697387695312,-51.9677734375
1751013759639346400,4.628346435546875,-399.3429870605469,-157.49942016601562,-51.951019287109375
1751013759649391400,4.638391357421875,-399.26031494140625,-157.66246032714844,-51.87486267089844
1751013759659439400,4.648439453125,-400.1164855957031,-157.3495635986328,-52.05513000488281
1751013759669483500,4.6584833984375,-399.30316162109375,-157.55618286132812,-52.131622314453125
1751013759679527400,4.66852734375,-399.1085205078125,-157.34593200683594,-52.14263916015625
1751013759689571300,4.6785712890625,-399.34832763671875,-157.01878356933594,-52.12998962402344
1751013759699611400,4.688611328125,-399.5088806152344,-157.1872100830078,-51.932891845703125
1751013759709660400,4.698660400390625,-399.6812438964844,-156.70196533203125,-51.92041015625
1751013759719703600,4.70870361328125,-399.65277099609375,-157.1325225830078,-51.93769836425781
1751013759729747500,4.71874755859375,-399.54266357421875,-157.01907348632812,-52.064605712890625
1751013759739791400,4.728791259765625,-399.47821044921875,-156.60633850097656,-52.12089538574219
1751013759749831400,4.73883154296875,-399.5513916015625,-156.62533569335938,-51.91766357421875
1751013759759876600,4.748876708984375,-399.4259338378906,-156.62962341308594,-51.83526611328125
1751013759769925400,4.75892529296875,-399.2357482910156,-156.24049377441406,-51.77091979980469
1751013759779965400,4.76896533203125,-399.25885009765625,-156.367431640625,-51.725921630859375
1751013759790014500,4.779014404296875,-399.5304870605469,-156.8641357421875,-52.09423828125
1751013759800058400,4.789058349609375,-399.83099365234375,-156.7270050048828,-51.85105895996094
1751013759810102500,4.7991025390625,-399.6036682128906,-156.2189178466797,-51.34532165527344
1751013759820145400,4.8091455078125,-399.59869384765625,-156.5660858154297,-51.53120422363281
1751013759830189600,4.819189453125,-399.49774169921875,-156.34027099609375,-51.68846130371094
1751013759840232400,4.829232421875,-399.7615661621094,-156.2115936279297,-51.80403137207031
1751013759850276400,4.8392763671875,-399.5054626464844,-156.16941833496094,-51.83006286621094
1751013759860320300,4.8493203125,-399.54248046875,-156.3760528564453,-51.95909118652344
1751013759870364400,4.859364501953125,-399.334228515625,-156.3342742919922,-51.965057373046875
1751013759880408600,4.86940869140625,-399.3531188964844,-156.52488708496094,-51.931549072265625
1751013759890448400,4.879448486328125,-399.2686767578125,-156.68112182617188,-52.00904846191406
1751013759900496400,4.889496337890625,-399.6517639160156,-156.4847412109375,-52.16203308105469
1751013759910539300,4.899539306640625,-399.4256591796875,-156.71975708007812,-51.85546875
1751013759920582700,4.909582763671875,-399.8548278808594,-156.3996124267578,-52.07435607910156
1751013759930623500,4.91962353515625,-400.0523681640625,-156.58233642578125,-52.009674072265625
1751013759940661500,4.92966162109375,-399.40899658203125,-156.38189697265625,-51.53251647949219
1751013759950710500,4.93971044921875,-399.17340087890625,-156.23257446289062,-51.67555236816406
1751013759960753400,4.94975341796875,-399.6885681152344,-156.4045867919922,-51.65850830078125
1751013759970796300,4.95979638671875,-399.5902099609375,-156.3287811279297,-51.87284851074219
1751013759980838700,4.969838623046875,-400.00091552734375,-156.01187133789062,-51.423004150390625
1751013759990880500,4.979880615234375,-399.9493408203125,-156.2908172607422,-51.551605224609375
1751013760000921600,4.989921630859375,-399.10491943359375,-156.2002410888672,-51.21263122558594
1751013760010963500,4.99996337890625,-399.415771484375,-156.35740661621094,-51.26129150390625
1751013760021006300,5.01000634765625,-399.087890625,-156.35963439941406,-51.221038818359375
1751013760031047400,5.02004736328125,-399.51080322265625,-156.30355834960938,-51.567901611328125
1751013760041088300,5.030088134765625,-399.44970703125,-156.13189697265625,-51.17738342285156
1751013760051130600,5.040130615234375,-399.24200439453125,-156.101806640625,-51.43363952636719
1751013760061171500,5.05017138671875,-399.34295654296875,-156.4701385498047,-51.6544189453125
1751013760071213600,5.060213623046875,-399.56378173828125,-156.4249267578125,-51.55177307128906
1751013760081254400,5.07025439453125,-399.58837890625,-156.5664520263672,-51.27268981933594
1751013760091296500,5.080296630859375,-399.891845703125,-156.3802947998047,-51.23931884765625
1751013760101337300,5.09033740234375,-399.65618896484375,-156.4769744873047,-51.39630126953125
1751013760111379500,5.10037939453125,-399.28887939453125,-156.50257873535156,-51.43684387207031
1751013760121421300,5.11042138671875,-399.3646545410156,-156.74172973632812,-51.56813049316406
1751013760131463400,5.12046337890625,-399.2674560546875,-156.65577697753906,-51.50537109375
1751013760141503200,5.130503173828125,-398.80999755859375,-156.57257080078125,-51.6077880859375
1751013760151545600,5.140545654296875,-399.384033203125,-156.60440063476562,-51.91444396972656
1751013760161586400,5.15058642578125,-399.12384033203125,-156.4689178466797,-51.5799560546875
1751013760171627500,5.16062744140625,-399.02532958984375,-156.621337890625,-52.11665344238281
1751013760181669400,5.17066943359375,-399.0546875,-156.48594665527344,-52.03233337402344
1751013760191711500,5.18071142578125,-398.82061767578125,-156.48216247558594,-51.95045471191406
1751013760201752300,5.19075244140625,-398.9963684082031,-156.29566955566406,-51.7437744140625
1751013760211793400,5.20079345703125,-398.96148681640625,-156.6696319580078,-51.93949890136719
1751013760221834500,5.21083447265625,-398.818359375,-156.34002685546875,-51.480194091796875
1751013760231874600,5.22087451171875,-399.32122802734375,-156.1285858154297,-52.00309753417969
1751013760241915400,5.230915283203125,-399.27325439453125,-156.03091430664062,-51.86695861816406
1751013760251955500,5.24095556640625,-398.9258117675781,-155.88070678710938,-51.819610595703125
1751013760261995300,5.250995361328125,-399.40252685546875,-155.7698516845703,-51.82673645019531
1751013760272036400,5.261036376953125,-399.0923767089844,-155.72410583496094,-51.436126708984375
1751013760282077400,5.271077392578125,-399.229736328125,-155.83026123046875,-51.78263854980469
1751013760292118300,5.2811181640625,-399.12109375,-155.58038330078125,-51.71388244628906
1751013760302159400,5.291159423828125,-399.3065185546875,-155.42471313476562,-51.43229675292969
1751013760312200200,5.3012001953125,-398.63720703125,-155.4434051513672,-51.64021301269531
1751013760322242600,5.31124267578125,-399.0625,-155.3397979736328,-51.787353515625
1751013760332285400,5.321285400390625,-399.0225830078125,-155.6554412841797,-51.68597412109375
1751013760342326500,5.331326416015625,-399.0043029785156,-155.41647338867188,-51.22590637207031
1751013760352368400,5.341368408203125,-399.29522705078125,-155.30661010742188,-51.74510192871094
1751013760362410200,5.35141015625,-399.4101867675781,-155.5947723388672,-51.16688537597656
1751013760372452600,5.36145263671875,-398.81842041015625,-155.8411865234375,-50.93559265136719
1751013760382493400,5.371493408203125,-399.06927490234375,-155.3887176513672,-51.065032958984375
1751013760392534500,5.381534423828125,-399.5013732910156,-155.1521453857422,-50.8145751953125
1751013760402576400,5.391576416015625,-399.10552978515625,-155.0929412841797,-51.149139404296875
1751013760412618500,5.401618408203125,-398.9375305175781,-155.447998046875,-50.696746826171875
1751013760422659300,5.411659423828125,-399.07763671875,-154.96836853027344,-50.3759765625
1751013760432699400,5.421699462890625,-399.5552978515625,-154.83108520507812,-50.290191650390625
1751013760442739500,5.431739501953125,-399.378662109375,-154.94566345214844,-49.926788330078125
1751013760452779500,5.441779541015625,-399.17095947265625,-154.99497985839844,-50.27699279785156
1751013760462820600,5.451820556640625,-399.59515380859375,-155.21873474121094,-49.9583740234375
1751013760472862500,5.461862548828125,-399.3046875,-154.99899291992188,-50.01289367675781
1751013760482903600,5.471903564453125,-399.1772155761719,-154.94635009765625,-50.097900390625
1751013760492945400,5.4819453125,-399.022216796875,-155.1184844970703,-50.35404968261719
1751013760502987300,5.4919873046875,-399.1123046875,-155.33497619628906,-49.916717529296875
1751013760513030700,5.50203076171875,-399.774658203125,-155.61354064941406,-49.87384033203125
1751013760523072500,5.512072509765625,-399.6937255859375,-155.39645385742188,-50.20405578613281
1751013760533114400,5.5221142578125,-399.3533935546875,-155.41375732421875,-50.29579162597656
1751013760543156500,5.532156494140625,-399.53216552734375,-155.5625457763672,-50.12638854980469
1751013760553198300,5.5421982421875,-399.4268493652344,-155.26602172851562,-50.13458251953125
1751013760563240400,5.552240478515625,-399.4566650390625,-155.5797119140625,-49.91947937011719
1751013760573283300,5.562283447265625,-399.9341125488281,-155.7373809814453,-50.29127502441406
1751013760583325400,5.572325439453125,-399.5150451660156,-155.63218688964844,-50.33860778808594
1751013760593368600,5.58236865234375,-400.0559387207031,-155.65231323242188,-50.35099792480469
1751013760603410400,5.592410400390625,-399.71820068359375,-155.4442596435547,-49.60762023925781
1751013760613452500,5.60245263671875,-399.67620849609375,-155.23086547851562,-49.76716613769531
1751013760623494400,5.612494384765625,-399.83978271484375,-155.140380859375,-49.715972900390625
1751013760633537500,5.62253759765625,-399.36883544921875,-155.57553100585938,-49.591796875
1751013760643580400,5.632580322265625,-400.2064208984375,-155.40313720703125,-49.652008056640625
1751013760653622300,5.642622314453125,-399.88934326171875,-155.5560760498047,-49.97401428222656
1751013760663659800,5.65265966796875,-400.120849609375,-155.4359893798828,-49.876129150390625
1751013760673703000,5.662702880859375,-400.00738525390625,-155.4111785888672,-49.68218994140625
1751013760683741000,5.672740966796875,-399.92877197265625,-155.82679748535156,-49.55760192871094
1751013760693788000,5.682787841796875,-400.0055847167969,-155.437255859375,-49.94384765625
1751013760703831000,5.6928310546875,-399.9925537109375,-155.3612060546875,-49.74029541015625
1751013760713873000,5.702872802734375,-399.75909423828125,-155.66360473632812,-49.85017395019531
1751013760723915800,5.712915771484375,-399.60540771484375,-155.40904235839844,-49.61363220214844
1751013760733960000,5.7229599609375,-399.93450927734375,-156.10533142089844,-50.18351745605469
1751013760744001800,5.733001708984375,-399.92071533203125,-155.55979919433594,-50.050201416015625
1751013760754045000,5.743044921875,-399.908447265625,-155.6729278564453,-49.85350036621094
1751013760764087800,5.753087890625,-400.3778381347656,-155.70205688476562,-49.866180419921875
1751013760774132000,5.763132080078125,-399.68792724609375,-155.78201293945312,-49.79864501953125
1751013760784174800,5.7731748046875,-399.8251953125,-155.9920654296875,-49.80024719238281
1751013760794217000,5.783217041015625,-399.7806396484375,-155.6407012939453,-49.988433837890625
1751013760804258800,5.7932587890625,-399.88720703125,-155.928955078125,-49.65733337402344
1751013760814299000,5.803298828125,-399.89801025390625,-156.05714416503906,-49.44902038574219
1751013760824340000,5.813340087890625,-399.88726806640625,-155.82247924804688,-49.45611572265625
1751013760834381800,5.8233818359375,-399.94415283203125,-155.74496459960938,-49.458648681640625
1751013760844423000,5.8334228515625,-400.16400146484375,-155.92889404296875,-49.49028015136719
1751013760854463700,5.843463623046875,-399.95220947265625,-155.72793579101562,-49.57672119140625
1751013760864506000,5.853506103515625,-400.01220703125,-155.66561889648438,-49.440704345703125
1751013760874547000,5.863546875,-400.04736328125,-155.37559509277344,-49.92095947265625
1751013760884588000,5.873588134765625,-400.0587158203125,-155.94471740722656,-49.632476806640625
1751013760894629000,5.883629150390625,-399.85498046875,-155.52218627929688,-49.44114685058594
1751013760904671000,5.8936708984375,-399.7154541015625,-155.78746032714844,-49.53797912597656
1751013760914712000,5.903712158203125,-399.855224609375,-155.6749267578125,-49.571533203125
1751013760924754000,5.91375390625,-399.59716796875,-155.9013671875,-49.22679138183594
1751013760934795800,5.923795654296875,-400.09747314453125,-155.76715087890625,-49.82255554199219
1751013760944836900,5.9338369140625,-400.006591796875,-155.41824340820312,-49.29856872558594
1751013760954878700,5.943878662109375,-399.6365966796875,-155.71246337890625,-49.74412536621094
1751013760964921000,5.953921142578125,-399.701171875,-155.7725372314453,-49.86753845214844
1751013760974961000,5.9639609375,-400.16912841796875,-155.63595581054688,-49.559906005859375
1751013760985003000,5.9740029296875,-399.82135009765625,-155.98983764648438,-49.96759033203125
1751013760995043000,5.98404296875,-399.9962158203125,-156.08660888671875,-49.60533142089844
1751013761005084200,5.994084228515625,-399.90447998046875,-155.89894104003906,-49.45698547363281
1751013761015125000,6.004125,-400.08294677734375,-156.2007293701172,-49.83000183105469
1751013761025167000,6.0141669921875,-399.80615234375,-156.03640747070312,-49.92449951171875
1751013761035209000,6.024208984375,-399.87933349609375,-155.8020477294922,-49.45738220214844
1751013761045250000,6.03425,-399.82080078125,-155.95053100585938,-49.57977294921875
1751013761055291000,6.044290771484375,-399.91864013671875,-155.9715118408203,-49.408538818359375
1751013761065331000,6.0543310546875,-399.6326599121094,-156.10060119628906,-49.41896057128906
1751013761075372000,6.0643720703125,-399.95928955078125,-156.06466674804688,-49.36018371582031
1751013761085414000,6.074413818359375,-400.09100341796875,-156.16439819335938,-49.538299560546875
1751013761095456800,6.084456787109375,-400.0640869140625,-156.1857147216797,-49.60185241699219
1751013761105496800,6.094496826171875,-400.254150390625,-156.32510375976562,-49.37300109863281
1751013761115538000,6.104537841796875,-400.01702880859375,-156.7630157470703,-49.67767333984375
1751013761125579000,6.1145791015625,-399.5742492675781,-156.37001037597656,-49.83592224121094
1751013761135620900,6.124620849609375,-400.0455322265625,-156.4025421142578,-49.674652099609375
1751013761145663000,6.1346630859375,-399.9080810546875,-156.52987670898438,-49.885528564453125
1751013761155705000,6.144705078125,-399.31744384765625,-156.4892578125,-49.97218322753906
1751013761165748000,6.154748046875,-399.8323669433594,-156.47023010253906,-49.879791259765625
1751013761175789800,6.164789794921875,-399.93353271484375,-156.54078674316406,-49.44252014160156
1751013761185833000,6.1748330078125,-400.251708984375,-156.61007690429688,-49.970703125
1751013761195875800,6.184875732421875,-399.8564453125,-156.249755859375,-50.10308837890625
1751013761205919000,6.1949189453125,-399.7962646484375,-156.36312866210938,-49.930633544921875
1751013761215961900,6.2049619140625,-400.0502014160156,-156.1975860595703,-49.97100830078125
1751013761226004700,6.215004638671875,-400.18524169921875,-156.2440643310547,-49.90608215332031
1751013761236049000,6.225048828125,-399.79559326171875,-156.19082641601562,-49.47755432128906
1751013761246091000,6.235091064453125,-400.1006164550781,-156.37667846679688,-49.436279296875
1751013761256132900,6.2451328125,-400.26141357421875,-156.2578887939453,-49.64637756347656
1751013761266175000,6.255175048828125,-400.44329833984375,-156.6201934814453,-49.831451416015625
1751013761276217900,6.2652177734375,-400.0583190917969,-156.39187622070312,-49.86546325683594
1751013761286257200,6.275257080078125,-400.0884704589844,-156.45181274414062,-50.08549499511719
1751013761296305000,6.285304931640625,-399.936767578125,-156.2081756591797,-50.07012939453125
1751013761306347800,6.29534765625,-399.5514831542969,-155.99562072753906,-49.83680725097656
1751013761316391000,6.305390869140625,-399.7113037109375,-156.3331756591797,-50.00822448730469
1751013761326433800,6.315433837890625,-399.4128112792969,-156.5703887939453,-50.02912902832031
1751013761336476000,6.325475830078125,-399.929443359375,-156.3462371826172,-49.89033508300781
1751013761346516700,6.335516845703125,-400.041015625,-156.11074829101562,-49.81864929199219
1751013761356559000,6.34555908203125,-400.27197265625,-156.2300262451172,-49.70819091796875
1751013761366600000,6.355599853515625,-399.7601318359375,-156.1732635498047,-49.66746520996094
1751013761376642000,6.36564208984375,-400.10028076171875,-156.30966186523438,-49.86204528808594
1751013761386683000,6.375682861328125,-400.06585693359375,-156.4004669189453,-49.95625305175781
1751013761396725000,6.38572509765625,-399.70184326171875,-156.43211364746094,-49.59550476074219
1751013761406765800,6.395765869140625,-399.5055847167969,-155.96905517578125,-49.92295837402344
1751013761416808000,6.405807861328125,-399.86419677734375,-156.25901794433594,-49.88871765136719
1751013761426848800,6.415848876953125,-400.03363037109375,-156.1553955078125,-49.99369812011719
1751013761436889900,6.425889892578125,-399.87091064453125,-156.50550842285156,-49.9327392578125
1751013761446931000,6.435930908203125,-399.94305419921875,-156.0083770751953,-49.83497619628906
1751013761456972800,6.445972900390625,-399.4703369140625,-156.0235137939453,-49.939422607421875
1751013761467015000,6.456014892578125,-399.3979797363281,-156.3759307861328,-49.8551025390625
1751013761477057000,6.46605712890625,-400.19189453125,-156.58248901367188,-50.20317077636719
1751013761487099000,6.476098876953125,-399.84173583984375,-156.17242431640625,-50.2694091796875
1751013761497141000,6.48614111328125,-399.76904296875,-156.16700744628906,-49.914215087890625
1751013761507182800,6.496182861328125,-400.2046813964844,-156.1837158203125,-49.89323425292969
1751013761517225000,6.506224853515625,-399.95465087890625,-156.39857482910156,-49.72099304199219
1751013761527266000,6.51626611328125,-399.7873840332031,-156.3633575439453,-49.69818115234375
1751013761537308000,6.526307861328125,-399.9268798828125,-156.12196350097656,-49.91473388671875
1751013761547350800,6.536350830078125,-399.9380798339844,-156.00271606445312,-49.841217041015625
1751013761557393000,6.546392822265625,-400.1894836425781,-156.53521728515625,-49.969085693359375
1751013761567435000,6.55643505859375,-399.84765625,-155.96224975585938,-49.61695861816406
1751013761577478000,6.566477783203125,-399.7637939453125,-156.20909118652344,-49.59623718261719
1751013761587515000,6.576514892578125,-399.72235107421875,-156.0989532470703,-49.712554931640625
1751013761597563100,6.586563232421875,-399.37261962890625,-156.21311950683594,-49.972900390625
1751013761607606000,6.59660595703125,-399.3841552734375,-156.52406311035156,-49.67314147949219
1751013761617649000,6.60664892578125,-399.22113037109375,-156.48712158203125,-49.43812561035156
1751013761627692000,6.616692138671875,-400.09954833984375,-156.20590209960938,-49.882354736328125
1751013761637735000,6.62673486328125,-399.7767639160156,-156.19895935058594,-49.74891662597656
1751013761647778000,6.636778076171875,-399.18695068359375,-156.1489715576172,-49.71563720703125
1751013761657821700,6.64682177734375,-399.943115234375,-156.6607208251953,-49.79667663574219
1751013761667862500,6.656862548828125,-400.2651062011719,-156.1704864501953,-49.9998779296875
1751013761677905700,6.66690576171875,-399.59661865234375,-156.10983276367188,-49.816650390625
1751013761687949600,6.676949462890625,-399.8482666015625,-156.3895263671875,-49.88621520996094
1751013761697992400,6.686992431640625,-399.80322265625,-156.43670654296875,-49.53669738769531
1751013761708035600,6.69703564453125,-399.4090881347656,-156.13406372070312,-49.81048583984375
1751013761718078700,6.70707861328125,-400.16290283203125,-156.58058166503906,-49.82929992675781
1751013761728121600,6.71712158203125,-400.16522216796875,-156.50509643554688,-49.5452880859375
1751013761738164700,6.727164794921875,-399.1593322753906,-156.38267517089844,-49.37443542480469
1751013761748208600,6.737208740234375,-399.5086669921875,-156.0395050048828,-49.40657043457031
1751013761758251800,6.747251708984375,-400.06158447265625,-156.42408752441406,-49.94331359863281
1751013761768294700,6.757294677734375,-399.77288818359375,-156.4871826171875,-49.602264404296875
1751013761778336500,6.76733642578125,-399.58184814453125,-156.58218383789062,-49.95503234863281
1751013761788378400,6.77737841796875,-399.234619140625,-156.5807647705078,-49.60772705078125
1751013761798421500,6.78742138671875,-400.20367431640625,-156.31961059570312,-49.82847595214844
1751013761808465400,6.79746533203125,-399.8131408691406,-156.5135498046875,-50.36151123046875
1751013761818507800,6.8075078125,-399.60992431640625,-156.78076171875,-49.807281494140625
1751013761828551400,6.817551513671875,-400.44720458984375,-156.42994689941406,-50.00959777832031
1751013761838593500,6.827593505859375,-400.1796875,-156.74073791503906,-49.77191162109375
1751013761848636700,6.83763671875,-399.8819580078125,-156.3242950439453,-49.64616394042969
1751013761858679600,6.847679443359375,-400.34808349609375,-156.32009887695312,-49.62614440917969
1751013761868722700,6.85772265625,-400.35931396484375,-156.60467529296875,-49.56895446777344
1751013761878766600,6.8677666015625,-400.34967041015625,-156.59756469726562,-49.581207275390625
1751013761888808400,6.877808349609375,-400.386962890625,-156.2104949951172,-49.868255615234375
1751013761898849500,6.887849609375,-400.0894775390625,-156.30784606933594,-49.66059875488281
1751013761908890400,6.897890380859375,-400.1944580078125,-156.3772735595703,-50.04594421386719
1751013761918931500,6.907931396484375,-399.865966796875,-156.5490264892578,-49.5802001953125
1751013761928973600,6.9179736328125,-400.4844970703125,-156.27490234375,-49.78092956542969
1751013761939015700,6.928015625,-399.80584716796875,-156.3860321044922,-49.61921691894531
1751013761949056500,6.938056396484375,-400.05096435546875,-156.64080810546875,-49.76222229003906
1751013761959099600,6.948099609375,-400.0198059082031,-156.42233276367188,-49.989593505859375
1751013761969141500,6.9581416015625,-400.4749755859375,-156.467041015625,-50.12117004394531
1751013761979182600,6.9681826171875,-400.520263671875,-156.3391571044922,-49.98490905761719
1751013761989222400,6.978222412109375,-400.32586669921875,-156.42080688476562,-49.69013977050781
1751013761999263500,6.988263427734375,-400.5001220703125,-156.48326110839844,-49.83750915527344
1751013762009305600,6.9983056640625,-400.08197021484375,-156.31610107421875,-49.88130187988281
1751013762019346400,7.008346435546875,-400.03009033203125,-156.3292999267578,-49.75355529785156
1751013762029387500,7.018387451171875,-400.4801940917969,-156.21563720703125,-50.121337890625
1751013762039427600,7.028427490234375,-400.255615234375,-156.42063903808594,-49.57450866699219
1751013762049469400,7.038469482421875,-400.38580322265625,-156.3542938232422,-49.97758483886719
1751013762059510500,7.048510498046875,-400.15716552734375,-156.49082946777344,-49.44000244140625
1751013762069553700,7.0585537109375,-400.1851806640625,-156.39138793945312,-49.669097900390625
1751013762079596500,7.068596435546875,-400.1511535644531,-156.2566680908203,-49.725189208984375
1751013762089638400,7.078638427734375,-399.8226318359375,-156.4026641845703,-49.69758605957031
1751013762099680800,7.0886806640625,-400.2771301269531,-156.2430877685547,-49.576873779296875
1751013762109722600,7.09872265625,-400.44482421875,-156.26039123535156,-49.61299133300781
1751013762119763700,7.108763671875,-400.8537902832031,-156.66952514648438,-50.017486572265625
1751013762129805600,7.1188056640625,-400.4245910644531,-156.52932739257812,-49.64460754394531
1751013762139847400,7.128847412109375,-400.71002197265625,-156.05165100097656,-49.80322265625
1751013762149888500,7.138888427734375,-400.1872863769531,-156.37603759765625,-49.37164306640625
1751013762159928600,7.148928466796875,-400.09893798828125,-156.2391357421875,-49.38182067871094
1751013762169970400,7.158970458984375,-400.0947265625,-156.13568115234375,-49.56385803222656
1751013762180012800,7.1690126953125,-400.392822265625,-156.6038055419922,-49.70164489746094
1751013762190054700,7.1790546875,-400.0262451171875,-156.65145874023438,-49.530517578125
1751013762200097500,7.18909765625,-400.00531005859375,-156.49984741210938,-49.51731872558594
1751013762210139400,7.199139404296875,-400.35809326171875,-156.43600463867188,-49.34846496582031
1751013762220182800,7.209182861328125,-400.0827331542969,-156.229736328125,-49.94203186035156
1751013762230223600,7.2192236328125,-400.4609375,-156.4224853515625,-49.91969299316406
1751013762240265700,7.229265625,-399.8707580566406,-156.63775634765625,-49.883392333984375
1751013762250307600,7.2393076171875,-400.1653137207031,-156.5020294189453,-49.787811279296875
1751013762260348700,7.2493486328125,-400.0022888183594,-156.2120361328125,-50.32609558105469
1751013762270390500,7.259390625,-400.23944091796875,-156.56365966796875,-50.50543212890625
1751013762280432600,7.2694326171875,-399.76947021484375,-156.34405517578125,-50.40489196777344
1751013762290474800,7.279474853515625,-400.18658447265625,-156.89894104003906,-50.53071594238281
1751013762300515600,7.289515625,-400.0403747558594,-156.76882934570312,-50.50450134277344
1751013762310557700,7.2995576171875,-399.7721862792969,-157.08689880371094,-50.56353759765625
1751013762320599600,7.309599609375,-400.01416015625,-156.5815887451172,-50.50953674316406
1751013762330640600,7.319640625,-400.031982421875,-156.55557250976562,-50.35997009277344
1751013762340682500,7.3296826171875,-400.43603515625,-156.978759765625,-50.40679931640625
1751013762350724600,7.339724609375,-400.228271484375,-156.75181579589844,-50.43157958984375
1751013762360766700,7.3497666015625,-400.23382568359375,-156.5471649169922,-50.38853454589844
1751013762370808600,7.35980859375,-399.8200378417969,-156.71278381347656,-50.70928955078125
1751013762380850400,7.369850341796875,-400.154296875,-156.58859252929688,-50.536468505859375
1751013762390891500,7.3798916015625,-399.97674560546875,-156.80043029785156,-50.39195251464844
1751013762400933600,7.38993359375,-400.4117126464844,-156.578369140625,-50.54112243652344
1751013762410975700,7.399975830078125,-399.8782653808594,-156.7667694091797,-50.61222839355469
1751013762421017600,7.410017578125,-400.3159484863281,-156.87847900390625,-50.81004333496094
1751013762431058700,7.42005859375,-400.53338623046875,-157.01971435546875,-50.60707092285156
1751013762441100500,7.4301005859375,-400.5537109375,-157.21170043945312,-50.704986572265625
1751013762451141600,7.4401416015625,-400.27667236328125,-157.30596923828125,-50.775787353515625
1751013762461184500,7.4501845703125,-399.96331787109375,-156.97622680664062,-50.421173095703125
1751013762471226600,7.4602265625,-399.7891845703125,-156.83462524414062,-50.41668701171875
1751013762481268700,7.470268798828125,-399.5087585449219,-156.7687530517578,-50.34532165527344
1751013762491310600,7.480310546875,-400.0356750488281,-156.92466735839844,-50.300018310546875
1751013762501352400,7.4903525390625,-400.4242248535156,-156.912109375,-50.423004150390625
1751013762511394600,7.50039453125,-400.229248046875,-156.8107147216797,-50.51789855957031
1751013762521435400,7.510435302734375,-400.5118713378906,-156.73233032226562,-50.4715576171875
1751013762531477800,7.520477783203125,-400.03009033203125,-156.82003784179688,-50.696868896484375
1751013762541519600,7.53051953125,-399.66241455078125,-156.7692413330078,-50.751678466796875
1751013762551562500,7.5405625,-399.5758361816406,-156.78057861328125,-50.52391052246094
1751013762561605600,7.550605712890625,-399.6446838378906,-156.75521850585938,-51.0830078125
1751013762571648500,7.5606484375,-400.25445556640625,-157.34519958496094,-50.88844299316406
1751013762581690600,7.570690673828125,-400.2145080566406,-156.71682739257812,-50.978363037109375
1751013762591733800,7.580733642578125,-400.4609375,-157.14071655273438,-50.942718505859375
1751013762601775600,7.590775634765625,-399.896728515625,-156.5901641845703,-50.58061218261719
1751013762611819500,7.600819580078125,-400.14044189453125,-156.94920349121094,-50.80287170410156
1751013762621863700,7.61086376953125,-400.9572448730469,-156.68482971191406,-50.81500244140625
1751013762631906600,7.620906494140625,-400.25152587890625,-156.9404754638672,-50.989349365234375
1751013762641950700,7.63095068359375,-400.2291259765625,-156.8514862060547,-50.69093322753906
1751013762651994600,7.64099462890625,-400.1815185546875,-157.0703125,-51.15380859375
1751013762662038000,7.6510380859375,-400.35491943359375,-156.58668518066406,-50.71119689941406
1751013762672081000,7.661080810546875,-399.7783203125,-156.62867736816406,-50.69789123535156
1751013762682123000,7.671123046875,-400.27252197265625,-157.0638427734375,-50.876800537109375
1751013762692165000,7.6811650390625,-399.9688415527344,-156.55674743652344,-50.7901611328125
1751013762702207000,7.69120703125,-400.7110900878906,-156.726806640625,-50.83984375
1751013762712249000,7.7012490234375,-400.33868408203125,-156.8895263671875,-50.75459289550781
1751013762722291000,7.711291015625,-400.0086669921875,-156.7288055419922,-50.390289306640625
1751013762732333000,7.7213330078125,-400.1037292480469,-156.8808135986328,-50.92912292480469
1751013762742376200,7.731376220703125,-399.94122314453125,-156.65567016601562,-50.776611328125
1751013762752418000,7.74141796875,-399.96978759765625,-156.90638732910156,-51.07310485839844
1751013762762461000,7.7514609375,-400.3773193359375,-156.95680236816406,-50.76533508300781
1751013762772504000,7.761504150390625,-400.019775390625,-156.89324951171875,-50.743408203125
1751013762782547000,7.771546875,-400.03082275390625,-157.0880889892578,-50.68772888183594
1751013762792589000,7.781589111328125,-399.83807373046875,-156.72036743164062,-51.06169128417969
1751013762802627000,7.791626953125,-400.1844482421875,-156.8331298828125,-50.994110107421875
1751013762812674000,7.801674072265625,-400.4660949707031,-156.86085510253906,-50.969818115234375
1751013762822717000,7.811717041015625,-400.2215576171875,-156.6315460205078,-51.10621643066406
1751013762832760000,7.821760009765625,-399.84185791015625,-157.03628540039062,-50.68424987792969
1751013762842803000,7.831802978515625,-400.26739501953125,-156.8779754638672,-50.680999755859375
1751013762852845000,7.841844970703125,-400.33123779296875,-156.9375457763672,-51.16059875488281
1751013762862887200,7.85188720703125,-399.649169921875,-156.85545349121094,-50.642242431640625
1751013762872930000,7.861929931640625,-399.63360595703125,-156.7314453125,-51.04278564453125
1751013762882974200,7.87197412109375,-399.96002197265625,-156.54501342773438,-50.815460205078125
1751013762893017000,7.88201708984375,-399.885009765625,-157.0729217529297,-50.95684814453125
1751013762903060000,7.89206005859375,-399.7108154296875,-156.903076171875,-50.84266662597656
1751013762913102000,7.90210205078125,-399.9244384765625,-157.11582946777344,-51.11582946777344
1751013762923143200,7.91214306640625,-399.472412109375,-156.828369140625,-51.308258056640625
1751013762933183000,7.922182861328125,-399.951416015625,-157.08837890625,-50.95463562011719
1751013762943224000,7.93222412109375,-399.83673095703125,-156.80929565429688,-51.06288146972656
1751013762953266200,7.94226611328125,-400.4705505371094,-156.86216735839844,-51.09898376464844
1751013762963309000,7.95230908203125,-399.99267578125,-156.906494140625,-50.867095947265625
1751013762973351000,7.962350830078125,-399.59466552734375,-156.55186462402344,-50.7032470703125
1751013762983393000,7.97239306640625,-399.9859619140625,-156.99490356445312,-50.77056884765625
1751013762993433900,7.982433837890625,-399.732177734375,-156.93426513671875,-50.69261169433594
1751013763003476200,7.992476318359375,-399.4559326171875,-156.9827117919922,-50.89891052246094
1751013763013517000,8.00251708984375,-399.8262939453125,-156.97120666503906,-50.86402893066406
1751013763023558100,8.01255810546875,-399.8845520019531,-156.96170043945312,-51.04884338378906
1751013763033599200,8.02259912109375,-399.8796081542969,-156.8377685546875,-50.917022705078125
1751013763043639000,8.03263916015625,-400.01812744140625,-156.76101684570312,-51.077362060546875
1751013763053679000,8.04267919921875,-400.4020690917969,-156.95606994628906,-50.95826721191406
1751013763063720000,8.052719970703125,-400.47314453125,-157.1138153076172,-50.68772888183594
1751013763073760000,8.062760009765626,-400.29803466796875,-156.95648193359375,-50.83726501464844
1751013763083801000,8.072801025390625,-399.9981689453125,-156.92568969726562,-50.79042053222656
1751013763093842000,8.082842041015626,-400.27642822265625,-156.800537109375,-50.81549072265625
1751013763103882000,8.092882080078125,-400.345458984375,-156.64578247070312,-50.74266052246094
1751013763113922000,8.102922119140626,-400.3403015136719,-156.88124084472656,-50.71507263183594
1751013763123963100,8.112963134765625,-399.89471435546875,-156.80223083496094,-50.47160339355469
1751013763134004200,8.123004150390624,-399.85394287109375,-156.86599731445312,-50.331817626953125
1751013763144045000,8.133045166015625,-399.3080139160156,-156.91598510742188,-50.67509460449219
1751013763154086100,8.143086181640625,-400.2374267578125,-156.6995086669922,-50.781951904296875
1751013763164128000,8.1531279296875,-400.3327941894531,-156.8283233642578,-50.71002197265625
1751013763174170000,8.163170166015625,-400.1003112792969,-156.6375732421875,-50.71234130859375
1751013763184211000,8.1732109375,-399.7627258300781,-156.6752471923828,-50.76118469238281
1751013763194251000,8.1832509765625,-400.125732421875,-156.5633544921875,-50.70130920410156
1751013763204292000,8.1932919921875,-400.46044921875,-156.82546997070312,-50.87611389160156
1751013763214333200,8.203333251953126,-400.2304992675781,-156.3745574951172,-50.940185546875
1751013763224374000,8.2133740234375,-400.5675964355469,-157.044921875,-50.92816162109375
1751013763234416000,8.223416015625,-400.92059326171875,-156.67308044433594,-50.71647644042969
1751013763244458000,8.2334580078125,-400.11358642578125,-156.5819854736328,-51.15191650390625
1751013763254500000,8.2435,-400.3390808105469,-156.5944366455078,-50.85614013671875
1751013763264542200,8.253542236328125,-400.24090576171875,-156.77703857421875,-50.69715881347656
1751013763274585000,8.263585205078124,-399.81549072265625,-156.79876708984375,-51.233367919921875
1751013763284627000,8.273626953125,-400.0616149902344,-156.77418518066406,-50.84675598144531
1751013763294671000,8.283671142578125,-400.2600402832031,-156.6940460205078,-50.95213317871094
1751013763304714000,8.2937138671875,-400.49462890625,-156.9226837158203,-50.69728088378906
1751013763314755000,8.303755126953124,-400.40618896484375,-156.78976440429688,-50.89765930175781
1751013763324798200,8.313798095703126,-400.22576904296875,-156.89666748046875,-50.882537841796875
1751013763334836000,8.3238359375,-400.36602783203125,-156.9688262939453,-50.77314758300781
1751013763344884200,8.33388427734375,-400.70440673828125,-157.11297607421875,-50.34907531738281
1751013763354920200,8.343920166015625,-400.41168212890625,-156.94940185546875,-50.981903076171875
1751013763364968000,8.353968017578126,-400.48382568359375,-156.89793395996094,-50.955780029296875
1751013763375010000,8.364010009765625,-400.01031494140625,-156.96768188476562,-51.07322692871094
1751013763385052000,8.374052001953125,-400.41455078125,-156.5704345703125,-50.89399719238281
1751013763395094300,8.38409423828125,-399.635498046875,-156.70021057128906,-50.90580749511719
1751013763405136100,8.39413623046875,-399.79296875,-156.88406372070312,-51.08625793457031
1751013763415179000,8.404178955078125,-399.79620361328125,-156.8066864013672,-51.08674621582031
1751013763425220900,8.414220947265624,-400.2991943359375,-156.4491729736328,-50.938446044921875
1751013763435263200,8.42426318359375,-400.0318603515625,-156.59864807128906,-50.89068603515625
1751013763445305000,8.43430517578125,-399.8211975097656,-156.66064453125,-50.779876708984375
1751013763455348000,8.444347900390625,-400.3797607421875,-156.65174865722656,-50.914886474609375
1751013763465390000,8.45439013671875,-400.1777038574219,-156.808349609375,-50.52616882324219
1751013763475432200,8.46443212890625,-399.90863037109375,-156.70718383789062,-50.40838623046875
1751013763485474000,8.47447412109375,-400.47607421875,-156.58973693847656,-50.63960266113281
1751013763495515100,8.48451513671875,-399.9923095703125,-156.879150390625,-50.89921569824219
1751013763505556200,8.49455615234375,-399.6454162597656,-157.1566619873047,-50.56793212890625
1751013763515598000,8.50459814453125,-400.03857421875,-156.62612915039062,-50.84429931640625
1751013763525639200,8.51463916015625,-400.0872802734375,-156.9444580078125,-50.479522705078125
1751013763535680000,8.524679931640625,-400.31396484375,-156.9498748779297,-50.818603515625
1751013763545721000,8.53472119140625,-399.80126953125,-156.93724060058594,-50.673309326171875
1751013763555763000,8.544762939453125,-400.208740234375,-157.01657104492188,-50.66841125488281
1751013763565805000,8.55480517578125,-400.1042175292969,-156.9817657470703,-50.76136779785156
1751013763575846000,8.564845947265624,-400.41424560546875,-157.10025024414062,-51.1419677734375
1751013763585886000,8.574885986328125,-400.22882080078125,-156.98934936523438,-50.87303161621094
1751013763595928000,8.584927978515625,-400.0934143066406,-156.7942657470703,-51.061126708984375
1751013763605965000,8.594965087890625,-400.57537841796875,-156.98548889160156,-50.99806213378906
1751013763616012000,8.605011962890625,-400.614013671875,-156.8610382080078,-51.194854736328125
1751013763626053000,8.61505322265625,-400.7374267578125,-157.31211853027344,-50.927276611328125
1751013763636094200,8.62509423828125,-400.2468566894531,-156.93283081054688,-50.7939453125
1751013763646134000,8.635134033203125,-399.86968994140625,-157.13656616210938,-51.11332702636719
1751013763656175000,8.645175048828126,-399.95440673828125,-157.11508178710938,-50.92529296875
1751013763666217700,8.6552177734375,-400.07159423828125,-156.94607543945312,-51.12078857421875
1751013763676259800,8.665259765625,-399.99072265625,-156.77349853515625,-50.82623291015625
1751013763686301700,8.6753017578125,-400.18096923828125,-156.9483184814453,-51.35768127441406
1751013763696342800,8.6853427734375,-400.5714111328125,-157.02345275878906,-51.32740783691406
1751013763706382800,8.6953828125,-400.08258056640625,-157.00653076171875,-50.80506896972656
1751013763716423000,8.7054228515625,-399.77880859375,-156.94300842285156,-50.70155334472656
1751013763726463700,8.715463623046874,-400.17388916015625,-156.96041870117188,-50.980560302734375
1751013763736504800,8.7255048828125,-400.2672119140625,-156.93081665039062,-50.89556884765625
1751013763746546700,8.735546630859375,-399.92529296875,-156.86270141601562,-51.133453369140625
1751013763756588800,8.7455888671875,-400.32086181640625,-156.85801696777344,-51.07395935058594
1751013763766629600,8.755629638671875,-399.9966735839844,-156.4347686767578,-50.98191833496094
1751013763776669700,8.765669677734374,-400.3281555175781,-156.68194580078125,-50.75715637207031
1751013763786711800,8.7757119140625,-400.26495361328125,-156.4480438232422,-50.94859313964844
1751013763796752600,8.785752685546875,-399.9586181640625,-156.88095092773438,-50.59663391113281
1751013763806793700,8.795793701171876,-400.0645751953125,-156.76063537597656,-50.94496154785156
1751013763816833800,8.805833740234375,-400.534423828125,-156.91543579101562,-51.126068115234375
1751013763826874600,8.81587451171875,-400.2110595703125,-157.3800048828125,-51.20433044433594
1751013763836916700,8.825916748046875,-400.55322265625,-156.99623107910156,-51.09443664550781
1751013763846957600,8.83595751953125,-400.34527587890625,-157.34228515625,-51.14735412597656
1751013763856998700,8.84599853515625,-400.14654541015625,-156.86297607421875,-51.330810546875
1751013763867040500,8.85604052734375,-400.227783203125,-157.23574829101562,-51.173431396484375
1751013763877080600,8.86608056640625,-400.4621276855469,-157.01824951171875,-50.72651672363281
1751013763887121700,8.87612158203125,-399.98748779296875,-156.79774475097656,-51.18147277832031
1751013763897163500,8.88616357421875,-400.0691833496094,-156.90541076660156,-50.860870361328125
1751013763907206700,8.89620654296875,-400.88604736328125,-156.782958984375,-50.854766845703125
1751013763917247700,8.906247802734375,-400.47308349609375,-156.88037109375,-50.94598388671875
1751013763927290600,8.91629052734375,-400.65936279296875,-156.70436096191406,-50.803314208984375
1751013763937331700,8.926331787109374,-400.1504211425781,-157.03814697265625,-50.814117431640625
1751013763947372800,8.936372802734375,-399.8514709472656,-157.0125274658203,-50.81059265136719
1751013763957414700,8.94641455078125,-400.02215576171875,-156.83839416503906,-50.83576965332031
1751013763967454700,8.956454833984376,-400.49169921875,-156.7122039794922,-50.80694580078125
1751013763977497900,8.966497802734375,-400.4849853515625,-157.1342010498047,-50.91007995605469
1751013763987538700,8.97653857421875,-399.81549072265625,-156.6641387939453,-50.48863220214844
1751013763997579800,8.986579833984376,-399.4850769042969,-156.61685180664062,-50.47590637207031
1751013764007619600,8.99661962890625,-400.50347900390625,-156.4300994873047,-50.8585205078125
1751013764017660700,9.00666064453125,-400.0892028808594,-156.57606506347656,-50.27778625488281
1751013764027699700,9.01669970703125,-400.41845703125,-156.81674194335938,-50.70445251464844
1751013764037740800,9.02674072265625,-399.91973876953125,-156.42649841308594,-50.732574462890625
1751013764047781600,9.03678173828125,-400.41925048828125,-156.70297241210938,-50.815521240234375
1751013764057823700,9.04682373046875,-399.96514892578125,-156.70529174804688,-50.85075378417969
1751013764067863800,9.05686376953125,-399.79144287109375,-156.5498504638672,-50.36567687988281
1751013764077904600,9.066904541015624,-399.9643859863281,-157.12486267089844,-50.63032531738281
1751013764087946800,9.07694677734375,-399.9556884765625,-156.57533264160156,-50.961212158203125
1751013764097986800,9.08698681640625,-400.18341064453125,-156.82643127441406,-50.76531982421875
1751013764108028700,9.097028564453124,-400.22589111328125,-156.86663818359375,-50.876617431640625
1751013764118069800,9.10706982421875,-400.391845703125,-156.98724365234375,-50.82072448730469
1751013764128111600,9.117111572265625,-400.04443359375,-156.94406127929688,-50.915679931640625
1751013764138153700,9.12715380859375,-400.2059326171875,-157.1420440673828,-51.034210205078125
1751013764148195800,9.13719580078125,-400.92779541015625,-156.96351623535156,-50.738433837890625
1751013764158237700,9.14723779296875,-400.268310546875,-156.9429473876953,-50.667510986328125
1751013764168278800,9.15727880859375,-399.838623046875,-156.90585327148438,-50.85768127441406
1751013764178320600,9.167320556640625,-399.88092041015625,-156.75218200683594,-50.80757141113281
1751013764188362500,9.177362548828125,-399.96954345703125,-156.80982971191406,-51.04695129394531
1751013764198404900,9.18740478515625,-400.025634765625,-156.714111328125,-50.61024475097656
1751013764208445700,9.19744580078125,-399.9628601074219,-156.88287353515625,-50.99067687988281
1751013764218487800,9.20748779296875,-400.41448974609375,-157.1055450439453,-50.567840576171875
1751013764228529700,9.21752978515625,-400.0401611328125,-156.88858032226562,-50.92817687988281
1751013764238571500,9.227571533203125,-400.41229248046875,-157.07908630371094,-51.30848693847656
1751013764248612600,9.237612548828125,-399.8345642089844,-156.8446044921875,-50.89288330078125
1751013764258654700,9.24765478515625,-400.3983154296875,-156.92698669433594,-50.745880126953125
1751013764268695600,9.257695556640625,-399.86676025390625,-156.5797576904297,-51.23332214355469
1751013764278737000,9.26773681640625,-400.4057312011719,-156.8520965576172,-50.42759704589844
1751013764288777700,9.27777783203125,-400.45697021484375,-157.1070098876953,-50.74278259277344
1751013764298818800,9.28781884765625,-400.4768981933594,-156.46360778808594,-50.774383544921875
1751013764308860700,9.297860595703124,-399.94561767578125,-156.427978515625,-50.674072265625
1751013764318901800,9.30790185546875,-400.0345153808594,-156.5457763671875,-50.49778747558594
1751013764328941800,9.31794189453125,-399.9766845703125,-156.5499725341797,-50.599517822265625
1751013764338983000,9.32798291015625,-400.292236328125,-156.8498992919922,-50.53666687011719
1751013764349022700,9.338022705078124,-400.03302001953125,-156.2693634033203,-50.55513000488281
1751013764359063600,9.3480634765625,-400.14605712890625,-156.70974731445312,-50.34759521484375
1751013764369103600,9.358103515625,-400.1121826171875,-156.82032775878906,-50.42919921875
1751013764379145700,9.368145751953126,-400.28070068359375,-156.52703857421875,-50.38996887207031
1751013764389186600,9.3781865234375,-400.17010498046875,-156.4375457763672,-50.5751953125
1751013764399229000,9.38822900390625,-400.1208801269531,-156.6595916748047,-50.38861083984375
1751013764409269800,9.398269775390625,-400.1326904296875,-156.60595703125,-50.60020446777344
1751013764419311900,9.408311767578125,-399.900634765625,-156.73362731933594,-50.92791748046875
1751013764429351700,9.4183515625,-399.98077392578125,-156.64112854003906,-50.985321044921875
1751013764439392800,9.428392822265625,-400.2375183105469,-156.8578338623047,-50.929443359375
1751013764449435000,9.438434814453124,-400.2603759765625,-156.6215362548828,-50.9449462890625
1751013764459475700,9.448475830078126,-400.01129150390625,-156.78892517089844,-50.97200012207031
1751013764469516800,9.458516845703125,-400.50555419921875,-156.69862365722656,-50.818084716796875
1751013764479558700,9.46855859375,-400.50726318359375,-156.765869140625,-50.8092041015625
1751013764489598700,9.4785986328125,-400.3316345214844,-156.57359313964844,-50.94929504394531
1751013764499637500,9.488637451171876,-400.23626708984375,-156.54873657226562,-50.530792236328125
1751013764509677600,9.498677490234375,-400.45465087890625,-156.6505584716797,-50.80084228515625
1751013764519718700,9.50871875,-399.9516906738281,-156.5078582763672,-50.49821472167969
1751013764529756000,9.518755859375,-400.38299560546875,-156.92527770996094,-50.71504211425781
1751013764539803000,9.528802978515625,-400.4967346191406,-156.5924072265625,-50.74876403808594
1751013764549845800,9.538845703125,-400.5191650390625,-156.86013793945312,-50.78239440917969
1751013764559887600,9.5488876953125,-400.35986328125,-156.97152709960938,-51.02265930175781
1751013764569928700,9.5589287109375,-400.07598876953125,-157.03565979003906,-50.870208740234375
1751013764579971800,9.568971923828125,-400.45074462890625,-156.5873565673828,-50.28959655761719
1751013764590013700,9.579013671875,-400.010498046875,-156.3365020751953,-50.424835205078125
1751013764600050700,9.58905078125,-400.2461242675781,-156.537841796875,-50.56938171386719
1751013764610097700,9.59909765625,-399.9805908203125,-156.58428955078125,-50.56011962890625
1751013764620139500,9.609139404296876,-400.0435791015625,-156.44741821289062,-50.469451904296875
1751013764630180600,9.6191806640625,-399.9191589355469,-156.71839904785156,-50.63627624511719
1751013764640222700,9.62922265625,-400.5014953613281,-156.45672607421875,-50.50907897949219
1751013764650263800,9.639263916015626,-400.1756896972656,-156.59129333496094,-50.65650939941406
1751013764660305200,9.64930517578125,-399.7989501953125,-156.4974365234375,-50.60986328125
1751013764670346200,9.65934619140625,-399.762451171875,-156.43240356445312,-50.39637756347656
1751013764680387300,9.66938720703125,-400.2289733886719,-156.7952117919922,-50.52900695800781
1751013764690428200,9.67942822265625,-399.734375,-156.9426727294922,-50.28898620605469
1751013764700470300,9.68947021484375,-400.0438232421875,-156.80087280273438,-50.51141357421875
1751013764710511000,9.699510986328125,-399.8653869628906,-156.6822052001953,-50.890380859375
1751013764720552200,9.70955224609375,-399.75958251953125,-156.85057067871094,-50.4786376953125
1751013764730593300,9.71959326171875,-400.02337646484375,-157.11019897460938,-50.60664367675781
1751013764740633300,9.72963330078125,-400.5757141113281,-156.46676635742188,-50.51829528808594
1751013764750674200,9.739674072265625,-400.50189208984375,-156.865966796875,-50.6907958984375
1751013764760715300,9.74971533203125,-399.507568359375,-157.09225463867188,-50.69483947753906
1751013764770756400,9.75975634765625,-400.1168212890625,-156.97384643554688,-50.66716003417969
1751013764780798200,9.769798095703125,-399.9848937988281,-156.8286590576172,-50.714569091796875
1751013764790840000,9.779840087890625,-400.300537109375,-156.92811584472656,-50.49859619140625
1751013764800881200,9.789881103515626,-399.986572265625,-156.60696411132812,-50.39373779296875
1751013764810922200,9.799922119140625,-400.16510009765625,-156.5915985107422,-50.6573486328125
1751013764820962300,9.80996240234375,-400.27935791015625,-156.73216247558594,-50.49766540527344
1751013764831002000,9.820002197265625,-400.6231689453125,-157.02792358398438,-50.66438293457031
1751013764841043200,9.830043212890626,-400.1572570800781,-156.7977752685547,-50.667999267578125
1751013764851084300,9.840084228515625,-400.32666015625,-156.85801696777344,-50.44586181640625
1751013764861124400,9.850124267578124,-400.315185546875,-156.9298095703125,-50.584503173828125
1751013764871166200,9.860166259765625,-400.211669921875,-156.64181518554688,-50.74308776855469
1751013764881206300,9.870206298828125,-400.48712158203125,-157.0704345703125,-50.44189453125
1751013764891247400,9.880247314453126,-400.3245849609375,-156.718017578125,-50.471893310546875
1751013764901287200,9.890287109375,-399.91253662109375,-156.65113830566406,-50.44927978515625
1751013764911328000,9.900327880859376,-400.1663818359375,-156.50157165527344,-50.88958740234375
1751013764921369000,9.910369140625,-400.81658935546875,-156.50634765625,-50.90751647949219
1751013764931409200,9.9204091796875,-400.18292236328125,-156.67640686035156,-50.998046875
1751013764941450200,9.9304501953125,-400.1415710449219,-156.4293975830078,-50.92340087890625
1751013764951491000,9.940490966796874,-399.88140869140625,-156.63555908203125,-50.87847900390625
1751013764961532200,9.9505322265625,-400.04620361328125,-156.55104064941406,-50.634857177734375
1751013764971573000,9.960572998046874,-399.8352966308594,-156.5484161376953,-50.56658935546875
1751013764981615000,9.970614990234376,-399.79339599609375,-156.48489379882812,-50.92784118652344
1751013764991657200,9.9806572265625,-400.01422119140625,-157.1312713623047,-50.819854736328125
1751013765001700000,9.9907001953125,-400.245361328125,-156.64300537109375,-51.12715148925781
1751013765011742200,10.0007421875,-399.9407958984375,-156.87728881835938,-51.10008239746094
1751013765021785300,10.010785400390626,-400.4759216308594,-156.61598205566406,-50.8436279296875
1751013765031828200,10.020828125,-400.4212341308594,-156.96206665039062,-51.161346435546875
1751013765041870000,10.0308701171875,-400.0772399902344,-156.42794799804688,-50.91105651855469
1751013765051913200,10.040913330078125,-400.44482421875,-156.6280975341797,-51.15374755859375
1751013765061951200,10.050951171875,-399.8037109375,-157.1213836669922,-51.13508605957031
1751013765071994000,10.060994140625,-400.2408752441406,-156.63235473632812,-51.30409240722656
1751013765082042000,10.0710419921875,-400.4272766113281,-156.72442626953125,-51.00177001953125
1751013765092085200,10.081085205078125,-400.1430358886719,-156.4643096923828,-50.89631652832031
1751013765102128400,10.09112841796875,-400.08270263671875,-156.78289794921875,-50.92445373535156
1751013765112171300,10.101171142578124,-400.17230224609375,-156.70233154296875,-50.79487609863281
1751013765122214100,10.111214111328126,-400.25262451171875,-156.95138549804688,-50.94499206542969
1751013765132252200,10.121252197265624,-400.0775146484375,-157.107666015625,-51.13020324707031
1751013765142295000,10.131294921875,-400.2833557128906,-156.9332733154297,-50.81877136230469
1751013765152338200,10.141338134765626,-400.49908447265625,-157.38375854492188,-50.87187194824219
1751013765162386200,10.15138623046875,-399.9002990722656,-157.273193359375,-50.818359375
1751013765172428000,10.161427978515626,-399.7381591796875,-157.1350555419922,-51.00523376464844
1751013765182470100,10.17147021484375,-399.6771545410156,-156.92068481445312,-51.15892028808594
1751013765192508200,10.181508056640626,-399.94024658203125,-157.4190216064453,-51.12269592285156
1751013765202556200,10.19155615234375,-399.63897705078125,-157.2479705810547,-51.03709411621094
1751013765212599300,10.201599365234374,-400.319091796875,-156.86680603027344,-50.79521179199219
1751013765222643200,10.211643310546876,-400.71954345703125,-157.318359375,-50.870269775390625
1751013765232686300,10.221686279296875,-399.88848876953125,-157.3431396484375,-51.1444091796875
1751013765242729200,10.231729248046875,-400.353759765625,-157.24917602539062,-50.863739013671875
1751013765252766200,10.24176611328125,-399.9844970703125,-157.24319458007812,-50.78062438964844
1751013765262814200,10.251814208984374,-399.7825927734375,-157.3500213623047,-50.667724609375
1751013765272857000,10.261857177734376,-400.28448486328125,-157.283203125,-51.02876281738281
1751013765282900000,10.27189990234375,-399.9453125,-157.37496948242188,-51.019561767578125
1751013765292942300,10.2819423828125,-400.0076904296875,-157.27113342285156,-50.9112548828125
1751013765302984200,10.291984130859374,-399.7535400390625,-156.920654296875,-50.81120300292969
1751013765313027000,10.302027099609376,-400.42578125,-157.13385009765625,-50.844635009765625
1751013765323070200,10.3120703125,-400.2874755859375,-157.09376525878906,-51.00221252441406
1751013765333113000,10.322113037109375,-399.75341796875,-157.0525360107422,-50.69709777832031
1751013765343156200,10.33215625,-399.67095947265625,-157.06175231933594,-50.82969665527344
1751013765353199400,10.342199462890624,-399.99566650390625,-157.1240234375,-51.09754943847656
1751013765363242200,10.3522421875,-400.0472412109375,-157.3740997314453,-51.13414001464844
1751013765373285000,10.36228515625,-400.3877868652344,-157.54220581054688,-51.16813659667969
1751013765383329300,10.372329345703125,-399.65460205078125,-156.94972229003906,-51.56748962402344
1751013765393371100,10.38237109375,-400.35101318359375,-157.0304718017578,-50.95201110839844
1751013765403409200,10.3924091796875,-400.12603759765625,-156.9424285888672,-51.183746337890625
1751013765413457200,10.40245703125,-400.29937744140625,-156.93701171875,-51.1640625
1751013765423500000,10.4125,-400.38189697265625,-156.9906768798828,-51.37384033203125
1751013765433538300,10.422538330078124,-400.12725830078125,-157.14627075195312,-51.25273132324219
1751013765443585300,10.432585205078125,-400.4025573730469,-156.915771484375,-51.10943603515625
1751013765453627100,10.442627197265624,-399.9873352050781,-157.01681518554688,-51.25511169433594
1751013765463668200,10.452668212890625,-400.01641845703125,-157.2705078125,-51.238250732421875
1751013765473710000,10.4627099609375,-400.24285888671875,-157.2902374267578,-51.21122741699219
1751013765483753200,10.472753173828124,-399.7362976074219,-156.8911590576172,-51.07920837402344
1751013765493795000,10.482795166015626,-399.9363708496094,-156.93153381347656,-51.533233642578125
1751013765503837200,10.492837158203125,-400.75634765625,-157.0658721923828,-51.29942321777344
1751013765513879000,10.502879150390624,-400.364501953125,-156.9362030029297,-51.4832763671875
1751013765523921200,10.512921142578126,-399.81817626953125,-157.0272674560547,-51.06629943847656
1751013765533963300,10.52296337890625,-400.10565185546875,-156.85128784179688,-51.072662353515625
1751013765544000300,10.533000244140625,-399.95343017578125,-157.00592041015625,-51.17366027832031
1751013765554047200,10.543047119140626,-400.69451904296875,-156.96853637695312,-50.9288330078125
1751013765564090400,10.55309033203125,-399.9936218261719,-157.0001220703125,-50.88848876953125
1751013765574133200,10.56313330078125,-400.0066833496094,-156.8463134765625,-50.84172058105469
1751013765584171000,10.5731708984375,-400.4048156738281,-157.17625427246094,-51.14472961425781
1751013765594219300,10.58321923828125,-400.4869384765625,-157.15679931640625,-50.82807922363281
1751013765604263200,10.59326318359375,-400.5917663574219,-157.30113220214844,-51.09893798828125
1751013765614305300,10.60330517578125,-400.37078857421875,-157.22296142578125,-50.859619140625
1751013765624348200,10.61334814453125,-400.5285949707031,-157.1369171142578,-50.935546875
1751013765634390000,10.62339013671875,-400.3031311035156,-157.40390014648438,-50.84278869628906
1751013765644433200,10.63343310546875,-400.7898254394531,-157.3141632080078,-50.8782958984375
1751013765654476300,10.643476318359374,-400.11083984375,-156.90184020996094,-50.945831298828125
1751013765664518100,10.65351806640625,-400.21710205078125,-156.9768829345703,-50.89794921875
1751013765674560000,10.66356005859375,-399.77099609375,-157.09149169921875,-50.55364990234375
1751013765684602000,10.67360205078125,-400.2428283691406,-157.1834716796875,-50.57518005371094
1751013765694645000,10.68364501953125,-400.34661865234375,-157.45091247558594,-50.92756652832031
1751013765704688000,10.693688232421875,-400.811767578125,-157.52699279785156,-50.928558349609375
1751013765714731000,10.70373095703125,-399.7995300292969,-157.35586547851562,-50.71934509277344
1751013765724772900,10.71377294921875,-400.262939453125,-157.14129638671875,-51.154083251953125
1751013765734816000,10.72381591796875,-400.2066650390625,-157.08786010742188,-50.83056640625
1751013765744858000,10.733858154296875,-400.4605712890625,-157.55650329589844,-51.06700134277344
1751013765754899000,10.74389892578125,-400.80010986328125,-156.90487670898438,-50.98783874511719
1751013765764940000,10.75393994140625,-400.67193603515625,-157.22781372070312,-51.18109130859375
1751013765774982000,10.76398193359375,-400.212890625,-157.02069091796875,-51.31056213378906
1751013765785023000,10.77402294921875,-400.55859375,-157.1754913330078,-51.012359619140625
1751013765795064800,10.78406494140625,-400.40777587890625,-157.08529663085938,-51.24017333984375
1751013765805107200,10.794107177734375,-400.4996337890625,-157.4868621826172,-51.016998291015625
1751013765815148000,10.80414794921875,-400.8817443847656,-157.5565643310547,-50.928375244140625
1751013765825190100,10.814190185546876,-400.86309814453125,-157.2832489013672,-50.978118896484375
1751013765835231000,10.82423095703125,-401.07080078125,-157.2386932373047,-50.772369384765625
1751013765845272000,10.83427197265625,-400.74420166015625,-157.5658416748047,-50.940216064453125
1751013765855313200,10.844313232421875,-400.73004150390625,-157.2376251220703,-50.86126708984375
1751013765865351000,10.854350830078126,-400.49151611328125,-157.391357421875,-50.99017333984375
1751013765875400200,10.864400146484375,-400.2608642578125,-157.21060180664062,-51.05415344238281
1751013765885442000,10.874442138671874,-400.69207763671875,-157.38133239746094,-51.27702331542969
1751013765895484000,10.88448388671875,-400.2518005371094,-157.16351318359375,-50.599945068359375
1751013765905525000,10.89452490234375,-400.324951171875,-157.3237762451172,-50.81285095214844
1751013765915567000,10.904567138671876,-400.25592041015625,-157.3203582763672,-51.33935546875
1751013765925608200,10.914608154296875,-400.64337158203125,-157.4019775390625,-50.92280578613281
1751013765935651000,10.924651123046875,-400.39874267578125,-157.2789306640625,-50.83116149902344
1751013765945693000,10.93469287109375,-400.7379150390625,-157.35311889648438,-50.61602783203125
1751013765955734000,10.944734130859375,-400.3092956542969,-156.99069213867188,-50.75505065917969
1751013765965776000,10.95477587890625,-400.47491455078125,-157.34732055664062,-50.698699951171875
1751013765975817000,10.96481689453125,-400.5281982421875,-157.26046752929688,-50.95787048339844
1751013765985858000,10.974858154296875,-400.33526611328125,-157.516357421875,-50.88670349121094
1751013765995899000,10.98489892578125,-400.41943359375,-156.96250915527344,-50.78569030761719
1751013766005939000,10.99493896484375,-400.7193908691406,-157.22177124023438,-50.403656005859375
1751013766015980000,11.00497998046875,-400.66302490234375,-157.0448455810547,-50.35700988769531
1751013766026022000,11.01502197265625,-400.6310119628906,-156.740966796875,-50.56829833984375
1751013766036063000,11.02506298828125,-400.58856201171875,-157.36334228515625,-50.58880615234375
1751013766046105000,11.03510498046875,-400.953369140625,-157.51942443847656,-50.710601806640625
1751013766056147200,11.045147216796876,-400.32861328125,-157.26242065429688,-50.638885498046875
1751013766066188000,11.05518798828125,-400.35992431640625,-157.43569946289062,-50.976226806640625
1751013766076230100,11.065230224609374,-400.24151611328125,-157.45187377929688,-51.30308532714844
1751013766086271000,11.07527099609375,-400.708251953125,-157.29278564453125,-50.95396423339844
1751013766096312000,11.08531201171875,-399.7713928222656,-157.23928833007812,-50.92570495605469
