time,seconds_elapsed,z,y,x
1751013432334585300,0.11558544921875,0.1704268604516983,-0.005888781975954771,0.0832219198346138
1751013432344527400,0.12552734375,0.15923438966274261,0.017665812745690346,0.044685713946819305
1751013432354470100,0.13547021484375,0.14378993213176727,0.045825812965631485,-0.004802478477358818
1751013432364414200,0.145414306640625,0.1259312927722931,0.0788615271449089,-0.040756482630968094
1751013432374357200,0.155357177734375,0.11406958103179932,0.12418240308761597,-0.07292427122592926
1751013432384300300,0.16530029296875,0.1042446494102478,0.1720931977033615,-0.09141699969768524
1751013432394243300,0.175243408203125,0.08761720359325409,0.19186797738075256,-0.1003340631723404
1751013432404186400,0.185186279296875,0.07200441509485245,0.1879400759935379,-0.09886399656534195
1751013432414130200,0.195130126953125,0.07253225892782211,0.17306631803512573,-0.08455216884613037
1751013432424073200,0.2050732421875,0.07382655143737793,0.15736912190914154,-0.06734707951545715
1751013432434016300,0.215016357421875,0.08390102535486221,0.14707067608833313,-0.03820251300930977
1751013432443959300,0.224959228515625,0.09122445434331894,0.15496668219566345,-0.018702581524848938
1751013432453903000,0.234903076171875,0.09024414420127869,0.16265656054019928,-0.004965197294950485
1751013432463846100,0.24484619140625,0.08760920912027359,0.17162156105041504,-0.004004595335572958
1751013432473789200,0.2547890625,0.08683343231678009,0.17103007435798645,-0.01224441546946764
1751013432483732200,0.264732177734375,0.0757107362151146,0.16794931888580322,-0.0173219982534647
1751013432493675300,0.27467529296875,0.0597674585878849,0.14720197021961212,-0.01558055728673935
1751013432503619000,0.284619140625,0.04358556121587753,0.11835913360118866,-0.0010404969798400998
1751013432513562000,0.29456201171875,0.03858254477381706,0.10137748718261719,0.02443024143576622
1751013432523505200,0.304505126953125,0.04079057276248932,0.0946335643529892,0.05495219677686691
1751013432533448200,0.3144482421875,0.055024635046720505,0.08659987151622772,0.08145783841609955
1751013432543391200,0.32439111328125,0.0672868937253952,0.08178754150867462,0.10186697542667389
1751013432553335300,0.334335205078125,0.07291308790445328,0.06939665228128433,0.11525575071573257
1751013432563278000,0.344278076171875,0.06448817998170853,0.06556196510791779,0.10621671378612518
1751013432573221000,0.35422119140625,0.052982259541749954,0.06748156994581223,0.09248199313879013
1751013432583164200,0.3641640625,0.03755323588848114,0.0766950473189354,0.05914081633090973
1751013432593108200,0.374108154296875,0.019583022221922874,0.07969243079423904,0.018977684900164604
1751013432603051300,0.38405126953125,0.008085889741778374,0.08860629796981812,-0.014392787590622902
1751013432612994300,0.393994384765625,-0.0017675400013104081,0.11093131452798843,-0.03598516434431076
1751013432622937000,0.40393701171875,-0.008719189092516899,0.1408519297838211,-0.04108645021915436
1751013432632880000,0.413880126953125,-0.0016796556301414967,0.15878139436244965,-0.036616332828998566
1751013432642824200,0.42382421875,0.006929811555892229,0.15923678874969482,-0.02142060361802578
1751013432652767200,0.433767333984375,0.01864452473819256,0.15214160084724426,0.0017161410069093108
1751013432662710300,0.443710205078125,0.01782160811126232,0.1347721964120865,0.03400856629014015
1751013432672653300,0.4536533203125,0.011403655633330345,0.1144658550620079,0.0628516674041748
1751013432682597000,0.46359716796875,0.009965282864868641,0.0810794085264206,0.083478644490242
1751013432692540200,0.4735400390625,0.01593795418739319,0.0600028820335865,0.09019514173269272
1751013432702483200,0.483483154296875,0.02196042612195015,0.03919534012675285,0.07657679915428162
1751013432712426200,0.49342626953125,0.03689037263393402,0.040823329240083694,0.05433833971619606
1751013432722369300,0.503369384765625,0.05217026174068451,0.05323445796966553,0.01452621165663004
1751013432732313000,0.51331298828125,0.05879034474492073,0.07434986531734467,-0.02803749404847622
1751013432742256000,0.523256103515625,0.06373343616724014,0.09030060470104218,-0.06100236624479294
1751013432752199200,0.53319921875,0.06119118630886078,0.09722428768873215,-0.08515031635761261
1751013432762142200,0.54314208984375,0.04758589342236519,0.08089511841535568,-0.10601112246513367
1751013432772085200,0.553085205078125,0.028965339064598083,0.06096668168902397,-0.11236356198787689
1751013432782029000,0.563029052734375,0.011092598550021648,0.05722307413816452,-0.09956759959459305
1751013432791972000,0.57297216796875,0.005496231839060783,0.0719924345612526,-0.07343533635139465
1751013432801915100,0.5829150390625,0.009187106974422932,0.09559603035449982,-0.028250547125935555
1751013432811858200,0.592858154296875,0.027125360444188118,0.12384285032749176,0.030408505350351334
1751013432821802200,0.60280224609375,0.03855537995696068,0.14026443660259247,0.08651837706565857
1751013432831745000,0.6127451171875,0.04739760980010033,0.12323511391878128,0.13205577433109283
1751013432841688000,0.62268798828125,0.04620904102921486,0.10482574999332428,0.1658076047897339
1751013432851631000,0.632631103515625,0.04103665053844452,0.09396804124116898,0.1794632375240326
1751013432861574100,0.64257421875,0.03786269202828407,0.09069661051034927,0.18210987746715546
1751013432871518200,0.652518310546875,0.03656839579343796,0.0833209902048111,0.16557271778583527
1751013432881461200,0.662461181640625,0.03416728973388672,0.0706869512796402,0.1333969384431839
1751013432891404000,0.672404052734375,0.02918984368443489,0.05441823601722717,0.09766077995300293
1751013432901347000,0.68234716796875,0.021827267482876778,0.03701208159327507,0.06656757742166519
1751013432911290000,0.6922900390625,0.020683972164988518,0.021857894957065582,0.045340318232774734
1751013432921234200,0.702234130859375,0.029872411862015724,0.011995410546660423,0.03586878627538681
1751013432931177200,0.71217724609375,0.043893955647945404,0.0010428938549011946,0.03899560123682022
1751013432941120300,0.722120361328125,0.05199981853365898,-0.011304852552711964,0.055582303553819656
1751013432951063000,0.73206298828125,0.059475578367710114,-0.0073356772772967815,0.07042170315980911
1751013432961007000,0.742007080078125,0.06632043421268463,0.006229400169104338,0.07027789205312729
1751013432970950100,0.7519501953125,0.07470246404409409,0.018612034618854523,0.05096225067973137
1751013432980893200,0.76189306640625,0.07521938532590866,0.02754853665828705,0.017243701964616776
1751013432990836200,0.771836181640625,0.06920383870601654,0.02142885886132717,-0.02263713628053665
1751013433000779300,0.781779296875,0.05498122796416283,0.008951417170464993,-0.057423077523708344
1751013433010723000,0.79172314453125,0.03714364022016525,0.001490571303293109,-0.06560031324625015
1751013433020666000,0.801666015625,0.024391092360019684,0.0016935041639953852,-0.05932191386818886
1751013433030609200,0.811609130859375,0.013923272490501404,-0.010273942723870277,-0.045098237693309784
1751013433040552200,0.82155224609375,0.01142842322587967,-0.024753017351031303,-0.02472851611673832
1751013433050496300,0.831496337890625,0.011200190521776676,-0.03362507000565529,-0.012034558691084385
1751013433060439000,0.84143896484375,0.015350992791354656,-0.026860909536480904,-0.014860971830785275
1751013433070382000,0.851382080078125,0.00911333691328764,-0.023613983765244484,-0.027344007045030594
1751013433080325000,0.8613251953125,0.006135124247521162,-0.026685141026973724,-0.05036090686917305
1751013433090268200,0.87126806640625,0.0004748416249640286,-0.02304886095225811,-0.06765308231115341
1751013433100212200,0.881212158203125,-0.007309312000870705,-0.013665745034813881,-0.07531366497278214
1751013433110155000,0.891155029296875,-0.006690925918519497,-0.009363674558699131,-0.0656794086098671
1751013433120098000,0.90109814453125,-0.012387427501380444,-0.017642376944422722,-0.045045237988233566
1751013433130041000,0.911041015625,-0.013615943491458893,-0.028992237523198128,-0.02261929214000702
1751013433139985400,0.9209853515625,-0.012239089235663414,-0.029078256338834763,-0.0006623281515203416
1751013433149928400,0.930928466796875,-0.011270497925579548,-0.016227971762418747,0.014875352382659912
1751013433159871200,0.940871337890625,0.00006870955257909372,-0.005687979515641928,0.02189757488667965
1751013433169814000,0.95081396484375,0.014428207650780678,0.006556968670338392,0.023963123559951782
1751013433179757000,0.960757080078125,0.032951027154922485,0.017349163070321083,0.021101823076605797
1751013433189701400,0.970701416015625,0.047078028321266174,0.02028343454003334,0.010037187486886978
1751013433199644400,0.98064453125,0.0557844378054142,0.02225390635430813,0.0003832288784906268
1751013433209587500,0.99058740234375,0.06335047632455826,0.017198428511619568,-0.0014974954538047314
1751013433219530000,1.000530029296875,0.06516914814710617,0.01200925838202238,0.0002860235108528286
1751013433229473000,1.01047314453125,0.06665679067373276,0.0021752698812633753,0.005887450184673071
1751013433239417300,1.020417236328125,0.07009812444448471,-0.009004147723317146,0.007374825421720743
1751013433249360400,1.0303603515625,0.07094554603099823,-0.008100003935396671,0.011521633714437485
1751013433259303400,1.040303466796875,0.06608154624700546,-0.00695005152374506,0.022180669009685516
1751013433269246500,1.05024658203125,0.06415528059005737,-0.004820853937417269,0.02191142365336418
1751013433279190300,1.060190185546875,0.061286792159080505,-0.006816360633820295,0.017427992075681686
1751013433289133300,1.07013330078125,0.058755192905664444,-0.013654027134180069,0.008264588192105293
1751013433299076400,1.080076416015625,0.05916851386427879,-0.02642202004790306,-0.004020041786134243
1751013433309019400,1.090019287109375,0.05703452229499817,-0.02021712064743042,-0.004032292403280735
1751013433318962400,1.09996240234375,0.04562021419405937,-0.006329535041004419,-0.0012173309223726392
1751013433328906200,1.10990625,0.040049947798252106,0.009319998323917389,0.004977181553840637
1751013433338849300,1.119849365234375,0.027822043746709824,0.004853877238929272,0.0018016285030171275
1751013433348792300,1.129792236328125,0.017231984063982964,-0.011602859944105148,-0.009865946136415005
1751013433358735400,1.1397353515625,0.0003451456723269075,-0.035417377948760986,-0.02653067745268345
1751013433368679200,1.14967919921875,-0.016758739948272705,-0.04346198961138725,-0.04734061658382416
1751013433378622200,1.159622314453125,-0.028175711631774902,-0.04312669858336449,-0.06066041812300682
1751013433388565200,1.169565185546875,-0.031569112092256546,-0.032466329634189606,-0.06691165268421173
1751013433398508300,1.17950830078125,-0.025380190461874008,-0.014681207947432995,-0.0650453120470047
1751013433408451300,1.189451416015625,-0.012052401900291443,0.011462245136499405,-0.047632765024900436
1751013433418395400,1.1993955078125,0.0027057717088609934,0.0313912108540535,-0.0354008674621582
1751013433428338200,1.209338134765625,0.010789796710014343,0.03133528679609299,-0.025606825947761536
1751013433438281200,1.21928125,0.01125372014939785,0.013718741945922375,-0.02329573594033718
1751013433448224300,1.229224365234375,0.005356681998819113,-0.005042695440351963,-0.025555428117513657
1751013433458167300,1.239167236328125,-0.0020599551498889923,-0.024465395137667656,-0.024685107171535492
1751013433468111400,1.249111328125,-0.0041156490333378315,-0.03894420340657234,-0.021147096529603004
1751013433478054400,1.259054443359375,0.00014647385978605598,-0.03438061103224754,-0.013530456461012363
1751013433487997200,1.2689970703125,0.012072108685970306,-0.02274579182267189,-0.006505569908767939
1751013433497940200,1.278940185546875,0.019358251243829727,-0.012174907140433788,-0.0028730181511491537
1751013433507884300,1.28888427734375,0.02550829015672207,0.00233825552277267,-0.0010498181218281388
1751013433517827300,1.298827392578125,0.022657375782728195,0.01053200289607048,-0.011725098825991154
1751013433527770400,1.308770263671875,0.01444312185049057,0.01458986196666956,-0.0240763071924448
1751013433537713400,1.31871337890625,0.010269948281347752,0.02130315825343132,-0.03453321009874344
1751013433547656200,1.32865625,0.003834951901808381,0.021347099915146828,-0.04447558894753456
1751013433557600300,1.338600341796875,0.0040855552069842815,0.019870111718773842,-0.044330447912216187
1751013433567543300,1.348543212890625,0.0035776905715465546,0.021621139720082283,-0.03660168498754501
1751013433577486300,1.358486328125,0.00395692465826869,0.020388362929224968,-0.025659557431936264
1751013433587429400,1.368429443359375,0.009383647702634335,0.01386947650462389,-0.008114651776850224
1751013433597373200,1.378373291015625,0.017408551648259163,0.011182880029082298,0.008406533859670162
1751013433607316200,1.388316162109375,0.02520974911749363,0.012561331503093243,0.029149362817406654
1751013433617259300,1.39825927734375,0.023988423869013786,0.01794145070016384,0.0452905148267746
1751013433627202300,1.408202392578125,0.02334207482635975,0.015802131965756416,0.05327653884887695
1751013433637145300,1.418145263671875,0.01739976368844509,0.0119706429541111,0.049253832548856735
1751013433647089200,1.428089111328125,0.015121694654226303,0.0033372072502970695,0.04567241296172142
1751013433657032200,1.4380322265625,0.0075876121409237385,0.002481799805536866,0.03605201095342636
1751013433666975200,1.447975341796875,0.003204315435141325,0.007683219853788614,0.03461097553372383
1751013433676918300,1.457918212890625,0.0011832424206659198,0.014888934791088104,0.035886093974113464
1751013433686862300,1.4678623046875,0.004861600697040558,0.021348698064684868,0.02888278104364872
1751013433696805000,1.47780517578125,0.0027915253303945065,0.030940338969230652,0.02425607107579708
1751013433706748200,1.487748046875,-0.003662378992885351,0.030354710295796394,0.02069862000644207
1751013433716691200,1.497691162109375,-0.01458959560841322,0.021148428320884705,0.013803696259856224
1751013433726634200,1.50763427734375,-0.011815113946795464,0.019653862342238426,0.008114918135106564
1751013433736578600,1.51757861328125,-0.008706405758857727,0.01398825366050005,0.006850183010101318
1751013433746521300,1.527521240234375,-0.0075822859071195126,0.014214355498552322,0.003713245503604412
1751013433756464000,1.537464111328125,-0.009151420556008816,0.014931012876331806,0.008232097141444683
1751013433766407200,1.5474072265625,-0.014810903929173946,0.016166718676686287,0.015103851445019245
1751013433776351500,1.5573515625,-0.02046106569468975,0.015868712216615677,0.014792528003454208
1751013433786294500,1.56729443359375,-0.021208083257079124,0.01781521551311016,0.013468404300510883
1751013433796237300,1.5772373046875,-0.015991749241948128,0.022404108196496964,0.011326157487928867
1751013433806180400,1.587180419921875,-0.008734369650483131,0.026564765721559525,0.006462426856160164
1751013433816123100,1.597123046875,-0.0024738102219998837,0.032764606177806854,0.007256315089762211
1751013433826067500,1.6070673828125,0.0019217369845137,0.02996482327580452,0.006250439211726189
1751013433836010500,1.617010498046875,0.007054180838167667,0.022158564999699593,0.004579837899655104
1751013433845953500,1.62695361328125,0.005765477195382118,0.011284878477454185,0.010575412772595882
1751013433855896300,1.636896240234375,0.003111637430265546,0.005934588145464659,0.012456669472157955
1751013433865839400,1.64683935546875,-0.004973985720425844,0.007041664328426123,0.013788516633212566
1751013433875783400,1.656783447265625,-0.010942130349576473,0.0006769755273126066,0.010877414606511593
1751013433885726500,1.6667265625,-0.011610583402216434,-0.006358829792588949,0.0034855452831834555
1751013433895669500,1.67666943359375,-0.011246263049542904,-0.0070131681859493256,-0.007406517397612333
1751013433905612300,1.6866123046875,-0.007215036079287529,-0.002034921431913972,-0.016978183761239052
1751013433915556400,1.696556396484375,-0.00836845114827156,0.0019028285751119256,-0.026668628677725792
1751013433925499400,1.70649951171875,-0.01293204352259636,0.008742092177271843,-0.029320871457457542
1751013433935442400,1.7164423828125,-0.02227015234529972,0.010508300736546516,-0.023478960618376732
1751013433945385500,1.726385498046875,-0.026253441348671913,0.0073021212592720985,-0.018931346014142036
1751013433955328500,1.73632861328125,-0.02514929510653019,-0.005822202656418085,-0.015722503885626793
1751013433965272300,1.746272216796875,-0.0202216487377882,-0.015241537243127823,-0.014990135096013546
1751013433975215400,1.75621533203125,-0.018912171944975853,-0.015145130455493927,-0.016095878556370735
1751013433985158400,1.766158447265625,-0.020141221582889557,0.00019254654762335122,-0.01697205938398838
1751013433995101400,1.776101318359375,-0.02395247109234333,0.015148859471082687,-0.014732873067259789
1751013434005045500,1.78604541015625,-0.02792377583682537,0.033849310129880905,-0.016107862815260887
1751013434014988500,1.795988525390625,-0.03207005187869072,0.0459163598716259,-0.006965497974306345
1751013434024931300,1.805931396484375,-0.030373085290193558,0.042876094579696655,0.003179814200848341
1751013434034874400,1.815874267578125,-0.02172979712486267,0.02419215440750122,0.008639561012387276
1751013434044817400,1.8258173828125,-0.01624581590294838,-0.0005107942852191627,0.014037256129086018
1751013434054761500,1.835761474609375,-0.0164807066321373,-0.020417124032974243,0.017284713685512543
1751013434064704500,1.84570458984375,-0.01386841107159853,-0.024888038635253906,0.014490791596472263
1751013434074647600,1.8556474609375,-0.01571185141801834,-0.019226424396038055,0.013421532697975636
1751013434084590300,1.86559033203125,-0.01618136651813984,-0.004622448701411486,0.009247028268873692
1751013434094534400,1.875534423828125,-0.017171796411275864,0.0013606089632958174,-0.003213370218873024
1751013434104477400,1.8854775390625,-0.02684945799410343,0.012996758334338665,-0.0141139542683959
1751013434114420500,1.89542041015625,-0.0339457169175148,0.01763811521232128,-0.029271069914102554
1751013434124363500,1.905363525390625,-0.03737613558769226,0.02425607107579708,-0.03754018619656563
1751013434134306300,1.915306396484375,-0.03484399989247322,0.03427781164646149,-0.03690075874328613
1751013434144250400,1.92525048828125,-0.0307477917522192,0.04079430177807808,-0.02773495763540268
1751013434154193400,1.935193359375,-0.026025209575891495,0.04099537059664726,-0.017607755959033966
1751013434164136400,1.945136474609375,-0.02069089747965336,0.026320021599531174,-0.0022530341520905495
1751013434174079500,1.95507958984375,-0.01233416423201561,0.004278368316590786,0.007025951519608498
1751013434184022500,1.9650224609375,-0.010301639325916767,-0.016823189333081245,0.015458052046597004
1751013434193966300,1.97496630859375,-0.00797403696924448,-0.03008892573416233,0.01792600378394127
1751013434203909400,1.984909423828125,-0.012232963927090168,-0.02786412090063095,0.014879080466926098
1751013434213852400,1.994852294921875,-0.02437644638121128,-0.020981181412935257,0.006986802909523249
1751013434223795500,2.00479541015625,-0.03274223208427429,-0.010941597633063793,-0.010155698284506798
1751013434233739300,2.0147392578125,-0.03846669942140579,0.002546514617279172,-0.02474316395819187
1751013434243682300,2.024682373046875,-0.03256034106016159,0.014693192206323147,-0.03947070986032486
1751013434253625300,2.034625244140625,-0.02431279607117176,0.027694744989275932,-0.05104294419288635
1751013434263568400,2.044568359375,-0.014542457647621632,0.035285286605358124,-0.05338386073708534
1751013434273511400,2.054511474609375,-0.0021848573815077543,0.025791915133595467,-0.03966725245118141
1751013434283455500,2.06445556640625,0.0029348034877330065,0.02141794003546238,-0.018995262682437897
1751013434293398300,2.074398193359375,0.0072983927093446255,0.01919872872531414,-0.0000881506348378025
1751013434303341300,2.08434130859375,-0.008163920603692532,0.012838833034038544,0.017777930945158005
1751013434313284400,2.094284423828125,-0.019173961132764816,-0.00007217166421469301,0.028841767460107803
1751013434323228400,2.104228515625,-0.027247866615653038,-0.014508901163935661,0.030911576002836227
1751013434333171500,2.11417138671875,-0.0334668792784214,-0.01888846978545189,0.028729116544127464
1751013434343114500,2.124114501953125,-0.024269387125968933,-0.011117898859083652,0.019662916660308838
1751013434353057500,2.1340576171875,-0.01170272845774889,0.0068123661912977695,0.005853095557540655
1751013434363000600,2.14400048828125,-0.004426706116646528,0.022064555436372757,-0.008357532322406769
1751013434372944600,2.153944580078125,-0.001981125446036458,0.041257958859205246,-0.021950040012598038
1751013434382887700,2.1638876953125,-0.007148190401494503,0.04424815624952316,-0.03454572707414627
1751013434392830700,2.173830810546875,-0.01305428333580494,0.037638187408447266,-0.04187740758061409
1751013434402773500,2.1837734375,-0.01745808683335781,0.02058517001569271,-0.040660079568624496
1751013434412717600,2.193717529296875,-0.02418549731373787,0.008383630774915218,-0.0402962900698185
1751013434422660600,2.20366064453125,-0.028424184769392014,-0.002797118155285716,-0.033956900238990784
1751013434432603600,2.213603759765625,-0.024327976629137993,-0.00441019469872117,-0.021078387275338173
1751013434442546700,2.223546630859375,-0.023997478187084198,0.009825998917222023,-0.013366405852138996
1751013434452489700,2.23348974609375,-0.03008200228214264,0.02978798933327198,-0.008719189092516899
1751013434462433500,2.24343359375,-0.03663790598511696,0.048467401415109634,-0.005406749434769154
1751013434472376600,2.25337646484375,-0.037092775106430054,0.05715915933251381,-0.010763964615762234
1751013434482319600,2.263319580078125,-0.028689701110124588,0.04604232683777809,-0.013078783638775349
1751013434492262700,2.2732626953125,-0.020776119083166122,0.030116356909275055,-0.01350702065974474
1751013434502206500,2.28320654296875,-0.01878327503800392,0.025837989524006844,-0.011630291119217873
1751013434512149500,2.2931494140625,-0.021573469042778015,0.03209269046783447,-0.008094411343336105
1751013434522092500,2.303092529296875,-0.030797060579061508,0.04056180641055107,-0.009017730131745338
1751013434532035600,2.31303564453125,-0.04452512413263321,0.038413435220718384,-0.02280384860932827
1751013434541978600,2.322978515625,-0.0488455705344677,0.029315277934074402,-0.04668121784925461
1751013434551922400,2.33292236328125,-0.0506698340177536,0.02178705483675003,-0.07736429572105408
1751013434561865500,2.342865478515625,-0.05332740396261215,0.014082529582083225,-0.10562416166067123
1751013434571808500,2.35280859375,-0.04912174120545387,0.009998305700719357,-0.12878353893756866
1751013434581751600,2.36275146484375,-0.04073517769575119,0.013228720054030418,-0.13664786517620087
1751013434591695600,2.372695556640625,-0.02979091927409172,0.018444521352648735,-0.1283332109451294
1751013434601638700,2.382638671875,-0.018161160871386528,0.023184148594737053,-0.11141174286603928
1751013434611581400,2.39258154296875,-0.015721438452601433,0.014728878624737263,-0.08460862934589386
1751013434621524500,2.4025244140625,-0.018858643248677254,0.0014692660188302398,-0.05866571143269539
1751013434631467500,2.412467529296875,-0.018281802535057068,-0.01426202617585659,-0.02532213367521763
1751013434641411600,2.42241162109375,-0.020299945026636124,-0.026518160477280617,-0.0020820593927055597
1751013434651354600,2.432354736328125,-0.024231303483247757,-0.04182760789990425,0.015684420242905617
1751013434661297700,2.442297607421875,-0.029456159099936485,-0.0591682493686676,0.022845394909381866
1751013434671240400,2.452240478515625,-0.026559438556432724,-0.06353769451379776,0.01769803650677204
1751013434681184500,2.4621845703125,-0.02292289212346077,-0.053938332945108414,0.004223241005092859
1751013434691127600,2.47212744140625,-0.021864552050828934,-0.034691400825977325,-0.0160005372017622
1751013434701070600,2.482070556640625,-0.018758773803710938,-0.01008192915469408,-0.03332200273871422
1751013434711013600,2.492013671875,-0.017609886825084686,0.010990865528583527,-0.04352936893701553
1751013434720956700,2.501956787109375,-0.014545653015375137,0.03136564418673515,-0.04048004746437073
1751013434730900500,2.511900390625,-0.011657721363008022,0.04669773206114769,-0.025365278124809265
1751013434740843500,2.521843505859375,-0.014036190696060658,0.05121338739991188,-0.002785133896395564
1751013434750786600,2.53178662109375,-0.01936730556190014,0.046250320971012115,0.024687768891453743
1751013434760729600,2.5417294921875,-0.020535634830594063,0.0381535105407238,0.05590907111763954
1751013434770673400,2.55167333984375,-0.021072261035442352,0.034330010414123535,0.08371806889772415
1751013434780616400,2.561616455078125,-0.023482423275709152,0.03008999116718769,0.0991436243057251
1751013434790559500,2.5715595703125,-0.030460704118013382,0.020619791001081467,0.10118068009614944
1751013434800502500,2.58150244140625,-0.034931883215904236,0.008709335699677467,0.08794263750314713
1751013434810445600,2.591445556640625,-0.03193636238574982,0.008786034770309925,0.07264410704374313
1751013434820389600,2.6013896484375,-0.024830780923366547,0.017490843310952187,0.05697380378842354
1751013434830332400,2.61133251953125,-0.013591442257165909,0.028714735060930252,0.05000963807106018
1751013434840275500,2.621275390625,0.004323375876992941,0.048947300761938095,0.04644259810447693
1751013434850218500,2.631218505859375,0.01714649610221386,0.06756972521543503,0.049194976687431335
1751013434860162600,2.64116259765625,0.02358735166490078,0.07004806399345398,0.04668228328227997
1751013434870105600,2.651105712890625,0.020307933911681175,0.06261411309242249,0.04783010482788086
1751013434880048600,2.661048583984375,0.010643855668604374,0.048115331679582596,0.04130056872963905
1751013434889991400,2.670991455078125,-0.005061870440840721,0.034984081983566284,0.040295492857694626
1751013434899934500,2.6809345703125,-0.017038904130458832,0.023333018645644188,0.034449584782123566
1751013434909878500,2.69087841796875,-0.02352956123650074,0.02045893669128418,0.042024947702884674
1751013434919821600,2.700821533203125,-0.023204654455184937,0.030849259346723557,0.054724764078855515
1751013434929764600,2.7107646484375,-0.014239389449357986,0.04277755692601204,0.06798037886619568
1751013434939707400,2.720707275390625,0.0009214537567459047,0.05700309947133064,0.08053319156169891
1751013434949651500,2.7306513671875,0.016595488414168358,0.06142474338412285,0.07473788410425186
1751013434959594500,2.740594482421875,0.01938488334417343,0.052808087319135666,0.061278536915779114
1751013434969537500,2.75053759765625,0.012827381491661072,0.043411657214164734,0.038427550345659256
1751013434979480600,2.76048046875,0.013853497803211212,0.03987497836351395,0.016209596768021584
1751013434989423600,2.770423583984375,0.008107461035251617,0.037636592984199524,0.0007848335662856698
1751013434999367400,2.780367431640625,0.013583719730377197,0.04011999070644379,-0.004219246096909046
1751013435009310500,2.790310546875,0.017661551013588905,0.04030055180191994,-0.009638778865337372
1751013435019253500,2.80025341796875,0.020611535757780075,0.03688238561153412,-0.01486469991505146
1751013435029196500,2.810196533203125,0.01689828932285309,0.03394225239753723,-0.018695389851927757
1751013435039140400,2.820140380859375,0.009127718396484852,0.03609967976808548,-0.018866632133722305
1751013435049083400,2.83008349609375,0.0015694007743149996,0.02364540845155716,-0.02544943429529667
1751013435059026400,2.8400263671875,0.0022327941842377186,0.013074256479740143,-0.03026975505053997
1751013435068969500,2.849969482421875,0.006673615425825119,0.0036669063847512007,-0.027628431096673012
1751013435078912500,2.85991259765625,0.014113156124949455,0.010627876967191696,-0.01888900250196457
1751013435088856600,2.869856689453125,0.021263742819428444,0.019047195091843605,-0.002457564929500222
1751013435098799400,2.87979931640625,0.027837757021188736,0.03148176148533821,0.014479073695838451
1751013435108742400,2.889742431640625,0.028805281966924667,0.046851661056280136,0.018613098189234734
1751013435118685400,2.899685546875,0.03256380185484886,0.04366545379161835,0.01619654707610607
1751013435128629500,2.90962939453125,0.02750805765390396,0.03783100098371506,-0.0006138586322776973
1751013435138572500,2.919572509765625,0.014305702410638332,0.02899756282567978,-0.01926477439701557
1751013435148515600,2.929515625,0.004080495331436396,0.02317243069410324,-0.039212916046381
1751013435158458400,2.939458251953125,-0.012517922557890415,0.024272583425045013,-0.056776195764541626
1751013435168401400,2.9494013671875,-0.020550815388560295,0.024712003767490387,-0.0640876367688179
1751013435178345500,2.959345458984375,-0.019579293206334114,0.031735558062791824,-0.05439639464020729
1751013435188288500,2.96928857421875,-0.015297995880246162,0.03253130987286568,-0.032275646924972534
1751013435198231600,2.9792314453125,-0.00866059958934784,0.03232331946492195,-0.011022557504475117
1751013435208174600,2.989174560546875,0.0006801713607273996,0.030532343313097954,0.013800234533846378
1751013435218118400,2.999118408203125,0.010150904767215252,0.02478976920247078,0.03275608271360397
1751013435228061400,3.0090615234375,0.007059241179376841,0.016398148611187935,0.037212617695331573
1751013435238004500,3.01900439453125,0.005147357936948538,0.00624191714450717,0.036263998597860336
1751013435247947500,3.028947509765625,0.0030503845773637295,-0.00006338323146337643,0.03139547258615494
1751013435257890600,3.038890625,-0.000886566296685487,-0.00022264027211349458,0.02178998477756977
1751013435267834400,3.04883447265625,-0.007237939164042473,0.010597516782581806,0.015979764983057976
1751013435277777400,3.05877734375,-0.003829625668004155,0.02395673096179962,0.009336509741842747
1751013435287720400,3.068720458984375,-0.0012431635987013578,0.031379759311676025,0.007312241476029158
1751013435297663500,3.07866357421875,0.00592420157045126,0.03840411454439163,0.005297559779137373
1751013435307607300,3.088607177734375,0.011068097315728664,0.04656483978033066,0.002919357270002365
1751013435317550300,3.09855029296875,0.01215706393122673,0.050099652260541916,0.0006926882197149098
1751013435327493400,3.108493408203125,0.0033478597179055214,0.0368722639977932,0.002662628423422575
1751013435337436400,3.1184365234375,-0.007266434840857983,0.02250317856669426,0.005348426289856434
1751013435347379200,3.128379150390625,-0.021997444331645966,0.003413107246160507,0.00737189594656229
1751013435357323300,3.1383232421875,-0.02936641126871109,-0.0067993164993822575,0.007084541022777557
1751013435367266300,3.148266357421875,-0.029946979135274887,-0.011755991727113724,0.0004822984628845006
1751013435377209000,3.158208984375,-0.030131004750728607,-0.013064935803413391,-0.011078483425080776
1751013435387152100,3.168152099609375,-0.02333674766123295,-0.006638994440436363,-0.019274095073342323
1751013435397096200,3.17809619140625,-0.015679361298680305,0.005703425966203213,-0.02913365140557289
1751013435407039200,3.188039306640625,-0.00315930787473917,0.024160729721188545,-0.026252908632159233
1751013435416982300,3.197982177734375,0.007226487621665001,0.04486707225441933,-0.02075854130089283
1751013435426925000,3.207925048828125,0.018912971019744873,0.04903625324368477,-0.010430802591145039
1751013435436868000,3.2178681640625,0.025950906798243523,0.041682999581098557,-0.002001898130401969
1751013435446812200,3.227812255859375,0.020531106740236282,0.03223969414830208,0.002027997048571706
1751013435456755200,3.237755126953125,0.010154366493225098,0.014055364765226841,-0.000538491178303957
1751013435466698200,3.2476982421875,0.005110606085509062,0.008654207922518253,0.002251702593639493
1751013435476641300,3.257641357421875,0.004274906124919653,0.005732454359531403,-0.002901247702538967
1751013435486585300,3.26758544921875,0.0008133294177241623,0.0034767568577080965,-0.0037971350830048323
1751013435496528100,3.277528076171875,0.0017504957504570484,0.004345746245235205,-0.010922422632575035
1751013435506471200,3.28747119140625,0.007652593310922384,0.009770605713129044,-0.015894277021288872
1751013435516414200,3.297414306640625,0.017049822956323624,0.020535102114081383,-0.01281885989010334
1751013435526357200,3.307357177734375,0.02207946963608265,0.02984284982085228,-0.007237939164042473
1751013435536301300,3.31730126953125,0.0334748700261116,0.030785342678427696,0.0015387744642794132
1751013435546244400,3.327244384765625,0.036624323576688766,0.02213326469063759,0.012708071619272232
1751013435556187100,3.337187255859375,0.03653590753674507,0.0173193346709013,0.007985222153365612
1751013435566130200,3.347130126953125,0.03574308380484581,0.005546032916754484,-0.0008884305134415627
1751013435576074200,3.35707421875,0.024686170741915703,-0.00535588338971138,-0.01619414985179901
1751013435586017300,3.367017333984375,0.015281750820577145,-0.007710916455835104,-0.033478330820798874
1751013435595960300,3.376960205078125,0.012999688275158405,-0.0005627259379252791,-0.04625910893082619
1751013435605903000,3.386903076171875,0.011068630032241344,0.010926949791610241,-0.045287054032087326
1751013435615846100,3.39684619140625,0.00923451129347086,0.0187838077545166,-0.04009415581822395
1751013435625790500,3.40679052734375,0.01317998394370079,0.019896209239959717,-0.026341326534748077
1751013435635733200,3.416733154296875,0.01896197348833084,0.020201940089464188,-0.005142297595739365
1751013435645676300,3.42667626953125,0.028022579848766327,0.019576631486415863,0.013976003043353558
1751013435655619300,3.436619384765625,0.034032270312309265,0.014591725543141365,0.025019066408276558
1751013435665563400,3.4465634765625,0.03615933656692505,0.013622867874801159,0.02641349844634533
1751013435675506400,3.45650634765625,0.03542643412947655,0.01834571734070778,0.028691032901406288
1751013435685449500,3.466449462890625,0.03142689913511276,0.020747622475028038,0.01883973367512226
1751013435695392300,3.476392333984375,0.0285916980355978,0.021633390337228775,0.003409645054489374
1751013435705335300,3.486335205078125,0.02654079720377922,0.006530071143060923,-0.013260677456855774
1751013435715279400,3.496279296875,0.025430258363485336,-0.007742342073470354,-0.02556421607732773
1751013435725222400,3.506222412109375,0.015056447125971317,-0.008253402076661587,-0.036740705370903015
1751013435735165400,3.51616552734375,0.0054725296795368195,0.0020003002136945724,-0.03796735405921936
1751013435745108500,3.5261083984375,-0.0044346959330141544,0.01257837563753128,-0.030414365231990814
1751013435755052300,3.53605224609375,-0.006913566030561924,0.02534370683133602,-0.026396187022328377
1751013435764995300,3.545995361328125,-0.004077565856277943,0.0355614572763443,-0.014750449918210506
1751013435774938400,3.5559384765625,0.006292250473052263,0.04187314957380295,0.00065460498444736
1751013435784881400,3.56588134765625,0.0223857332020998,0.03787148371338844,0.014765630476176739
1751013435794824400,3.575824462890625,0.028977589681744576,0.03784351795911789,0.022518359124660492
1751013435804768300,3.585768310546875,0.03080771304666996,0.029874276369810104,0.025249963626265526
1751013435814711300,3.595711181640625,0.028322983533143997,0.019939353689551353,0.015928367152810097
1751013435824654300,3.605654296875,0.01840643770992756,0.0002567287301644683,0.0032597091048955917
1751013435834597400,3.615597412109375,0.009064601734280586,-0.01267078798264265,-0.01611798256635666
1751013435844541200,3.625541259765625,0.0030306773260235786,-0.015290805138647556,-0.03009798191487789
1751013435854484200,3.635484130859375,0.007763913366943598,-0.012684902176260948,-0.03480139002203941
1751013435864427300,3.64542724609375,0.013081180863082409,-0.0044109937734901905,-0.03706347942352295
1751013435874370300,3.655370361328125,0.02690724842250347,0.01088886708021164,-0.03403652831912041
1751013435884314400,3.665314453125,0.03568635880947113,0.024220118299126625,-0.02190556563436985
1751013435894257400,3.67525732421875,0.03417501598596573,0.03117949143052101,-0.011658786796033382
1751013435904200200,3.6852001953125,0.03334943577647209,0.026313096284866333,0.006479737348854542
1751013435914143200,3.695143310546875,0.02755546197295189,0.011174623854458332,0.012281433679163456
1751013435924086300,3.705086181640625,0.016696687787771225,-0.010400975123047829,0.01619548164308071
1751013435934030300,3.7150302734375,0.008590824902057648,-0.02713361568748951,0.008438758552074432
1751013435943973400,3.724973388671875,-0.0038120488170534372,-0.03181492164731026,-0.0009595369338057935
1751013435953916400,3.73491650390625,-0.014249775558710098,-0.02648194134235382,-0.016585368663072586
1751013435963859200,3.744859130859375,-0.015459916554391384,-0.01483300793915987,-0.03557530418038368
1751013435973802200,3.75480224609375,-0.016621854156255722,0.0002889529860112816,-0.049915894865989685
1751013435983746300,3.764746337890625,-0.009917878545820713,0.009690443985164165,-0.05741269141435623
1751013435993689300,3.774689453125,-0.010220945812761784,0.010298177599906921,-0.057673148810863495
1751013436003632400,3.78463232421875,-0.009051019325852394,0.006717823911458254,-0.04622102528810501
1751013436013575400,3.794575439453125,-0.014935007318854332,0.001645567244850099,-0.02929610386490822
1751013436023519200,3.804519287109375,-0.021529793739318848,-0.007495200727134943,-0.01056183036416769
1751013436033462300,3.814462158203125,-0.030119553208351135,-0.016082828864455223,0.011296862736344337
1751013436043405300,3.8244052734375,-0.030241791158914566,-0.018034927546977997,0.028386633843183517
1751013436053348400,3.834348388671875,-0.021401429548859596,-0.013454290106892586,0.04067791998386383
1751013436063292200,3.844292236328125,-0.004661863669753075,-0.005543103441596031,0.03905126079916954
1751013436073235200,3.854235107421875,0.006879744119942188,0.004829908721148968,0.031123297289013863
1751013436083178200,3.86417822265625,0.00806218758225441,0.008709335699677467,0.01104412879794836
1751013436093121300,3.874121337890625,0.0041212416253983974,0.013373862020671368,-0.014298511669039726
1751013436103064300,3.884064208984375,-0.006401440128684044,0.019463978707790375,-0.03693671151995659
1751013436113008400,3.89400830078125,-0.011933092027902603,0.02015107497572899,-0.05491890758275986
1751013436122951200,3.903951171875,-0.008470715954899788,0.016104934737086296,-0.05777142196893692
1751013436132894200,3.913894287109375,-0.006961236707866192,0.012379437685012817,-0.044924329966306686
1751013436142837200,3.923837158203125,-0.008488559164106846,-0.00015286543930415064,-0.027281155809760094
1751013436152781300,3.93378125,-0.005886651109904051,-0.010374610312283039,0.0025273398496210575
1751013436162724400,3.943724365234375,-0.0036722328513860703,-0.01798539236187935,0.02653440460562706
1751013436172667400,3.95366748046875,-0.007819573394954205,-0.017559818923473358,0.04207474738359451
1751013436182610200,3.963610107421875,-0.013991981744766235,-0.01085717510432005,0.04580290988087654
1751013436192553200,3.97355322265625,-0.02112765610218048,-0.005543103441596031,0.035467978566884995
1751013436202497300,3.983497314453125,-0.033844783902168274,-0.010122941806912422,0.01575392857193947
1751013436212440300,3.9934404296875,-0.030796794220805168,-0.009823336265981197,-0.011211109347641468
1751013436222383400,4.00338330078125,-0.022006498649716377,-0.0023209447972476482,-0.03220853582024574
1751013436232326100,4.013326171875,-0.014357101172208786,0.008224640041589737,-0.04897153750061989
1751013436242270200,4.023270263671875,-0.01050164271146059,0.022009694948792458,-0.05229862406849861
1751013436252213200,4.033213134765625,-0.014108894392848015,0.03985047712922096,-0.03741208836436272
1751013436262156300,4.04315625,-0.013770140707492828,0.050091397017240524,-0.01380795706063509
1751013436272099300,4.053099365234375,-0.017772072926163673,0.035225097090005875,0.00035926041891798377
1751013436282042400,4.06304248046875,-0.020597420632839203,-0.0010120011866092682,0.010717625729739666
1751013436291986200,4.072986083984375,-0.025668611750006676,-0.030427947640419006,0.017780860885977745
1751013436301929200,4.08292919921875,-0.028012726455926895,-0.03982198238372803,0.014764831401407719
1751013436311872300,4.092872314453125,-0.02882898412644863,-0.03232837840914726,0.009660882875323296
1751013436321815300,4.102815185546875,-0.026803916320204735,-0.013875335454940796,-0.00173717993311584
1751013436331759000,4.112759033203125,-0.022517826408147812,0.007529288996011019,-0.012488894164562225
1751013436341702100,4.1227021484375,-0.014208496548235416,0.021893315017223358,-0.027832962572574615
1751013436351645200,4.132645263671875,-0.004460262134671211,0.029590383172035217,-0.03073740564286709
1751013436361588200,4.142588134765625,-0.0012610068079084158,0.02576128952205181,-0.03791888803243637
1751013436371531300,4.15253125,0.0006372944335453212,0.012222311459481716,-0.04202361777424812
1751013436381475300,4.162475341796875,-0.004291683901101351,-0.00012836436508223414,-0.035413116216659546
1751013436391418400,4.17241845703125,-0.011181814596056938,-0.009327988140285015,-0.024161795154213905
1751013436401361400,4.182361328125,-0.011425493285059929,-0.014606107026338577,-0.012509133666753769
1751013436411304200,4.19230419921875,-0.010325341485440731,-0.02431119792163372,-0.010047308169305325
1751013436421248500,4.20224853515625,-0.0043771713972091675,-0.02340385876595974,-0.007104248274117708
1751013436431191600,4.212191650390625,0.004652009811252356,-0.022476812824606895,-0.006995591334998608
1751013436441134300,4.22213427734375,0.011899003759026527,-0.016392555087804794,-0.020129503682255745
1751013436451077400,4.232077392578125,0.012468920089304447,-0.002823217073455453,-0.028985045850276947
1751013436461020200,4.242020263671875,0.011153318919241428,0.008376972749829292,-0.0344085730612278
1751013436470964500,4.251964599609375,0.008922122418880463,0.016633572056889534,-0.032952357083559036
1751013436480907500,4.261907470703125,0.012402607128024101,0.02448377199470997,-0.023245401680469513
1751013436490850600,4.2718505859375,0.02310531958937645,0.02563984878361225,-0.007774566300213337
1751013436500793300,4.28179345703125,0.02978772297501564,0.016568856313824654,-0.0005515406373888254
1751013436510737400,4.2917373046875,0.03392787277698517,0.007656588219106197,0.004537227563560009
1751013436520680400,4.301680419921875,0.029321670532226562,-0.0009840379934757948,0.0023853934835642576
1751013436530623500,4.31162353515625,0.021312745288014412,0.0033044503070414066,-0.0015339808305725455
1751013436540566500,4.32156640625,0.0068113007582724094,0.006188387516885996,-0.013256949372589588
1751013436550510300,4.33151025390625,-0.008614527061581612,0.010067547671496868,-0.019205652177333832
1751013436560453400,4.341453369140625,-0.013517140410840511,0.02329467050731182,-0.023322632536292076
1751013436570396400,4.351396484375,-0.010513893328607082,0.03141464665532112,-0.021792912855744362
1751013436580339500,4.36133935546875,-0.002877545543015003,0.03261733055114746,-0.021045098081231117
1751013436590282500,4.371282470703125,0.0015789881581440568,0.03259949013590813,-0.01715741492807865
1751013436600226300,4.381226318359375,0.01001934427767992,0.03569195047020912,-0.011262774467468262
1751013436610169300,4.39116943359375,0.009270464070141315,0.038906119763851166,-0.008852614089846611
1751013436620112400,4.4011123046875,0.008553008548915386,0.048108141869306564,-0.005606220569461584
1751013436630055400,4.411055419921875,0.000055393749789800495,0.053098373115062714,0.004209125880151987
1751013436639999500,4.42099951171875,-0.0005198490689508617,0.04994785040616989,0.008094411343336105
1751013436649942300,4.4309423828125,0.00036485306918621063,0.03923635184764862,0.004487692844122648
1751013436659885300,4.44088525390625,0.006747917737811804,0.025355158373713493,0.0009912285022437572
1751013436669828400,4.450828369140625,0.012762666679918766,0.015508651733398438,-0.006101834587752819
1751013436679771400,4.460771484375,0.019464777782559395,0.008844890631735325,-0.012348544783890247
1751013436689715500,4.470715576171875,0.02082219161093235,0.01133840810507536,-0.018307633697986603
1751013436699658500,4.480658447265625,0.01996598392724991,0.019639480859041214,-0.023132216185331345
1751013436709601300,4.490601318359375,0.016047408804297447,0.028086230158805847,-0.0330977663397789
1751013436719544300,4.50054443359375,0.014482269994914532,0.033548373728990555,-0.0418984480202198
1751013436729488400,4.51048828125,0.01158368494361639,0.031384289264678955,-0.04819788783788681
1751013436739431400,4.520431396484375,0.008522914722561836,0.02779354713857174,-0.04616296663880348
1751013436749374500,4.53037451171875,0.0008141283178701997,0.023742614313960075,-0.03337526693940163
1751013436759317500,4.5403173828125,-0.003715375903993845,0.027126692235469818,-0.020555341616272926
1751013436769260300,4.55026025390625,-0.011638280004262924,0.028662271797657013,-0.0076153092086315155
1751013436779204400,4.560204345703125,-0.02184298075735569,0.021568141877651215,0.0014908375451341271
1751013436789147400,4.5701474609375,-0.017188839614391327,0.016263658180832863,0.00021438446128740907
1751013436799090400,4.58009033203125,-0.007339671719819307,0.01992550492286682,-0.005087703000754118
1751013436809033500,4.590033447265625,0.00384374032728374,0.024382837116718292,-0.008747684769332409
1751013436818977300,4.599977294921875,0.015202389098703861,0.0453251376748085,-0.011889948509633541
1751013436828920300,4.60992041015625,0.02130741998553276,0.0664096474647522,-0.010675814002752304
1751013436838863400,4.61986328125,0.02377483807504177,0.06943846493959427,-0.01575925573706627
1751013436848806400,4.629806396484375,0.012234029360115528,0.0503140352666378,-0.02033882774412632
1751013436858749400,4.63974951171875,0.004999286029487848,0.019905798137187958,-0.027484089136123657
1751013436868693200,4.649693359375,-0.0025837989524006844,0.0014684670604765415,-0.032588567584753036
1751013436878636300,4.65963623046875,-0.005940180737525225,-0.0029787456151098013,-0.03429645299911499
1751013436888579300,4.669579345703125,-0.00023515711654908955,0.007735684048384428,-0.028059331700205803
1751013436898522400,4.6795224609375,0.008460063487291336,0.029050560668110847,-0.01164653617888689
1751013436908466400,4.689466552734375,0.019270900636911392,0.05324537679553032,0.004485561978071928
1751013436918409500,4.699409423828125,0.028301145881414413,0.06296618282794952,0.020686369389295578
1751013436928352300,4.709352294921875,0.030892934650182724,0.0569160133600235,0.025052888318896294
1751013436938295300,4.71929541015625,0.022427011281251907,0.04042598605155945,0.02111993171274662
1751013436948238300,4.72923828125,0.009265935979783535,0.031993620097637177,0.007909322157502174
1751013436958182400,4.739182373046875,0.0024913870729506016,0.05685289576649666,-0.010181531310081482
1751013436968125400,4.74912548828125,0.008841960690915585,0.057367950677871704,-0.0429096482694149
1751013436978068200,4.759068115234375,0.018265556544065475,0.04352031275629997,-0.07097137719392776
1751013436988011300,4.76901123046875,0.01595127023756504,0.014998123981058598,-0.08680786192417145
1751013436997955300,4.778955322265625,0.014412228949368,-0.0005424859118647873,-0.08035662770271301
1751013437007898400,4.7888984375,0.010972755961120129,-0.005259742960333824,-0.05807076022028923
1751013437017841400,4.79884130859375,0.01576458103954792,0.004245877731591463,-0.0330362468957901
1751013437027784400,4.808784423828125,0.015591476112604141,0.0025126924738287926,-0.01067874301224947
1751013437037728300,4.818728271484375,0.020731909200549126,0.0013512879377231002,0.011625230312347412
1751013437047671300,4.82867138671875,0.022348182275891304,-0.0016018913593143225,0.027042802423238754
1751013437057614300,4.8386142578125,0.02485208585858345,0.001538241864182055,0.028614068403840065
1751013437067557400,4.848557373046875,0.02936614491045475,0.003288471372798085,0.021197430789470673
1751013437077500400,4.85850048828125,0.02708301693201065,0.004736698232591152,0.0081527354195714
1751013437087444200,4.8684443359375,0.02851419895887375,0.004388622939586639,-0.00407596817240119
1751013437097387300,4.87838720703125,0.02100035734474659,0.005352421198040247,-0.01974121481180191
1751013437107330300,4.888330322265625,0.016109194606542587,0.0012072109384462237,-0.030731547623872757
1751013437117273300,4.8982734375,0.014472948387265205,-0.0018820558907464147,-0.04062865301966667
1751013437127217400,4.908217529296875,0.01858380436897278,-0.0003427488263696432,-0.04002464935183525
1751013437137160200,4.91816015625,0.020663466304540634,0.006941795814782381,-0.030176011845469475
1751013437147103200,4.928103271484375,0.021765217185020447,0.01293284259736538,-0.021996378898620605
1751013437157046300,4.93804638671875,0.022729281336069107,0.01044385228306055,-0.004246144089847803
1751013437166989300,4.9479892578125,0.01930871605873108,0.005175853613764048,0.012623117305338383
1751013437176933400,4.957933349609375,0.013156548142433167,-0.0018458369886502624,0.0223830696195364
1751013437186876400,4.96787646484375,0.007029147353023291,-0.013587181456387043,0.023731695488095284
1751013437196819200,4.977819091796875,0.0015017564874142408,-0.018569955602288246,0.021253889426589012
1751013437206762200,4.98776220703125,-0.0019110844004899263,-0.018183797597885132,0.014435931108891964
1751013437216706300,4.997706298828125,-0.005949235521256924,-0.009925867430865765,-0.0012807141756638885
1751013437226649300,5.0076494140625,-0.007765777874737978,-0.003852528752759099,-0.022424083203077316
1751013437236592400,5.01759228515625,-0.012587963603436947,-0.006630206014961004,-0.04613953083753586
1751013437246535400,5.027535400390625,-0.009298160672187805,-0.004482366610318422,-0.06035575270652771
1751013437256479200,5.037479248046875,0.000012250540748937055,-0.00230816169641912,-0.06204739212989807
1751013437266422300,5.04742236328125,0.012813000939786434,0.0049135321751236916,-0.05146186053752899
1751013437276365300,5.057365234375,0.022767895832657814,0.008223042823374271,-0.02468164451420307
1751013437286308400,5.067308349609375,0.03566904738545418,0.006369215901941061,0.007619037292897701
1751013437296251400,5.07725146484375,0.03561631590127945,0.0010924286907538772,0.034574221819639206
1751013437306195200,5.0871953125,0.03323571756482124,-0.010596717707812786,0.05185867100954056
1751013437316138200,5.09713818359375,0.02653413824737072,-0.02069036476314068,0.05381769314408302
1751013437326081300,5.107081298828125,0.016435697674751282,-0.012385030277073383,0.041437454521656036
1751013437336024300,5.1170244140625,0.00446931691840291,0.00155262288171798,0.018794726580381393
1751013437345968000,5.126968017578125,0.0020660804584622383,0.01510225422680378,-0.012741628102958202
1751013437355911000,5.136910888671875,0.005240035708993673,0.024388164281845093,-0.03985314071178436
1751013437365854000,5.14685400390625,0.018089255318045616,0.03238962963223457,-0.05505100265145302
1751013437375797000,5.156796875,0.03086576983332634,0.04447612166404724,-0.051532965153455734
1751013437385740000,5.166739990234375,0.036672525107860565,0.04880296066403389,-0.03939614072442055
1751013437395684000,5.17668408203125,0.03664110228419304,0.04670998081564903,-0.013530456461012363
1751013437405627100,5.186627197265625,0.028111528605222702,0.042451053857803345,0.009041697718203068
1751013437415570000,5.19656982421875,0.018753182142972946,0.02413622848689556,0.02473970130085945
1751013437425513000,5.206512939453125,0.0062187472358345985,0.0004034689045511186,0.028800489380955696
1751013437435457000,5.21645703125,0.0057649449445307255,-0.023603862151503563,0.02053084224462509
1751013437445400000,5.226400146484375,0.0057497648522257805,-0.03659849241375923,0.008922388777136803
1751013437455343000,5.236343017578125,0.008796154521405697,-0.02780659683048725,-0.0089391665533185
1751013437465286100,5.2462861328125,0.01414378173649311,-0.008627044036984444,-0.028615133836865425
1751013437475230200,5.256230224609375,0.020241621881723404,0.014698518440127373,-0.040758613497018814
1751013437485173000,5.266173095703125,0.021505558863282204,0.030489198863506317,-0.0472860224545002
1751013437495116000,5.276115966796875,0.02887745387852192,0.03656892850995064,-0.0448971688747406
1751013437505059000,5.28605908203125,0.03281041234731674,0.029464147984981537,-0.036794498562812805
1751013437515002000,5.296002197265625,0.03690475597977638,0.017314808443188667,-0.02497112937271595
1751013437524946200,5.3059462890625,0.03663018345832825,-0.007081877905875444,-0.012677978724241257
1751013437534889000,5.315888916015625,0.03268524259328842,-0.023487482219934464,0.0024373249616473913
1751013437544832000,5.32583203125,0.026941336691379547,-0.031318508088588715,0.00947952177375555
1751013437554775000,5.335775146484375,0.01919233612716198,-0.023804398253560066,0.014087056741118431
1751013437564719000,5.345718994140625,0.012077435851097107,-0.010220679454505444,0.008460596203804016
1751013437574662100,5.355662109375,0.008799084462225437,0.0038043255917727947,-0.003031476167961955
1751013437584605200,5.365605224609375,0.012793825939297676,0.01637364737689495,-0.021870678290724754
1751013437594548000,5.3755478515625,0.03199654817581177,0.026316026225686073,-0.033425066620111465
1751013437604492300,5.3854921875,0.0453011691570282,0.031066039577126503,-0.033491380512714386
1751013437614435000,5.39543505859375,0.060802362859249115,0.02743828296661377,-0.02935709059238434
1751013437624378000,5.405378173828125,0.06191689521074295,0.014973622746765614,-0.019397933036088943
1751013437634321200,5.415321044921875,0.04951988160610199,-0.004180363845080137,-0.00532632227987051
1751013437644265200,5.42526513671875,0.02731044963002205,-0.016715863719582558,0.009571400471031666
1751013437654208300,5.435208251953125,0.005337773822247982,-0.025531992316246033,0.016171246767044067
1751013437664151300,5.4451513671875,-0.0076091839000582695,-0.028811674565076828,0.015110509470105171
1751013437674094000,5.455093994140625,-0.01401781477034092,-0.02551761083304882,0.0037854171823710203
1751013437684037000,5.465037109375,-0.006435528863221407,-0.016920659691095352,-0.01002200786024332
1751013437693981200,5.474981201171875,0.0027590349782258272,0.0012175972806289792,-0.021408885717391968
1751013437703924200,5.48492431640625,0.01245027780532837,0.01907835341989994,-0.032772328704595566
1751013437713867300,5.4948671875,0.01792813464999199,0.024713335558772087,-0.04056074097752571
1751013437723810300,5.504810302734375,0.019826434552669525,0.01828979142010212,-0.04772970452904701
1751013437733754000,5.514754150390625,0.01787460409104824,0.007948203943669796,-0.04261723533272743
1751013437743697200,5.524697265625,0.006925017572939396,-0.003403253620490432,-0.0375516377389431
1751013437753640200,5.53464013671875,-0.0007827030494809151,-0.007899202406406403,-0.03238936513662338
1751013437763583200,5.544583251953125,-0.004987834487110376,-0.012375709600746632,-0.028171449899673462
1751013437773527000,5.554527099609375,-0.005222725216299295,-0.00851652305573225,-0.02353621833026409
1751013437783470000,5.564469970703125,-0.001936917076818645,0.0005619269795715809,-0.018195781856775284
1751013437793413000,5.5744130859375,0.006356698926538229,0.01203748770058155,-0.012178901582956314
1751013437803356200,5.584356201171875,0.015578960068523884,0.022000640630722046,-0.0025987126864492893
1751013437813300200,5.59430029296875,0.017609354108572006,0.030968569219112396,0.011768775060772896
1751013437823243300,5.6042431640625,0.020740699023008347,0.03404585272073746,0.02334686741232872
1751013437833186000,5.61418603515625,0.020501013845205307,0.028483040630817413,0.03236060217022896
1751013437843129000,5.624129150390625,0.02136973664164543,0.016692694276571274,0.031134748831391335
1751013437853072100,5.634072021484375,0.024815866723656654,0.016651147976517677,0.024407338351011276
1751013437863016200,5.64401611328125,0.028117654845118523,0.017959292978048325,0.016879381611943245
1751013437872959200,5.653959228515625,0.034165158867836,0.01625646837055683,0.006281065288931131
1751013437882902300,5.66390234375,0.03898574784398079,0.01859658770263195,-0.0032352081034332514
1751013437892845000,5.673844970703125,0.040590837597846985,0.03069239854812622,-0.00911786500364542
1751013437902789000,5.6837890625,0.04079829528927803,0.03564747795462608,-0.008800948038697243
1751013437912732200,5.693732177734375,0.0346706286072731,0.028256671503186226,-0.00501100393012166
1751013437922675200,5.70367529296875,0.027707794681191444,0.015125423669815063,-0.0008522115531377494
1751013437932618200,5.7136181640625,0.022844329476356506,-0.00015632755821570754,0.005374525208026171
1751013437942562000,5.72356201171875,0.020359599962830544,-0.011928032152354717,0.012264922261238098
1751013437952505000,5.733505126953125,0.020863203331828117,-0.010327205993235111,0.014608503319323063
1751013437962448100,5.7434482421875,0.024778317660093307,0.007174556143581867,0.020978784188628197
1751013437972391200,5.75339111328125,0.023303991183638573,0.02653786726295948,0.011501925997436047
1751013437982335000,5.7633349609375,0.021013671532273293,0.031267642974853516,-0.004795820452272892
1751013437992278000,5.773278076171875,0.013302755542099476,0.023119434714317322,-0.026272617280483246
1751013438002221000,5.783220947265625,0.00788561999797821,0.010852914303541183,-0.04091973602771759
1751013438012164000,5.7931640625,0.003747866488993168,0.003662645351141691,-0.0567983016371727
1751013438022107100,5.803107177734375,0.006490656174719334,-0.0007550061563961208,-0.060511548072099686
1751013438032051200,5.81305126953125,0.007725031115114689,0.012528042308986187,-0.05010098218917847
1751013438041994000,5.822993896484375,0.018200576305389404,0.01955798827111721,-0.037469346076250076
1751013438051937000,5.83293701171875,0.026037460193037987,0.034018952399492264,-0.018495919182896614
1751013438061880000,5.842880126953125,0.03784910961985588,0.042941343039274216,0.007349791936576366
1751013438071824100,5.85282421875,0.03961558640003204,0.0421045757830143,0.039800677448511124
1751013438081767200,5.86276708984375,0.040286969393491745,0.027397535741329193,0.054733287543058395
1751013438091710200,5.872710205078125,0.03377500921487808,-0.0008801747462712228,0.05531811714172363
1751013438101653000,5.882653076171875,0.02286803163588047,-0.02081526629626751,0.03647252172231674
1751013438111597000,5.89259716796875,0.008073372766375542,-0.03031902387738228,0.013714746572077274
1751013438121540000,5.9025400390625,-0.002909503411501646,-0.024983646348118782,-0.016886837780475616
1751013438131483100,5.912483154296875,-0.005391037091612816,-0.0029025792609900236,-0.04782531410455704
1751013438141426200,5.92242626953125,-0.0033989925868809223,0.02143019065260887,-0.05813441053032875
1751013438151370000,5.932369873046875,0.01005130261182785,0.04971269518136978,-0.05636527016758919
1751013438161313000,5.94231298828125,0.023681627586483955,0.06319228559732437,-0.038665104657411575
1751013438171256000,5.952256103515625,0.036626186221838,0.06572521477937698,-0.011846539564430714
1751013438181199000,5.96219921875,0.03357953205704689,0.054066166281700134,0.01601411961019039
1751013438191143000,5.972142822265625,0.02095108851790428,0.028506476432085037,0.03507835790514946
1751013438201086000,5.9820859375,0.002176867797970772,0.0024109596852213144,0.0465584471821785
1751013438211029000,5.992029052734375,-0.00941880140453577,-0.01085584331303835,0.05108475685119629
1751013438220972000,6.001971923828125,-0.01871776208281517,-0.014855644665658474,0.04572993889451027
1751013438230915000,6.0119150390625,-0.016826916486024857,-0.012713132426142693,0.028980785980820656
1751013438240859100,6.021859130859375,-0.012749084271490574,0.0008165251929312944,0.015244998969137669
1751013438250802000,6.031802001953125,-0.004640025552362204,0.012229768559336662,0.001365402713418007
1751013438260745000,6.041744873046875,0.0067599015310406685,0.022843264043331146,-0.018488196656107903
1751013438270688000,6.05168798828125,0.010963168926537037,0.03720196336507797,-0.0296082254499197
1751013438280632000,6.061632080078125,0.013404754921793938,0.044608213007450104,-0.027972511947155
1751013438290575000,6.0715751953125,0.011968245729804039,0.04731585085391998,-0.025251826271414757
1751013438300518100,6.08151806640625,0.005195028148591518,0.04855715110898018,-0.010191118344664574
1751013438310461000,6.0914609375,0.002572613535448909,0.042149849236011505,0.006731938570737839
1751013438320405000,6.101405029296875,-0.007220362313091755,0.02912992238998413,0.018094846978783607
1751013438330348000,6.11134814453125,-0.006698648910969496,0.014886537566781044,0.03135339543223381
1751013438340291000,6.121291015625,-0.006825948134064674,0.006573214195668697,0.0365939624607563
1751013438350234600,6.131234619140625,-0.01252005249261856,0.006354035809636116,0.03662991523742676
1751013438360178700,6.1411787109375,-0.013607688248157501,0.0049582733772695065,0.02929850108921528
1751013438370121700,6.151121826171875,-0.01489372830837965,0.01338451448827982,0.01985519751906395
1751013438380064500,6.161064453125,-0.014057495631277561,0.017064204439520836,0.005095159634947777
1751013438390007600,6.171007568359375,-0.008928247727453709,0.026089124381542206,-0.005391037091612816
1751013438399951600,6.18095166015625,0.0018152105621993542,0.0360349677503109,-0.01788073033094406
1751013438409894700,6.190894775390625,0.007710916455835104,0.043895818293094635,-0.020799554884433746
1751013438419837700,6.200837646484375,0.009252887219190598,0.04987354949116707,-0.015578427352011204
1751013438429780500,6.210780517578125,0.007789745926856995,0.04900349676609039,-0.007970042526721954
1751013438439723500,6.2207236328125,0.0075756278820335865,0.03835484758019447,-0.0018993664998561144
1751013438449667600,6.23066748046875,0.0035366779193282127,0.02912752516567707,0.0049561429768800735
1751013438459610600,6.240610595703125,-0.0035382758360356092,0.028019649907946587,0.013303554616868496
1751013438469553700,6.2505537109375,-0.008340221829712391,0.02623426727950573,0.01624075509607792
1751013438479496700,6.26049658203125,-0.007538876496255398,0.05572398379445076,0.01158475037664175
1751013438489440800,6.270440673828125,0.008681372739374638,0.0873870998620987,-0.005648031830787659
1751013438499383800,6.2803837890625,0.027767183259129524,0.10299722105264664,-0.02827318385243416
1751013438509326600,6.29032666015625,0.036017656326293945,0.10581617802381516,-0.052988916635513306
1751013438519269600,6.30026953125,0.03194568306207657,0.118007592856884,-0.07032955437898636
1751013438529213700,6.310213623046875,0.02022084966301918,0.13340066373348236,-0.08022133260965347
1751013438539156700,6.32015673828125,0.014376542530953884,0.13747690618038177,-0.09418375790119171
1751013438549099800,6.330099853515625,0.00860201008617878,0.09080793708562851,-0.1053226962685585
1751013438559042800,6.340042724609375,-0.0013102752855047584,0.022120481356978416,-0.10092794895172119
1751013438568986600,6.349986572265625,-0.014000504277646542,-0.03948109596967697,-0.07644710689783096
1751013438578929700,6.3599296875,-0.02719646692276001,-0.0710829645395279,-0.03904220834374428
1751013438588872700,6.369872802734375,-0.03329350799322128,-0.08230152726173401,0.001853826455771923
1751013438598815700,6.379815673828125,-0.03508341684937477,-0.08083013445138931,0.030308105051517487
1751013438608759600,6.389759521484375,-0.035641349852085114,-0.07736828923225403,0.039618514478206635
1751013438618702600,6.39970263671875,-0.037523407489061356,-0.07694617658853531,0.02075348235666752
1751013438628645600,6.409645751953125,-0.03051077201962471,-0.06557634472846985,-0.017737718299031258
1751013438638588700,6.419588623046875,-0.02574530988931656,-0.0390523262321949,-0.05986759439110756
1751013438648532700,6.42953271484375,-0.01913028582930565,-0.0026969832833856344,-0.10395409911870956
1751013438658475500,6.4394755859375,-0.01739550195634365,0.022840866819024086,-0.13220544159412384
1751013438668418600,6.44941845703125,-0.015199725516140461,0.041183654218912125,-0.14672791957855225
1751013438678361600,6.459361572265625,-0.010421481914818287,0.045811429619789124,-0.14026257395744324
1751013438688305700,6.4693056640625,-0.010313090868294239,0.037879470735788345,-0.12308864295482635
1751013438698248700,6.479248779296875,-0.007637679576873779,0.01884026639163494,-0.09618885070085526
1751013438708191700,6.489191650390625,-0.014120345935225487,-0.007271228823810816,-0.060387708246707916
1751013438718134500,6.499134521484375,-0.017221864312887192,-0.020479975268244743,-0.014575746841728687
1751013438728077600,6.50907763671875,-0.018675416707992554,-0.015237808227539062,0.025018533691763878
1751013438738021600,6.519021728515625,-0.022484801709651947,-0.010142115876078606,0.054842475801706314
1751013438747964700,6.528964599609375,-0.014759238809347153,-0.006573214195668697,0.07363773882389069
1751013438757907700,6.53890771484375,0.00019813918333966285,-0.008407332934439182,0.07700397074222565
1751013438767850800,6.548850830078125,0.012629775330424309,-0.0001917476038215682,0.05817169323563576
1751013438777794600,6.558794677734375,0.01275654137134552,0.011787683703005314,0.03008466586470604
1751013438787737600,6.568737548828125,0.005986253265291452,0.024089889600872993,-0.0010692591313272715
1751013438797680600,6.5786806640625,-0.012321647256612778,0.03165140375494957,-0.029943518340587616
1751013438807623700,6.588623779296875,-0.022186528891324997,0.030410636216402054,-0.04381938651204109
1751013438817567500,6.5985673828125,-0.027641214430332184,0.028074512258172035,-0.04857632517814636
1751013438827510500,6.608510498046875,-0.03187324479222298,0.022758042439818382,-0.03969760984182358
1751013438837453600,6.61845361328125,-0.02678634040057659,0.01780909113585949,-0.022123411297798157
1751013438847396600,6.628396728515625,-0.022433670237660408,0.01486150361597538,0.0064802695997059345
1751013438857340700,6.638340576171875,-0.00896766223013401,0.01937023550271988,0.033732395619153976
1751013438867283500,6.648283447265625,-0.006653641816228628,0.022054435685276985,0.053166281431913376
1751013438877226500,6.6582265625,-0.009562346152961254,0.0212970320135355,0.0684666782617569
1751013438887169500,6.66816943359375,-0.016934774816036224,0.014400511048734188,0.0590105876326561
1751013438897113600,6.678113525390625,-0.030102774500846863,0.00606481684371829,0.0458628311753273
1751013438907056600,6.688056640625,-0.04290991649031639,0.0020069582387804985,0.021396368741989136
1751013438916999700,6.697999755859375,-0.0465075820684433,-0.0034149715211242437,-0.00048070057528093457
1751013438926942500,6.7079423828125,-0.04080814868211746,0.007630755193531513,-0.01607670448720455
1751013438936886500,6.717886474609375,-0.029528597369790077,0.022001972422003746,-0.02082485519349575
1751013438946829600,6.72782958984375,-0.017671404406428337,0.03349777311086655,-0.02430294267833233
1751013438956772600,6.737772705078125,-0.00762835843488574,0.043231893330812454,-0.02364887110888958
1751013438966715600,6.747715576171875,-0.004320446401834488,0.045640721917152405,-0.022517293691635132
1751013438976659500,6.757659423828125,-0.0012253203894942999,0.03656679764389992,-0.017610153183341026
1751013438986602500,6.7676025390625,-0.0027286747936159372,0.026083532720804214,-0.009851299226284027
1751013438996545500,6.777545654296875,-0.003966512158513069,0.017233049497008324,-0.00012969593808520585
1751013439006488600,6.787488525390625,-0.007500526960939169,0.012527509592473507,0.004551608581095934
1751013439016432600,6.7974326171875,-0.012624449096620083,0.016352076083421707,0.005469067487865686
1751013439026375400,6.80737548828125,-0.01191125437617302,0.01744769886136055,-0.0021843246649950743
1751013439036318500,6.817318359375,-0.009946640580892563,0.025361282750964165,-0.009581254795193672
1751013439046261500,6.827261474609375,-0.007759386207908392,0.03617478162050247,-0.016259662806987762
1751013439056205600,6.83720556640625,0.0012322446564212441,0.03903421759605408,-0.021392373368144035
1751013439066148600,6.847148681640625,0.006022206041961908,0.038179341703653336,-0.02821832150220871
1751013439076091600,6.857091552734375,0.007866444997489452,0.040347423404455185,-0.02593545988202095
1751013439086034400,6.867034423828125,0.005075452383607626,0.04014874994754791,-0.019123094156384468
1751013439095977500,6.8769775390625,-0.0001073253879440017,0.038493331521749496,-0.007817975245416164
1751013439105921500,6.886921630859375,-0.0117914117872715,0.03708957880735397,0.002394714392721653
1751013439115864600,6.896864501953125,-0.016998691484332085,0.024223580956459045,0.0011286477092653513
1751013439125807600,6.9068076171875,-0.021102089434862137,0.017969679087400436,-0.00785765703767538
1751013439135750700,6.916750732421875,-0.02081926167011261,0.020555874332785606,-0.011427624151110649
1751013439145694500,6.926694580078125,-0.011926700361073017,0.03283890709280968,-0.01375069934874773
1751013439155637500,6.936637451171875,0.00038535939529538155,0.05459773167967796,-0.006968959700316191
1751013439165580500,6.94658056640625,0.0065537733025848866,0.05994509160518646,0.002561694709584117
1751013439175523600,6.956523681640625,0.00492098880931735,0.058707788586616516,0.011982893571257591
1751013439185467400,6.96646728515625,0.00902598537504673,0.04686550796031952,0.020871194079518318
1751013439195410400,6.976410400390625,0.0004950816510245204,0.027470773085951805,0.02436499483883381
1751013439205353500,6.986353515625,-0.004004328977316618,0.012111257761716843,0.027663851156830788
1751013439215296500,6.996296630859375,-0.013148292899131775,0.003469033632427454,0.021313810721039772
1751013439225240800,7.00624072265625,-0.011999937705695629,0.0014077469240874052,0.01338797714561224
1751013439235183600,7.01618359375,-0.009798035956919193,0.01938594877719879,0.004631769843399525
1751013439245126400,7.02612646484375,-0.014446317218244076,0.03561338782310486,-0.009863283485174179
1751013439255069400,7.0360693359375,-0.015509983524680138,0.02009461633861065,-0.016083361580967903
1751013439265013800,7.046013671875,-0.00797137338668108,0.023984694853425026,-0.00833649281412363
1751013439274956800,7.055956787109375,-0.00022770027862861753,0.04331871122121811,0.002996056107804179
1751013439284899600,7.065899658203125,0.008258994668722153,0.04180816560983658,0.010338923893868923
1751013439294842400,7.07584228515625,0.013655890710651875,0.027832696214318275,0.02159983478486538
1751013439304786700,7.08578662109375,0.01619894430041313,0.01841336116194725,0.033182986080646515
1751013439314729700,7.095729736328125,0.010894459672272205,0.012402607128024101,0.03445970639586449
1751013439324672800,7.1056728515625,0.008540757931768894,0.016386697068810463,0.026670226827263832
1751013439334615800,7.11561572265625,0.012282499112188816,0.014523549005389214,0.010729609988629818
1751013439344559600,7.1255595703125,0.0046386937610805035,0.014962703920900822,-0.0020471718162298203
1751013439354502400,7.13550244140625,0.0007520766812376678,0.0182301364839077,-0.018129203468561172
1751013439364445400,7.145445556640625,-0.0008548747282475233,0.025238245725631714,-0.0229782871901989
1751013439374388500,7.155388427734375,0.003428287338465452,0.03297659009695053,-0.021914619952440262
1751013439384331500,7.16533154296875,0.00430153775960207,0.04006272926926613,-0.011271828785538673
1751013439394275300,7.175275390625,0.00836951658129692,0.04676777124404907,0.003070891136303544
1751013439404218400,7.18521826171875,0.014449778944253922,0.0509507991373539,0.012314989231526852
1751013439414161400,7.195161376953125,0.014131265692412853,0.04526947811245918,0.01708284579217434
1751013439424104400,7.2051044921875,0.014093981124460697,0.031438082456588745,0.014877483248710632
1751013439434048500,7.215048583984375,0.009104282595217228,0.013434316031634808,0.004234426189213991
1751013439443991300,7.2249912109375,-0.0013203952694311738,0.0023489079903811216,-0.005825132131576538
1751013439453934300,7.234934326171875,-0.015923839062452316,-0.007817443460226059,-0.015444735996425152
1751013439463877400,7.24487744140625,-0.02335459180176258,-0.010975952260196209,-0.016713200137019157
1751013439473821400,7.254821533203125,-0.02237934060394764,-0.004060788080096245,-0.006197974551469088
1751013439483764500,7.264764404296875,-0.02526833862066269,-0.0032091091852635145,0.008191350847482681
1751013439493707500,7.27470751953125,-0.021043766289949417,-0.04961815103888512,0.025181518867611885
1751013439503650300,7.284650390625,-0.02172713354229927,-0.08308237046003342,0.046191465109586716
1751013439513594400,7.294594482421875,-0.02652907930314541,-0.09322687983512878,0.07676082104444504
1751013439523537400,7.304537353515625,-0.027180487290024757,-0.06817080080509186,0.08062427490949631
1751013439533480400,7.31448046875,-0.023025956004858017,-0.03241732716560364,0.06497474014759064
1751013439543423500,7.324423583984375,-0.0043896883726119995,0.0007022755453363061,0.031677234917879105
1751013439553367300,7.3343671875,0.01366494596004486,0.02141687460243702,-0.006294913589954376
1751013439563310300,7.344310302734375,0.015626097097992897,0.04086887091398239,-0.03767254203557968
1751013439573253400,7.35425341796875,0.01372220367193222,0.05390211194753647,-0.05397162213921547
1751013439583196400,7.364196533203125,0.00926327332854271,0.05283791571855545,-0.05361049622297287
1751013439593140500,7.374140380859375,0.010460097342729568,0.038834214210510254,-0.03405836969614029
1751013439603083300,7.384083251953125,0.0032807481475174427,0.010377272963523865,-0.014756042510271072
1751013439613026300,7.3940263671875,-0.004220577888190746,-0.019343869760632515,0.005940713454037905
1751013439622969300,7.40396923828125,-0.0080925477668643,-0.04000973328948021,0.018550515174865723
1751013439632912400,7.413912353515625,-0.0070523167960345745,-0.03741687908768654,0.03079839237034321
1751013439642856400,7.4238564453125,-0.009637713432312012,-0.01906477101147175,0.02696637064218521
1751013439652799500,7.433799560546875,-0.008823851123452187,-0.0004932174342684448,0.013390373438596725
1751013439662742300,7.4437421875,-0.008710667490959167,-0.0011627360945567489,-0.0068086376413702965
1751013439672685300,7.453685302734375,-0.006898119580000639,-0.006639793049544096,-0.035167042165994644
1751013439682629400,7.46362939453125,-0.0076363482512533665,-0.008222510106861591,-0.06339575350284576
1751013439692572400,7.473572509765625,-0.01233469694852829,0.007534348871558905,-0.07583164423704147
1751013439702515500,7.483515380859375,-0.014667625539004803,0.021695975214242935,-0.07076205313205719
1751013439712458500,7.49345849609375,-0.005344697739928961,0.028296086937189102,-0.05776289850473404
1751013439722402300,7.50340234375,0.005307679995894432,0.024892034009099007,-0.041124798357486725
1751013439732345300,7.513345458984375,0.01894865743815899,0.024355674162507057,-0.017189105972647667
1751013439742288400,7.523288330078125,0.02737702988088131,0.02171674743294716,0.002168345730751753
1751013439752231400,7.5332314453125,0.0315089225769043,0.012880112044513226,0.01720481924712658
1751013439762175200,7.54317529296875,0.026089923456311226,-0.0014210627414286137,0.020863736048340797
1751013439772118300,7.5531181640625,0.0208903681486845,-0.011755459010601044,0.014910506084561348
1751013439782061300,7.563061279296875,0.018667427822947502,-0.014124874025583267,0.007668039761483669
1751013439792004400,7.57300439453125,0.017400827258825302,-0.009402556344866753,-0.0019797938875854015
1751013439801948400,7.582948486328125,0.021767878904938698,0.0034027209039777517,-0.016527578234672546
1751013439811891200,7.59289111328125,0.028728051111102104,0.012269982136785984,-0.025406822562217712
1751013439821834200,7.602834228515625,0.03093714267015457,0.016642360016703606,-0.03287645801901817
1751013439831777300,7.61277734375,0.03554600849747658,0.017297230660915375,-0.029512085020542145
1751013439841720300,7.62272021484375,0.03536917641758919,0.01695954240858555,-0.019419504329562187
1751013439851664400,7.632664306640625,0.03970480337738991,0.003811516100540757,-0.011411645449697971
1751013439861607400,7.642607421875,0.03151558339595795,-0.008958341553807259,-0.005648564547300339
1751013439871550200,7.65255029296875,0.017529193311929703,-0.016112124547362328,-0.008235825225710869
1751013439881493200,7.6624931640625,-0.004433097783476114,-0.01894546113908291,-0.013789582066237926
1751013439891437300,7.672437255859375,-0.011916314251720905,-0.021207284182310104,-0.02316870167851448
1751013439901380400,7.68238037109375,-0.005379851907491684,-0.020780911669135094,-0.027885694056749344
1751013439911323400,7.692323486328125,0.0027654264122247696,-0.00875247921794653,-0.03111717291176319
1751013439921266400,7.702266357421875,0.0047090016305446625,-0.005769472103565931,-0.03502829000353813
1751013439931210200,7.712210205078125,0.008814796805381775,-0.010582337155938148,-0.03212517872452736
1751013439941153300,7.7221533203125,0.010152502916753292,-0.0035065840929746628,-0.025800704956054688
1751013439951096300,7.732096435546875,0.01401621662080288,-0.001460477476939559,-0.020020579919219017
1751013439961039400,7.742039306640625,0.015055381692945957,-0.007728226948529482,-0.017733190208673477
1751013439970983200,7.751983154296875,0.01587616838514805,-0.0018277274211868644,-0.020793961361050606
1751013439980926200,7.76192626953125,0.004531368613243103,0.0034059167373925447,-0.02292395755648613
1751013439990869200,7.771869140625,-0.00008442220860160887,0.0028703550342470407,-0.03717506676912308
1751013440000812300,7.781812255859375,-0.0011733887949958444,-0.0054142065346241,-0.04187394678592682
1751013440010755300,7.79175537109375,0.0004620584368240088,-0.004128698725253344,-0.044977862387895584
1751013440020699100,7.80169921875,0.002329200739040971,0.006143646314740181,-0.035958800464868546
1751013440030642200,7.81164208984375,0.006025135517120361,0.005172924138605595,-0.02485581487417221
1751013440040585200,7.821585205078125,0.008377239108085632,0.0037832865491509438,-0.01938594877719879
1751013440050528300,7.8315283203125,0.0070344735868275166,0.005690908990800381,-0.012201272882521152
1751013440060472300,7.841472412109375,0.006316751707345247,0.008086688816547394,-0.006819023750722408
1751013440070415400,7.851415283203125,0.0004753742541652173,0.011842012405395508,-0.007731689140200615
1751013440080358100,7.861358154296875,-0.00318886898458004,0.0171414352953434,-0.016745423898100853
1751013440090301200,7.87130126953125,-0.008072840049862862,0.010367685928940773,-0.027336282655596733
1751013440100245200,7.881245361328125,-0.016023706644773483,-0.0014554174849763513,-0.028907015919685364
1751013440110188300,7.891188232421875,-0.01429611537605524,-0.0054632085375487804,-0.03189028799533844
1751013440120131300,7.90113134765625,-0.010658237151801586,0.00301656243391335,-0.02550322934985161
1751013440130074400,7.911074462890625,-0.0037944719661027193,0.024046214297413826,-0.017676465213298798
1751013440140018400,7.921018310546875,-0.0013627394801005721,0.03984808176755905,-0.008102401159703732
1751013440149961200,7.930961181640625,-0.0025925873778760433,0.036865074187517166,-0.007454720325767994
1751013440159904300,7.940904296875,0.0012183962389826775,0.02623719722032547,-0.010864099487662315
1751013440169847300,7.950847412109375,0.007543936371803284,0.015168832615017891,-0.0105354655534029
1751013440179790300,7.960790283203125,0.012309396639466286,0.0037268276792019606,-0.00752103328704834
1751013440189734400,7.970734375,0.017769142985343933,0.006344448775053024,-0.007152185309678316
1751013440199677400,7.980677490234375,0.018086059018969536,0.019389675930142403,-0.005593170877546072
1751013440209620200,7.9906201171875,0.009571933187544346,0.033728934824466705,-0.0068054418079555035
1751013440219563300,8.000563232421875,-0.0017981663113459945,0.03291480615735054,-0.0063095614314079285
1751013440229507300,8.01050732421875,-0.004778509959578514,0.02576635032892227,-0.01654808409512043
1751013440239450400,8.020450439453125,-0.0023065637797117233,0.016273777931928635,-0.02388775534927845
1751013440249393400,8.030393310546875,0.002788329729810357,0.007022755686193705,-0.036426715552806854
1751013440259336200,8.040336181640624,0.007503722794353962,0.005944708362221718,-0.037085048854351044
1751013440269280500,8.050280517578125,0.012952550314366817,0.011877964250743389,-0.033659692853689194
1751013440279223600,8.0602236328125,0.011716044507920742,0.02407018281519413,-0.020684238523244858
1751013440289166300,8.070166259765625,0.013514210470020771,0.03550819307565689,-0.01786794699728489
1751013440299109400,8.080109375,0.015856994315981865,0.03585440292954445,-0.015661517158150673
1751013440309053400,8.090053466796874,0.015037273056805134,0.021981997415423393,-0.020433103665709496
1751013440318996500,8.09999658203125,0.01016928069293499,0.008051002398133278,-0.0249082800000906
1751013440328939500,8.109939453125,0.009966880083084106,-0.00398728484287858,-0.0295546967536211
1751013440338882600,8.119882568359374,0.010280068032443523,-0.001151018193922937,-0.030063094571232796
1751013440348825300,8.129825439453125,0.010145312175154686,0.0007960188668221235,-0.02539403922855854
1751013440358769400,8.139769287109376,0.013882526196539402,0.0036495958920568228,-0.01908288151025772
1751013440368712400,8.14971240234375,0.01768285594880581,0.016148610040545464,-0.012049471959471703
1751013440378655500,8.159655517578125,0.028299015015363693,0.023679763078689575,-0.0030306773260235786
1751013440388598500,8.1695986328125,0.03675242140889168,0.020017649978399277,-0.009428123012185097
1751013440398542300,8.179542236328125,0.03371375426650047,0.013667342253029346,-0.009060606360435486
1751013440408485400,8.1894853515625,0.026857713237404823,0.010333597660064697,-0.019522568210959435
1751013440418428400,8.199428466796874,0.01871643029153347,0.009586048312485218,-0.023149261251091957
1751013440428371500,8.209371337890625,0.010235060937702656,0.008645952679216862,-0.029332056641578674
1751013440438315300,8.219315185546876,0.0018232000293210149,0.004930576309561729,-0.030239928513765335
1751013440448258300,8.22925830078125,-0.0043590618297457695,0.006375341210514307,-0.03158216178417206
1751013440458201300,8.239201416015625,-0.0049276468344032764,0.00857537891715765,-0.027511784806847572
1751013440468144400,8.249144287109376,-0.0009451558580622077,0.011930695734918118,-0.021988390013575554
1751013440478088400,8.25908837890625,-0.0005400890368036926,0.016947025433182716,-0.01233443059027195
1751013440488031500,8.269031494140625,0.005529787857085466,0.01811135932803154,-0.007152984384447336
1751013440497974300,8.278974365234374,0.010663563385605812,0.012798885814845562,-0.0024711471050977707
1751013440507917300,8.288917236328125,0.00996448379009962,0.008432100526988506,-0.0009861685102805495
1751013440517860400,8.2988603515625,0.011144796386361122,0.01062068622559309,-0.010945059359073639
1751013440527804400,8.308804443359374,0.010399377904832363,0.019108979031443596,-0.01913774199783802
1751013440537747500,8.31874755859375,0.007846738211810589,0.027161845937371254,-0.026434270665049553
1751013440547690500,8.3286904296875,0.00646828580647707,0.03158988431096077,-0.033785928040742874
1751013440557633300,8.33863330078125,0.0076150428503751755,0.02491307258605957,-0.032818932086229324
1751013440567577300,8.348577392578125,0.013638313859701157,0.019760921597480774,-0.027287812903523445
1751013440577520400,8.358520263671876,0.015152853913605213,0.014207964763045311,-0.020228572189807892
1751013440587463400,8.36846337890625,0.01495071966201067,0.004515922162681818,-0.009920541197061539
1751013440597406500,8.378406494140625,0.010061688721179962,0.0011315771844238043,-0.000609863898716867
1751013440607350300,8.388350341796874,0.009572732262313366,0.0018780612153932452,0.005109540652483702
1751013440617293300,8.398293212890625,0.011330684646964073,0.007167099043726921,0.007833155803382397
1751013440627236400,8.408236328125,0.012386095710098743,0.013697702437639236,0.01041295938193798
1751013440637179400,8.418179443359374,0.01293124444782734,0.019725767895579338,0.0038272286765277386
1751013440647122400,8.428122314453125,0.018085792660713196,0.02184537798166275,0.0007693872321397066
1751013440657066200,8.438066162109376,0.024564731866121292,0.0289355106651783,-0.007366836071014404
1751013440667009300,8.44800927734375,0.022174278274178505,0.0309832151979208,-0.014344850555062294
1751013440676952300,8.457952392578125,0.026386866346001625,0.026444923132658005,-0.025353027507662773
1751013440686895400,8.467895263671876,0.02479269728064537,0.01852361671626568,-0.02689925767481327
1751013440696839400,8.47783935546875,0.021761488169431686,0.009847571142017841,-0.027966387569904327
1751013440706782500,8.487782470703126,0.012691027484834194,0.013849768787622452,-0.021509019657969475
1751013440716725200,8.497725341796874,0.007965514436364174,0.020749486982822418,-0.011035340838134289
1751013440726668300,8.507668212890625,0.007277354132384062,0.024577515199780464,-0.002019208623096347
1751013440736612400,8.5176123046875,0.009640643373131752,0.025291774421930313,0.004829908721148968
1751013440746555400,8.527555419921875,0.021915951743721962,0.022849921137094498,0.004433364141732454
1751013440756498400,8.53749853515625,0.022000107914209366,0.02105734869837761,-0.0003057308786083013
1751013440766441500,8.54744140625,0.023303192108869553,0.017303090542554855,-0.009691243059933186
1751013440776384300,8.55738427734375,0.017229320481419563,0.02574744075536728,-0.016167784109711647
1751013440786328300,8.567328369140625,0.004138552118092775,0.037515949457883835,-0.02526540867984295
1751013440796271400,8.577271240234374,-0.004448544234037399,0.038178808987140656,-0.02395406924188137
1751013440806214400,8.58721435546875,-0.005618204362690449,0.030523819848895073,-0.030301179736852646
1751013440816157400,8.597157470703126,0.005188636481761932,0.013999971561133862,-0.03488927334547043
1751013440826101200,8.607101318359375,0.020355071872472763,0.006539125461131334,-0.03157150745391846
1751013440836044300,8.617044189453125,0.023083215579390526,0.009552759118378162,-0.025792980566620827
1751013440845987300,8.6269873046875,0.027165042236447334,0.006621417589485645,-0.022461099550127983
1751013440855930400,8.636930419921875,0.02063869871199131,0.012024438939988613,-0.013941115699708462
1751013440865874200,8.646874267578125,0.012199408374726772,0.020144149661064148,-0.007567904889583588
1751013440875817200,8.656817138671874,0.005858688149601221,0.022904783487319946,-0.007607852108776569
1751013440885760300,8.66676025390625,0.008171909488737583,0.016991499811410904,-0.0008034756756387651
1751013440895703300,8.676703369140625,0.011766910552978516,0.014881744049489498,-0.003620567498728633
1751013440905646300,8.686646240234374,0.015560051426291466,0.011867844499647617,-0.0009624664089642465
1751013440915590400,8.69659033203125,0.01955372840166092,0.0060176788829267025,-0.008290686644613743
1751013440925533200,8.706533203125,0.01931830495595932,0.002954244613647461,-0.012141351588070393
1751013440935476200,8.716476318359375,0.016054334118962288,0.002602973720058799,-0.02070554532110691
1751013440945419300,8.726419189453125,0.012265721336007118,0.008242216892540455,-0.023025956004858017
1751013440955363300,8.73636328125,0.008587895892560482,0.009690976701676846,-0.02774774096906185
1751013440965306400,8.746306396484375,0.01068087387830019,0.0075841499492526054,-0.0275043286383152
1751013440975249400,8.75624951171875,0.01119379885494709,0.008400408551096916,-0.023449931293725967
1751013440985192200,8.766192138671874,0.015091068111360073,0.010035323910415173,-0.015282816253602505
1751013440995136300,8.77613623046875,0.02130741998553276,0.019360648468136787,-0.006867227144539356
1751013441005079300,8.786079345703126,0.02496926486492157,0.022129803895950317,-0.00011265171633567661
1751013441015022300,8.796022216796874,0.02340812049806118,0.013106747530400753,-0.00014460964302998036
1751013441024965400,8.80596533203125,0.019749470055103302,0.0011494202772155404,-0.006166815757751465
1751013441034908400,8.815908447265626,0.00968698225915432,-0.008925584144890308,-0.013252688571810722
1751013441044852200,8.825852294921875,-0.0036043222062289715,-0.004291950259357691,-0.02659166418015957
1751013441054795300,8.835795166015625,-0.005909554194658995,0.012091017328202724,-0.0349007248878479
1751013441064738300,8.84573828125,-0.003584881080314517,0.03307938948273659,-0.029755765572190285
1751013441074681300,8.855681396484375,0.0036394759081304073,0.046841539442539215,-0.02497565746307373
1751013441084625200,8.865625244140626,0.005395297892391682,0.043848149478435516,-0.018511632457375526
1751013441094568200,8.875568115234374,0.01272991020232439,0.03593882545828819,-0.006444583646953106
1751013441104511200,8.88551123046875,0.019170764833688736,0.020498350262641907,0.004345213528722525
1751013441114454300,8.895454345703126,0.017305487766861916,0.008048072457313538,0.0040916805155575275
1751013441124398300,8.9053984375,0.012823387049138546,-0.004012051969766617,0.0012993563432246447
1751013441134341000,8.915341064453125,0.0023782027419656515,-0.007882158271968365,-0.0005589975044131279
1751013441144284200,8.9252841796875,-0.005263471510261297,-0.0079708406701684,-0.014071610756218433
1751013441154227200,8.935227294921875,-0.0064893243834376335,0.0029670277144759893,-0.027404725551605225
1751013441164170200,8.945170166015625,-0.009256881661713123,0.007935155183076859,-0.031751539558172226
1751013441174114600,8.955114501953124,-0.005736715160310268,0.01022787019610405,-0.03750423341989517
1751013441184057300,8.965057373046875,0.002683134749531746,0.01480584405362606,-0.03205620497465134
1751013441194000100,8.975000244140626,0.017111076042056084,0.02033350057899952,-0.019719375297427177
1751013441203943200,8.984943115234374,0.024227574467658997,0.023069633170962334,-0.009984723292291164
1751013441213887500,8.994887451171875,0.023306921124458313,0.01775902323424816,-0.004012318328022957
1751013441223830500,9.00483056640625,0.023072563111782074,0.019302858039736748,0.005589708685874939
1751013441233773300,9.014773193359375,0.015032744966447353,0.018250908702611923,0.0067812069319188595
1751013441243716400,9.02471630859375,0.008787899278104305,0.010815363377332687,0.00040852889651432633
1751013441253660400,9.034660400390624,0.005362540949136019,0.007266967557370663,-0.008946357294917107
1751013441263603500,9.044603515625,0.012926983647048473,0.011718175373971462,-0.014809838496148586
1751013441273546500,9.05454638671875,0.019059712067246437,0.010714962147176266,-0.02130528911948204
1751013441283489500,9.064489501953124,0.021883461624383926,0.011606322601437569,-0.02239212393760681
1751013441293432300,9.074432373046875,0.01895078830420971,0.024925855919718742,-0.012311527505517006
1751013441303376400,9.08437646484375,0.013458284549415112,0.038535941392183304,-0.0034083134960383177
1751013441313319400,9.0943193359375,0.004430701024830341,0.03917776420712471,0.0006636597099713981
1751013441323262500,9.104262451171875,-0.0019659455865621567,0.026856115087866783,0.0012839100090786815
1751013441333205500,9.11420556640625,-0.001139566651545465,0.006827812176197767,0.0019598202779889107
1751013441343149300,9.1241494140625,0.0013438310706987977,-0.005213404074311256,-0.00686269998550415
1751013441353092400,9.13409228515625,0.005518602207303047,-0.009824667125940323,-0.015574431978166103
1751013441363035400,9.144035400390624,0.005744970869272947,0.004711398389190435,-0.019466908648610115
1751013441372978400,9.153978515625,0.002126800362020731,0.03277818486094475,-0.01678404025733471
1751013441382922500,9.163922607421876,-0.00005326322207110934,0.04920589551329613,-0.01824371889233589
1751013441392865500,9.173865478515625,-0.0019318570848554373,0.045829806476831436,-0.018908709287643433
1751013441402808300,9.183808349609375,0.005166266113519669,0.022825952619314194,-0.020447751507163048
1751013441412751400,9.19375146484375,0.011208445765078068,0.0005744438385590911,-0.020838169381022453
1751013441422694400,9.2036943359375,0.015006380155682564,-0.010489924810826778,-0.01996704936027527
1751013441432638500,9.213638427734375,0.010459830984473228,-0.01480264775454998,-0.018070613965392113
1751013441442581500,9.22358154296875,0.005166798830032349,-0.00938977301120758,-0.022471753880381584
1751013441452524500,9.233524658203125,0.0012476909905672073,0.00609277980402112,-0.02647634781897068
1751013441462467300,9.24346728515625,0.0033859428949654102,0.021315941587090492,-0.030413566157221794
1751013441472411400,9.253411376953125,0.00732422573491931,0.0277384202927351,-0.024869929999113083
1751013441482354400,9.2633544921875,0.014901451766490936,0.023503994569182396,-0.018209896981716156
1751013441492297500,9.27329736328125,0.02454821951687336,0.0169126708060503,-0.004881041590124369
1751013441502240500,9.283240478515625,0.027412982657551765,-0.0011171960504725575,0.005915945861488581
1751013441512184300,9.293184326171875,0.0191316157579422,-0.01955106481909752,0.0029316076543182135
1751013441522127400,9.30312744140625,0.008468053303658962,-0.024921594187617302,0.0010836402652785182
1751013441532070400,9.3130703125,-0.005828327964991331,-0.01293550617992878,-0.0016341155860573053
1751013441542013400,9.323013427734375,-0.009611881338059902,-0.0024525050539523363,-0.01056369487196207
1751013441551956500,9.33295654296875,-0.0017965685110539198,0.00028282770654186606,-0.011414041742682457
1751013441561900300,9.342900390625,0.003923369105905294,0.011113370768725872,-0.01227344386279583
1751013441571843300,9.35284326171875,0.022457372397184372,0.02689233422279358,-0.004829110112041235
1751013441581786400,9.362786376953125,0.027218570932745934,0.04222654923796654,0.004424842074513435
1751013441591729400,9.3727294921875,0.02562813088297844,0.03813513368368149,0.008459530770778656
1751013441601673500,9.382673583984374,0.016715597361326218,0.03157523646950722,0.0007310376968234777
1751013441611616300,9.3926162109375,0.006432865746319294,0.04393656551837921,-0.004995557479560375
1751013441621559300,9.402559326171875,0.005135107319802046,0.0519726537168026,-0.016095079481601715
1751013441631502300,9.41250244140625,0.004370513837784529,0.030883081257343292,-0.028183167800307274
1751013441641446700,9.42244677734375,0.005853095557540655,0.018262626603245735,-0.024988440796732903
1751013441651389400,9.432389404296876,0.009134376421570778,0.010076336562633514,-0.015566975809633732
1751013441661332500,9.44233251953125,0.013346431776881218,0.014753113500773907,0.0017574200173839927
1751013441671275300,9.452275146484375,0.01992257498204708,0.023733025416731834,0.017470603808760643
1751013441681218300,9.46221826171875,0.02726277895271778,0.02418283373117447,0.024456607177853584
1751013441691162600,9.47216259765625,0.029811425134539604,0.020135628059506416,0.02112099714577198
1751013441701105400,9.48210546875,0.0239399541169405,0.012714729644358158,0.010948521085083485
1751013441711048400,9.49204833984375,0.010661698877811432,0.005403287708759308,0.000143544384627603
1751013441720991500,9.501991455078125,0.00155288923997432,0.0031467911321669817,-0.013968279585242271
1751013441730935600,9.511935546875,-0.00010945591930067167,0.0036248285323381424,-0.025249430909752846
1751013441740878600,9.521878662109375,0.0034815503749996424,0.0062520368956029415,-0.03110705316066742
1751013441750821600,9.531821533203125,0.010937335900962353,0.013624199666082859,-0.036620594561100006
1751013441760764400,9.541764404296876,0.015962189063429832,0.020551614463329315,-0.03617211803793907
1751013441770708500,9.55170849609375,0.019835757091641426,0.024764468893408775,-0.03207670897245407
1751013441780651500,9.561651611328125,0.026806047186255455,0.023036610335111618,-0.025861958041787148
1751013441790594600,9.571594482421874,0.022528212517499924,0.0252853836864233,-0.028053471818566322
1751013441800537600,9.58153759765625,0.02617647685110569,0.010324010625481606,-0.03520965203642845
1751013441810480400,9.59148046875,0.02857891470193863,0.0009800433181226254,-0.03578675910830498
1751013441820424400,9.601424560546874,0.027245469391345978,0.01594381220638752,-0.03546451777219772
1751013441830367500,9.611367431640625,0.02473144605755806,0.030729150399565697,-0.038371890783309937
1751013441840310500,9.621310546875,0.01775582693517208,0.05745849758386612,-0.03596119582653046
1751013441850253600,9.631253662109375,0.01986371912062168,0.07177378982305527,-0.02484356425702572
1751013441860197600,9.64119775390625,0.02515355683863163,0.06377817690372467,-0.014799985103309155
1751013441870140700,9.651140625,0.036306608468294144,0.04149923846125603,0.0007012102869339287
1751013441880083500,9.66108349609375,0.04496001824736595,0.019240006804466248,0.011055047623813152
1751013441890026500,9.671026611328125,0.04493791237473488,0.0028796761762350798,0.01534912921488285
1751013441899970600,9.680970458984374,0.03587491065263748,0.0020812603179365396,0.010994328185915947
1751013441909913600,9.69091357421875,0.01846795715391636,0.0068312743678689,0.0017568873008713126
1751013441919856600,9.700856689453126,0.006936469115316868,0.009820406325161457,-0.011998073197901249
1751013441929799700,9.710799560546874,0.010992996394634247,0.01618136651813984,-0.029708893969655037
1751013441939742500,9.720742431640625,0.018018681555986404,0.02016332559287548,-0.03724244236946106
1751013441949686500,9.7306865234375,0.024599885568022728,0.02154284343123436,-0.033913757652044296
1751013441959629600,9.740629638671875,0.023332485929131508,0.01949673518538475,-0.024752218276262283
1751013441969572600,9.750572509765625,0.021147629246115685,0.027835359796881676,-0.01549586933106184
1751013441979515600,9.760515625,0.011293134652078152,0.03723738342523575,-0.009899768978357315
1751013441989459500,9.77045947265625,0.005073055624961853,0.03086896613240242,-0.01245240867137909
1751013441999402500,9.780402587890626,-0.0059774648398160934,0.025675535202026367,-0.01446788851171732
1751013442009345500,9.790345458984374,-0.003763312939554453,0.02883084863424301,-0.014327540062367916
1751013442019288600,9.80028857421875,0.0059907808899879456,0.026521354913711548,-0.011590076610445976
1751013442029232400,9.810232421875,0.018918031826615334,0.017498299479484558,-0.012954946607351303
1751013442039175400,9.820175537109375,0.02768302708864212,0.010496316477656364,-0.011562113650143147
1751013442049118500,9.830118408203125,0.03121890500187874,0.003591539105400443,-0.0075820195488631725
1751013442059061500,9.8400615234375,0.030548054724931717,-0.007220895029604435,-0.007017962168902159
1751013442069004500,9.850004638671875,0.026757044717669487,-0.014699317514896393,-0.006962302140891552
1751013442078948600,9.859948486328125,0.027719778940081596,-0.01703464426100254,-0.007702927105128765
1751013442088891400,9.869891357421874,0.02917839214205742,-0.01924773119390011,-0.009103749878704548
1751013442098834400,9.87983447265625,0.031691085547208786,-0.017778197303414345,-0.014740330167114735
1751013442108777500,9.889777587890626,0.04075169190764427,-0.01913987286388874,-0.026940004900097847
1751013442118721500,9.899721435546875,0.03720302879810333,-0.022972160950303078,-0.03987870737910271
1751013442128664600,9.90966455078125,0.034260768443346024,-0.011261709034442902,-0.044017259031534195
1751013442138607600,9.919607666015626,0.03299177065491676,0.0023614249657839537,-0.04681437835097313
1751013442148550400,9.92955029296875,0.028242023661732674,0.013540576212108135,-0.035897012799978256
1751013442158493400,9.939493408203125,0.025584455579519272,0.021445371210575104,-0.02538738213479519
1751013442168437500,9.9494375,0.022364694625139236,0.016509201377630234,-0.013343501836061478
1751013442178380500,9.959380615234375,0.020905548706650734,0.011771438643336296,-0.006154298782348633
1751013442188323600,9.969323486328125,0.02401212602853775,0.003713778220117092,0.0010311759542673826
1751013442198266600,9.9792666015625,0.018034661188721657,-0.0032378712203353643,0.001811482128687203
1751013442208210400,9.98921044921875,0.0163576677441597,-0.013109143823385239,0.0035542547702789307
1751013442218153500,9.999153564453126,0.009846772067248821,0.001463939668610692,0.0004732437082566321
1751013442228096500,10.009096435546875,0.005742041394114494,0.009356483817100525,-0.007003048434853554
1751013442238039600,10.01903955078125,-0.0010721886064857244,0.006652842741459608,-0.019027220085263252
1751013442247983400,10.0289833984375,-0.004822185728698969,-0.005375057924538851,-0.024111993610858917
1751013442257926400,10.038926513671875,-0.007950334809720516,-0.00926487147808075,-0.028730181977152824
1751013442267869400,10.048869384765625,0.0012681973166763783,-0.0071157002821564674,-0.028375448659062386
1751013442277812500,10.0588125,0.015080948360264301,-0.001981924520805478,-0.022661102935671806
1751013442287755500,10.068755615234375,0.02840021625161171,0.004290086217224598,-0.01883041299879551
1751013442297699300,10.07869921875,0.03337899595499039,0.013963752426207066,-0.01477548386901617
1751013442307642400,10.088642333984374,0.031205588951706886,0.018091918900609016,-0.008822520263493061
1751013442317585400,10.09858544921875,0.023686952888965607,0.015174425207078457,0.005398493725806475
1751013442327528400,10.108528564453126,0.01495231781154871,-0.004852812271565199,0.00446878420189023
1751013442337472500,10.118472412109375,0.003626959165558219,-0.0255194753408432,0.0006551376427523792
1751013442347415600,10.12841552734375,0.00037976677413098514,-0.03513241931796074,-0.005941246170550585
1751013442357358300,10.1383583984375,0.004808870144188404,-0.020726317539811134,-0.0038373488932847977
1751013442367301000,10.148301025390625,0.011335212737321854,0.0006737797521054745,0.002305764937773347
1751013442377245200,10.1582451171875,0.018032530322670937,0.027717914432287216,0.006416353862732649
1751013442387188200,10.168188232421874,0.025791117921471596,0.04036207124590874,-0.001540904981084168
1751013442397131300,10.17813134765625,0.028124311938881874,0.05115612968802452,-0.0004106594424229115
1751013442407074300,10.18807421875,0.02738049067556858,0.04037538543343544,-0.003610979998484254
1751013442417017300,10.198017333984374,0.01985066942870617,0.028654813766479492,0.0037055222783237696
1751013442426961200,10.207961181640625,0.014091850258409977,0.006183859892189503,0.0067998492158949375
1751013442436904200,10.217904296875,0.010097108781337738,-0.006542587652802467,0.009487245231866837
1751013442446847200,10.22784716796875,0.011612447910010815,-0.011767443269491196,0.013526461087167263
1751013442456790300,10.237790283203125,0.016218384727835655,-0.0073569826781749725,0.010868093930184841
1751013442466734000,10.247734130859374,0.019577961415052414,0.006509830709546804,0.008223840966820717
1751013442476677000,10.257677001953125,0.02165576070547104,0.017016001045703888,0.008614527061581612
1751013442486620200,10.2676201171875,0.013847638852894306,0.03574787825345993,0.007003314793109894
1751013442496563200,10.277563232421874,0.000606668065302074,0.04785088077187538,0.009245696477591991
1751013442506507300,10.28750732421875,-0.004821386653929949,0.035534292459487915,0.013130449689924717
1751013442516450000,10.297449951171876,-0.00586534570902586,0.016083095222711563,0.012661466374993324
1751013442526393000,10.30739306640625,-0.0010002832859754562,0.0041036647744476795,0.01417520735412836
1751013442536336100,10.317336181640625,0.0008663262706249952,-0.0012562130577862263,0.01452780980616808
1751013442546279200,10.327279052734376,0.0006966829532757401,0.0068208882585167885,0.013815680518746376
1751013442556223200,10.33722314453125,-0.002008289797231555,0.019753731787204742,0.012800483964383602
1751013442566166300,10.347166259765626,-0.009139702655375004,0.01864798553287983,0.00800546258687973
1751013442576109000,10.357109130859374,-0.01366361416876316,0.01016794890165329,-0.002856240142136812
1751013442586052000,10.367052001953125,-0.013673201203346252,-0.006914897821843624,-0.008509865030646324
1751013442595996200,10.37699609375,-0.007503722794353962,-0.02387816831469536,-0.018760904669761658
1751013442605939200,10.386939208984375,-0.004206729121506214,-0.033299632370471954,-0.02183579094707966
1751013442615882200,10.39688232421875,-0.0041284323669970036,-0.031379494816064835,-0.01453047338873148
1751013442625825300,10.4068251953125,-0.006368417292833328,-0.023556990548968315,-0.00592606607824564
1751013442635769000,10.41676904296875,-0.004283694550395012,-0.0056802560575306416,0.002689792774617672
1751013442645712100,10.426712158203125,0.0014588796766474843,0.0019470370607450604,0.008890430442988873
1751013442655655200,10.4366552734375,0.011068630032241344,0.011635350994765759,0.005884254351258278
1751013442665598200,10.44659814453125,0.021259216591715813,0.01401515118777752,0.0022833943367004395
1751013442675541200,10.456541259765626,0.02562972903251648,0.01239328645169735,-0.01010962575674057
1751013442685485000,10.466485107421875,0.020079435780644417,0.011608985252678394,-0.028448153287172318
1751013442695428000,10.476427978515625,0.010507768020033836,0.002808836055919528,-0.038366563618183136
1751013442705371100,10.48637109375,-0.004880242515355349,-0.0054243262857198715,-0.040283240377902985
1751013442715314200,10.496314208984375,-0.016228770837187767,-0.007729558739811182,-0.04346838220953941
1751013442725258000,10.506258056640625,-0.01884479448199272,-0.007830758579075336,-0.03677266091108322
1751013442735201000,10.516200927734374,-0.01380822341889143,-0.004314321093261242,-0.024391625076532364
1751013442745144000,10.52614404296875,-0.0037057886365801096,0.010305101983249187,-0.010235327295958996
1751013442755087000,10.536087158203125,0.009372728876769543,0.0465664379298687,0.0006639260682277381
1751013442765031400,10.546031494140625,0.008473645895719528,0.099140964448452,0.002153698354959488
1751013442774974200,10.55597412109375,-0.007213704288005829,0.1506505012512207,-0.015237276442348957
1751013442784917000,10.5659169921875,-0.0432547964155674,0.19661664962768555,-0.03319177404046059
1751013442794860000,10.575860107421875,-0.09477417916059494,0.24132606387138367,-0.0692717507481575
1751013442804803000,10.585802978515625,-0.13077957928180695,0.28242558240890503,-0.12145932018756866
1751013442814747400,10.595747314453124,-0.10342412441968918,0.2307482659816742,-0.1744181364774704
1751013442824690400,10.6056904296875,-0.0337371900677681,0.2284635305404663,-0.16791576147079468
1751013442834633200,10.61563330078125,0.011511780321598053,0.15508891642093658,-0.0932423323392868
1751013442844576000,10.625575927734374,0.01991485245525837,-0.038064293563365936,-0.056770604103803635
1751013442854520300,10.635520263671875,0.020614996552467346,-0.12093441188335419,0.0067902617156505585
1751013442864463400,10.64546337890625,0.016810938715934753,-0.12279009819030762,0.0770827978849411
1751013442874406400,10.655406494140625,-0.00023808660625945777,-0.07470619678497314,0.11409035325050354
1751013442884349200,10.66534912109375,-0.004339620936661959,-0.0076280920766294,0.110806405544281
1751013442894293200,10.675293212890624,0.004852812271565199,0.04313841462135315,0.06826294213533401
1751013442904236300,10.685236328125,0.00606455048546195,0.08165545016527176,0.012982644140720367
