time,seconds_elapsed,z,y,x
1751013665071535600,0.12253564453125,0.08205945044755936,0.03754151612520218,-0.054369766265153885
1751013665081479400,0.1324794921875,0.07791104167699814,0.041977278888225555,-0.05476071685552597
1751013665091422500,0.14242236328125,0.07082144170999527,0.05153003707528114,-0.04710439592599869
1751013665101365500,0.152365478515625,0.0668322965502739,0.05613277852535248,-0.024142354726791382
1751013665111309600,0.1623095703125,0.06730633974075317,0.04210777208209038,0.005754292011260986
1751013665121252600,0.172252685546875,0.0691114291548729,0.02400466799736023,0.026206037029623985
1751013665131196700,0.18219677734375,0.06511428952217102,0.014929148368537426,0.040895503014326096
1751013665141139700,0.1921396484375,0.05908728763461113,-0.0025784724857658148,0.04055355116724968
1751013665151083800,0.202083740234375,0.06114697828888893,-0.019230419769883156,0.032952625304460526
1751013665161026800,0.21202685546875,0.06738809496164322,-0.024811606854200363,0.03176352381706238
1751013665170969600,0.221969482421875,0.0813787430524826,-0.029156021773815155,0.031492412090301514
1751013665180913700,0.23191357421875,0.08880816400051117,-0.01902429200708866,0.03259922191500664
1751013665190856700,0.241856689453125,0.09781710803508759,-0.0014775217277929187,0.02961594983935356
1751013665200800800,0.25180078125,0.09835319966077805,0.03321973979473114,0.030979488044977188
1751013665210743600,0.26174365234375,0.0951576754450798,0.05139021947979927,0.02382117696106434
1751013665220686600,0.2716865234375,0.0889652892947197,0.06258588284254074,0.014124341309070587
1751013665230630700,0.281630615234375,0.08286372572183609,0.058153584599494934,0.006250172853469849
1751013665240573700,0.29157373046875,0.07389366626739502,0.05107490345835686,-0.0017800568602979183
1751013665250517500,0.301517578125,0.06334994733333588,0.03921717777848244,-0.010838799178600311
1751013665260460500,0.31146044921875,0.05073587968945503,0.027771975845098495,-0.01895424909889698
1751013665270404600,0.321404541015625,0.04392271488904953,0.012562929652631283,-0.019181417301297188
1751013665280347600,0.33134765625,0.040836647152900696,0.00675217853859067,-0.011290471069514751
1751013665290290700,0.341290771484375,0.04000840336084366,0.011795938946306705,0.003947337158024311
1751013665300234500,0.351234375,0.04562394320964813,0.013713947497308254,0.02347389981150627
1751013665310177500,0.361177490234375,0.04670199006795883,0.01173601858317852,0.03147030621767044
1751013665320121600,0.37112158203125,0.04451660066843033,0.005423261318355799,0.025527464225888252
1751013665330064600,0.381064697265625,0.04260898008942604,-0.013116334564983845,0.011661449447274208
1751013665340008700,0.3910087890625,0.043287020176649094,-0.02762230671942234,-0.005724198184907436
1751013665349951700,0.40095166015625,0.037511423230171204,-0.03813353553414345,-0.02087358944118023
1751013665359894800,0.410894775390625,0.03470178693532944,-0.04057832062244415,-0.032153673470020294
1751013665369838600,0.420838623046875,0.02707662433385849,-0.036134034395217896,-0.03421735763549805
1751013665379781600,0.43078173828125,0.016500147059559822,-0.020535368472337723,-0.02852325327694416
1751013665389725700,0.4407255859375,0.007625961676239967,-0.014091317541897297,-0.02353222295641899
1751013665399668700,0.450668701171875,-0.001582982949912548,-0.02333781309425831,-0.01673557050526142
1751013665409611800,0.46061181640625,-0.004299673717468977,-0.03156937658786774,-0.009672068059444427
1751013665419555600,0.4705556640625,-0.004632302559912205,-0.03057202324271202,0.005781722720712423
1751013665429498600,0.48049853515625,0.004801413044333458,-0.03947417065501213,0.015411180444061756
1751013665439442700,0.490442626953125,0.011391671374440193,-0.05663398280739784,0.014801583252847195
1751013665449385700,0.5003857421875,0.020138025283813477,-0.06620565056800842,0.0057340520434081554
1751013665459329500,0.51032958984375,0.03057575225830078,-0.05754585191607475,0.0013736584223806858
1751013665469272600,0.5202724609375,0.03831915929913521,-0.04759761318564415,-0.006042179651558399
1751013665479215600,0.530215576171875,0.04394162446260452,-0.04336904361844063,-0.022347383201122284
1751013665489159700,0.54015966796875,0.048181112855672836,-0.03723205626010895,-0.04176235944032669
1751013665499102700,0.550102783203125,0.05341795086860657,-0.029198365285992622,-0.06742990761995316
1751013665509046500,0.560046630859375,0.046177614480257034,-0.028736572712659836,-0.08677138388156891
1751013665518989600,0.569989501953125,0.03975300490856171,-0.02839329093694687,-0.09563784301280975
1751013665528932600,0.5799326171875,0.033245038241147995,-0.01624048873782158,-0.08449064940214157
1751013665538876400,0.58987646484375,0.03050251491367817,0.00395665830001235,-0.05396736040711403
1751013665548819500,0.5998193359375,0.027405258268117905,0.013593306764960289,-0.020420586690306664
1751013665558763800,0.609763671875,0.027039606124162674,0.01531983446329832,0.002769421087577939
1751013665568705800,0.619705810546875,0.027307255193591118,0.0183451846241951,0.012975719757378101
1751013665578650000,0.629650146484375,0.02564118057489395,0.027282221242785454,0.011921906843781471
1751013665588593000,0.639593017578125,0.023995613679289818,0.033127326518297195,0.006502107717096806
1751013665598535700,0.64953564453125,0.02274845540523529,0.02245231159031391,-0.004855741746723652
1751013665608480000,0.65947998046875,0.014932876452803612,0.02503424696624279,-0.01565486006438732
1751013665618423000,0.669423095703125,0.006909038871526718,0.042265698313713074,-0.02106187492609024
1751013665628366800,0.679366943359375,0.003320961957797408,0.04633767157793045,-0.019657058641314507
1751013665638310000,0.689309814453125,0.002222141483798623,0.043593015521764755,-0.0145901283249259
1751013665648253000,0.6992529296875,-0.0011147991754114628,0.04615044966340065,-0.0019542276859283447
1751013665658197000,0.709197021484375,-0.0032722260802984238,0.04658614471554756,0.001449025934562087
1751013665668140000,0.71914013671875,-0.00392709719017148,0.038112230598926544,0.007172158919274807
1751013665678083800,0.729083740234375,-0.007370298262685537,0.039933301508426666,0.015590411610901356
1751013665688027000,0.73902685546875,-0.006225937977433205,0.03756522014737129,0.021772140637040138
1751013665697971000,0.748970947265625,-0.009372995235025883,0.01954706944525242,0.018438395112752914
1751013665707914000,0.7589140625,-0.012742693535983562,0.0014966964954510331,0.012971458956599236
1751013665717856800,0.768856689453125,-0.009051818400621414,-0.0013206616276875138,0.01407773606479168
1751013665727800800,0.77880078125,-0.004829376470297575,0.003079679561778903,0.012533901259303093
1751013665737744000,0.788743896484375,-0.011511247605085373,0.014576013199985027,0.012779977172613144
1751013665747688000,0.79868798828125,-0.014129933901131153,0.02057771384716034,0.008383098058402538
1751013665757630700,0.808630615234375,-0.009580988436937332,0.028544027358293533,0.009591374546289444
1751013665767573800,0.81857373046875,-0.0034493261482566595,0.039382025599479675,0.018553709611296654
1751013665777517800,0.828517822265625,0.0032061797101050615,0.06016267091035843,0.030239129438996315
1751013665787460900,0.8384609375,0.0010817759903147817,0.06559605151414871,0.04044223204255104
1751013665797405000,0.848405029296875,0.003766775131225586,0.06149638444185257,0.04803197458386421
1751013665807347700,0.85834765625,0.0032474587205797434,0.06721019744873047,0.045284125953912735
1751013665817292000,0.8682919921875,0.00030866035376675427,0.05110419541597366,0.04080149158835411
1751013665827235000,0.878235107421875,-0.005960420705378056,0.027095533907413483,0.026750387623906136
1751013665837178000,0.88817822265625,-0.013686783611774445,0.006047772243618965,0.013440974056720734
1751013665847122000,0.898121826171875,-0.02172047458589077,-0.009137305431067944,0.001412806916050613
1751013665857065000,0.90806494140625,-0.020671190693974495,-0.01044411864131689,-0.0004713795206043869
1751013665867009000,0.918009033203125,-0.013310212641954422,0.0035113778430968523,0.001796834752894938
1751013665876951800,0.927951904296875,-0.006533000618219376,0.029643645510077477,0.01053306832909584
1751013665886894800,0.937894775390625,0.0011944277212023735,0.049373675137758255,0.017898572608828545
1751013665896839000,0.9478388671875,0.00654525076970458,0.06365247815847397,0.020841898396611214
1751013665906782000,0.957781982421875,0.004718055948615074,0.0697559118270874,0.02352103777229786
1751013665916725800,0.967725830078125,0.006449110805988312,0.06084790453314781,0.020854948088526726
1751013665926668800,0.977668701171875,0.005510612856596708,0.03879932686686516,0.015452992171049118
1751013665936612900,0.98761279296875,0.00561048137024045,0.017400560900568962,0.013218600302934647
1751013665946556000,0.997555908203125,0.0018154769204556942,0.0028594359755516052,0.014012754894793034
1751013665956499000,1.0074990234375,0.0054424358531832695,-0.0002146507758880034,0.015006912872195244
1751013665966442800,1.01744287109375,0.011238805949687958,0.002511627273634076,0.020115388557314873
1751013665976385800,1.0273857421875,0.014511298388242722,0.003971838392317295,0.021798772737383842
1751013665986329900,1.037329833984375,0.013571469113230705,0.01643037237226963,0.02714480273425579
1751013665996273000,1.04727294921875,0.012709137052297592,0.023247798904776573,0.03333079069852829
1751013666006217000,1.057217041015625,0.008884571492671967,0.03550685942173004,0.03399099037051201
1751013666016159700,1.06715966796875,0.012358931824564934,0.036910347640514374,0.035469576716423035
1751013666026102800,1.077102783203125,0.013893178664147854,0.03731701150536537,0.03761262446641922
1751013666036047000,1.087047119140625,0.01708178222179413,0.03943449258804321,0.03991199657320976
1751013666045990000,1.096989990234375,0.020604344084858894,0.03738705441355705,0.034517496824264526
1751013666055934000,1.106933837890625,0.02298521064221859,0.029622873291373253,0.029343774542212486
1751013666065877000,1.116876953125,0.020803814753890038,0.02646542899310589,0.0210642721503973
1751013666075820000,1.126820068359375,0.022938871756196022,0.027815386652946472,0.017438378185033798
1751013666085763800,1.136763916015625,0.02064056321978569,0.02526407688856125,0.00660384027287364
1751013666095707000,1.146706787109375,0.018137991428375244,0.02768861874938011,0.0022740731947124004
1751013666105651000,1.15665087890625,0.01619894430041313,0.03901078179478645,0.005234975833445787
1751013666115594000,1.166593994140625,0.014004498720169067,0.05306880921125412,0.0010072075529024005
1751013666125537800,1.176537841796875,0.012497682124376297,0.06645438820123672,-0.003971305675804615
1751013666135480800,1.186480712890625,0.012074239552021027,0.08170178532600403,-0.012798353098332882
1751013666145424000,1.196423828125,0.008290420286357403,0.08464618027210236,-0.024991635233163834
1751013666155368000,1.206367919921875,0.001228782464750111,0.0712781772017479,-0.041066210716962814
1751013666165311000,1.21631103515625,-0.0032059133518487215,0.059597283601760864,-0.05305682495236397
1751013666175254800,1.2262548828125,-0.004609665367752314,0.036604881286621094,-0.06133180111646652
1751013666185197800,1.23619775390625,-0.010135192424058914,0.013223660178482533,-0.07362175732851028
1751013666195140900,1.246140869140625,-0.01558188907802105,-0.011997540481388569,-0.07382788509130478
1751013666205085000,1.2560849609375,-0.019102854654192924,-0.025612153112888336,-0.06318509578704834
1751013666215027700,1.26602783203125,-0.020809141919016838,-0.020719127729535103,-0.05345124006271362
1751013666224972000,1.275971923828125,-0.018796324729919434,-0.0060919807292521,-0.036550287157297134
1751013666234914800,1.285914794921875,-0.011811385862529278,0.012918728403747082,-0.01912842132151127
1751013666244859000,1.29585888671875,-0.0055090151727199554,0.025860359892249107,-0.005342034623026848
1751013666254802000,1.305802001953125,-0.00418409239500761,0.021433919668197632,0.005108475685119629
1751013666264745000,1.315744873046875,0.008015315979719162,0.018143849447369576,0.01654328964650631
1751013666274689000,1.32568896484375,0.013422598131000996,0.014152304269373417,0.017741447314620018
1751013666284632000,1.335632080078125,0.02088184654712677,0.010366620495915413,0.017305221408605576
1751013666294575900,1.345575927734375,0.024384701624512672,0.00926194153726101,0.019036274403333664
1751013666304519000,1.355518798828125,0.028609273955225945,0.008037952706217766,0.012290221638977528
1751013666314462000,1.3654619140625,0.025310682132840157,0.00024234765442088246,0.007796137593686581
1751013666324406000,1.375406005859375,0.02366032265126705,-0.00036724991514347494,-0.00009906959166983142
1751013666334348800,1.385348876953125,0.024336498230695724,0.00336090917699039,-0.007503190077841282
1751013666344292900,1.39529296875,0.023322632536292076,-0.006077866069972515,-0.011901400052011013
1751013666354236000,1.40523583984375,0.02261955849826336,-0.01459039468318224,-0.010754376649856567
1751013666364180000,1.415179931640625,0.026201777160167694,-0.017071660608053207,-0.005477589555084705
1751013666374122800,1.425122802734375,0.024685371667146683,-0.011809254996478558,-0.0003406183095648885
1751013666384065800,1.435065673828125,0.02166161872446537,-0.010921623557806015,0.0030799456872045994
1751013666394009900,1.445009765625,0.018616294488310814,-0.0023909860756248236,0.0011590076610445976
1751013666403953000,1.454952880859375,0.018982745707035065,0.000788561999797821,-0.006608634255826473
1751013666413896700,1.464896728515625,0.019304456189274788,-0.0062797339633107185,-0.009645170532166958
1751013666423839700,1.47483984375,0.02154017984867096,-0.010753578506410122,-0.014548050239682198
1751013666433784000,1.4847841796875,0.019518839195370674,-0.017175791785120964,-0.008817194029688835
1751013666443726800,1.494726806640625,0.01788019761443138,-0.01684742234647274,0.002377403900027275
1751013666453670000,1.504669921875,0.01679522544145584,-0.014788533560931683,0.016348613426089287
1751013666463614000,1.514614013671875,0.016468189656734467,-0.009875001385807991,0.02900528535246849
1751013666473557000,1.524556884765625,0.015932893380522728,-0.004216050263494253,0.028536835685372353
1751013666483501000,1.5345009765625,0.019094333052635193,0.0070645674131810665,0.014870558865368366
1751013666493443800,1.54444384765625,0.018378473818302155,0.024937041103839874,-0.003507383167743683
1751013666503387000,1.554386962890625,0.01925092563033104,0.05657725781202316,-0.02113005332648754
1751013666513331000,1.5643310546875,0.02442012168467045,0.07948044687509537,-0.025293638929724693
1751013666523274000,1.57427392578125,0.022602779790759087,0.08502461016178131,-0.0214749313890934
1751013666533217800,1.5842177734375,0.020910074934363365,0.06970930844545364,-0.018375013023614883
1751013666543160800,1.594160888671875,0.013442039489746094,0.033977407962083817,-0.005745237227529287
1751013666553105000,1.60410498046875,0.010295780375599861,0.0023497070651501417,0.005890912376344204
1751013666563048000,1.6140478515625,0.004505536053329706,-0.015108644962310791,0.019715648144483566
1751013666572991000,1.623990966796875,0.01014078501611948,-0.016619456931948662,0.032047681510448456
1751013666582934800,1.633934814453125,0.011055047623813152,-0.0049313753843307495,0.050884753465652466
1751013666592877800,1.6438779296875,0.019328158348798752,0.00845393817871809,0.0580286830663681
1751013666602822000,1.65382177734375,0.02550722472369671,0.01938301883637905,0.06742750853300095
1751013666612765000,1.663764892578125,0.027463581413030624,0.02407843805849552,0.0644540935754776
1751013666622708000,1.6737080078125,0.027779433876276016,0.02786998078227043,0.058342669159173965
1751013666632651800,1.68365185546875,0.033300697803497314,0.03304503485560417,0.04923918470740318
1751013666642594800,1.6935947265625,0.036728452891111374,0.029257487505674362,0.043354663997888565
1751013666652539000,1.703538818359375,0.028187695890665054,0.012753346003592014,0.033005353063344955
1751013666662481700,1.713481689453125,0.016650881618261337,-0.005135905928909779,0.024402013048529625
1751013666672426000,1.723426025390625,0.012224974110722542,-0.0239426176995039,0.013829262927174568
1751013666682369000,1.733369140625,0.0054847802966833115,-0.022126341238617897,0.006097041070461273
1751013666692312000,1.74331201171875,0.0017664746847003698,-0.013994378969073296,0.004809935111552477
1751013666702255900,1.753255859375,-0.0002620550512801856,0.005234709475189447,-0.0012652678415179253
1751013666712199000,1.763198974609375,-0.00037444045301526785,0.032579246908426285,-0.0021888520568609238
1751013666722143000,1.77314306640625,0.002569417702034116,0.05386536195874214,-0.007063768338412046
1751013666732086000,1.7830859375,0.006995591334998608,0.05957038700580597,-0.015503325499594212
1751013666742029000,1.793029052734375,0.010754110291600227,0.06096694618463516,-0.025708559900522232
1751013666751972900,1.802972900390625,0.015294267795979977,0.05305283144116402,-0.021976139396429062
1751013666761916000,1.812916015625,0.018493257462978363,0.03259176388382912,-0.012689430266618729
1751013666771860000,1.82285986328125,0.01757925935089588,0.007680290378630161,0.003363838652148843
1751013666781803000,1.832802978515625,0.018158763647079468,-0.020232833921909332,0.015489211305975914
1751013666791746800,1.842746826171875,0.02250051498413086,-0.033778201788663864,0.02798023633658886
1751013666801689900,1.85268994140625,0.02725532278418541,-0.03251400217413902,0.03983210027217865
1751013666811633000,1.8626328125,0.03206073120236397,-0.01512915175408125,0.04586602374911308
1751013666821577000,1.872576904296875,0.034208036959171295,0.010433732531964779,0.043239083141088486
1751013666831519700,1.882519775390625,0.03307459503412247,0.02682868391275406,0.03245195001363754
1751013666841463800,1.8924638671875,0.029032716527581215,0.024086693301796913,0.012398079968988895
1751013666851406800,1.90240673828125,0.021376661956310272,0.016622919589281082,-0.007951400242745876
1751013666861350000,1.912349853515625,0.016169914975762367,0.007812383119016886,-0.020001403987407684
1751013666871293700,1.922293701171875,0.012287825345993042,0.00012916330888401717,-0.027596207335591316
1751013666881236700,1.93223681640625,0.010751447640359402,0.003135872073471546,-0.01642344892024994
1751013666891181000,1.94218115234375,0.01179114542901516,0.013011139817535877,0.0035300198942422867
1751013666901124000,1.9521240234375,0.01335841603577137,0.023319970816373825,0.024712270125746727
1751013666911068000,1.96206787109375,0.01786501705646515,0.025042235851287842,0.03755030408501625
1751013666921011000,1.972010986328125,0.024834776297211647,0.017655692994594574,0.04447053000330925
1751013666930954000,1.9819541015625,0.03392307832837105,0.016452210023999214,0.041189249604940414
1751013666940898000,1.99189794921875,0.04182467982172966,0.03176618367433548,0.027292340993881226
1751013666950840800,2.0018408203125,0.05005091801285744,0.05662093311548233,0.009198824875056744
1751013666960785000,2.011784912109375,0.05940926447510719,0.08755861222743988,-0.021805163472890854
1751013666970728000,2.02172802734375,0.06913379579782486,0.12620560824871063,-0.0610274001955986
1751013666980671000,2.0316708984375,0.07795844972133636,0.16917917132377625,-0.09545541554689407
1751013666990614800,2.04161474609375,0.09070007503032684,0.2051454335451126,-0.11940176039934158
1751013667000557800,2.051557861328125,0.11016938090324402,0.2171778529882431,-0.13244645297527313
1751013667010502000,2.061501953125,0.12405776232481003,0.18596826493740082,-0.13169518113136292
1751013667020445000,2.07144482421875,0.1494792401790619,0.14602752029895782,-0.10673736780881882
1751013667030388700,2.081388671875,0.1885235756635666,0.10157669335603714,-0.0704888105392456
1751013667040331800,2.091331787109375,0.2210942953824997,0.06930876523256302,-0.03423812985420227
1751013667050274800,2.10127490234375,0.2415873259305954,0.02780233696103096,-0.006857106927782297
1751013667060219000,2.111218994140625,0.2530575692653656,-0.06077706441283226,0.03692685812711716
1751013667070162000,2.121161865234375,0.23268704116344452,-0.12779924273490906,0.09850446879863739
1751013667080105700,2.131105712890625,0.12995214760303497,-0.12252804636955261,0.1393728107213974
1751013667090048800,2.141048828125,-0.0015092133544385433,-0.11274518817663193,0.15291151404380798
1751013667099993000,2.1509931640625,-0.13044776022434235,-0.08361819386482239,0.12015943229198456
1751013667109935900,2.160935791015625,-0.22915995121002197,-0.06748396903276443,0.05801776424050331
1751013667119879000,2.17087890625,-0.27713119983673096,-0.054603856056928635,-0.02430720441043377
1751013667129823000,2.180822998046875,-0.3082185387611389,-0.039089079946279526,-0.0945182517170906
1751013667139766000,2.19076611328125,-0.31397444009780884,-0.03406769037246704,-0.15671850740909576
1751013667149709800,2.200709716796875,-0.30245521664619446,-0.017362479120492935,-0.19777512550354004
1751013667159652900,2.21065283203125,-0.27185919880867004,0.029879601672291756,-0.22118964791297913
1751013667169596000,2.220595947265625,-0.23431290686130524,0.0640207976102829,-0.22309567034244537
1751013667179540000,2.2305400390625,-0.1979793906211853,0.0684397742152214,-0.20684559643268585
1751013667189483000,2.24048291015625,-0.16349145770072937,0.04244386404752731,-0.18182305991649628
1751013667199426800,2.2504267578125,-0.13320572674274445,-0.0003757720405701548,-0.1454607993364334
1751013667209369900,2.260369873046875,-0.11178645491600037,-0.04718029499053955,-0.10495464503765106
1751013667219313000,2.27031298828125,-0.09769513458013535,-0.07153996080160141,-0.06055255979299545
1751013667229257000,2.280257080078125,-0.08908460289239883,-0.07611687481403351,-0.023502662777900696
1751013667239200000,2.290199951171875,-0.09062710404396057,-0.05108528956770897,0.00637960247695446
1751013667249143800,2.300143798828125,-0.08247623592615128,-0.008623582310974598,0.020115122199058533
1751013667259086800,2.3100869140625,-0.06584186106920242,0.03825177997350693,0.013351758010685444
1751013667269031000,2.320031005859375,-0.046295858919620514,0.07128430157899857,-0.005755091086030006
1751013667278973700,2.3299736328125,-0.01210007257759571,0.0920092836022377,-0.03348072990775108
1751013667288916700,2.339916748046875,0.024175377562642097,0.10104884952306747,-0.04863091930747032
1751013667298860800,2.34986083984375,0.054548729211091995,0.09527858346700668,-0.0622660368680954
1751013667308803800,2.359803955078125,0.06917401403188705,0.07298099994659424,-0.06917374581098557
1751013667318748000,2.369747802734375,0.06327004730701447,0.048524390906095505,-0.06572921574115753
1751013667328691000,2.37969091796875,0.055692289024591446,0.03747973218560219,-0.05170873552560806
1751013667338635000,2.389635009765625,0.038303181529045105,0.05187438428401947,-0.03316008299589157
1751013667348578000,2.399578125,0.02556847594678402,0.07615761458873749,-0.02635624073445797
1751013667358521000,2.40952099609375,0.01176051888614893,0.09034454077482224,-0.03953808918595314
1751013667368465000,2.41946484375,0.002775280037894845,0.08031294494867325,-0.0734316036105156
1751013667378408000,2.429407958984375,-0.00905501376837492,0.050453584641218185,-0.11866912245750427
1751013667388352000,2.43935205078125,-0.025561019778251648,0.012378372251987457,-0.16260702908039093
1751013667398295000,2.449294921875,-0.04025900736451149,0.002234924817457795,-0.19022373855113983
1751013667408237800,2.45923779296875,-0.059719257056713104,0.009740511886775494,-0.1987016499042511
1751013667418182000,2.469181884765625,-0.08634714037179947,0.012122975662350655,-0.1923241764307022
1751013667428125000,2.479125,-0.10040117055177689,0.006717024836689234,-0.16762521862983704
1751013667438069000,2.489069091796875,-0.11213106662034988,0.0021979068405926228,-0.13240677118301392
1751013667448011800,2.49901171875,-0.11666536331176758,0.0005808354471810162,-0.08942335844039917
1751013667457954800,2.508954833984375,-0.10963062196969986,0.0037742317654192448,-0.04914757236838341
1751013667467899000,2.51889892578125,-0.07676801830530167,0.026728816330432892,-0.007818241603672504
1751013667477842000,2.528842041015625,-0.0460260808467865,0.0601608082652092,0.02159690484404564
1751013667487785700,2.53878564453125,-0.000857005245052278,0.08589013665914536,0.026998860761523247
1751013667497728800,2.548728759765625,0.04220204800367355,0.12483274936676025,0.02804255299270153
1751013667507672800,2.5586728515625,0.0689348578453064,0.1458940953016281,0.026701385155320168
1751013667517615900,2.568615966796875,0.07395385205745697,0.12964774668216705,0.01477708201855421
1751013667527559000,2.578558837890625,0.07303240150213242,0.0915171355009079,0.004858404863625765
1751013667537503000,2.5885029296875,0.06716758757829666,0.0572931170463562,-0.009878729470074177
1751013667547445800,2.59844580078125,0.06313689053058624,0.03783686086535454,-0.016332633793354034
1751013667557390000,2.60839013671875,0.060020193457603455,0.02321770414710045,-0.020420320332050323
1751013667567337200,2.618337158203125,0.0572771392762661,0.008326373063027859,-0.022777218371629715
1751013667577280300,2.6282802734375,0.06349721550941467,-0.002672215923666954,-0.029348300769925117
1751013667587224300,2.638224365234375,0.06574279069900513,-0.015544604510068893,-0.024700285866856575
1751013667597167400,2.64816748046875,0.07504654675722122,-0.027050526812672615,-0.02046958915889263
1751013667607111200,2.658111083984375,0.07464920729398727,-0.06120982766151428,-0.018159829080104828
1751013667617054200,2.66805419921875,0.07572592049837112,-0.0882454365491867,-0.010464891791343689
1751013667626998300,2.677998291015625,0.07764659076929092,-0.10245713591575623,0.0026754115242511034
1751013667636941300,2.68794140625,0.0775696262717247,-0.11201068758964539,0.013228453695774078
1751013667646884000,2.697884033203125,0.07776270806789398,-0.12319197505712509,0.021815016865730286
1751013667656828200,2.707828125,0.0812799409031868,-0.1357399821281433,0.027299264445900917
1751013667666771200,2.717771240234375,0.08833758533000946,-0.16189755499362946,0.027150128036737442
1751013667676715300,2.72771533203125,0.08841615170240402,-0.18829214572906494,0.009981527924537659
1751013667686658300,2.737658203125,0.0803784653544426,-0.20103856921195984,-0.018625615164637566
1751013667696601000,2.74760107421875,0.06610764563083649,-0.19034357368946075,-0.05212125927209854
1751013667706545400,2.75754541015625,0.05128395929932594,-0.17824244499206543,-0.0909448191523552
1751013667716488400,2.767488525390625,0.02973232977092266,-0.1693916916847229,-0.12412460893392563
1751013667726432300,2.777432373046875,0.017166735604405403,-0.1426175981760025,-0.14525119960308075
1751013667736375300,2.787375244140625,0.02165602706372738,-0.11686350405216217,-0.1412210464477539
1751013667746318300,2.797318359375,0.03429139405488968,-0.09070433676242828,-0.1323780119419098
1751013667756262400,2.807262451171875,0.05463661253452301,-0.06286924332380295,-0.11477664858102798
1751013667766205200,2.817205078125,0.06422319263219833,-0.036676786839962006,-0.10938161611557007
1751013667776149200,2.827149169921875,0.0659814104437828,-0.009505088441073895,-0.11165116727352142
1751013667786092300,2.83709228515625,0.056354619562625885,0.025194834917783737,-0.1263512820005417
1751013667796036400,2.847036376953125,0.04090535640716553,0.05290023237466812,-0.14314304292201996
1751013667805979100,2.856979248046875,0.016649283468723297,0.07281295210123062,-0.1638304740190506
1751013667815922200,2.866922119140625,-0.0025683525018393993,0.08006767183542252,-0.1700180619955063
1751013667825866200,2.8768662109375,-0.019177157431840897,0.06859397143125534,-0.15747565031051636
1751013667835809300,2.886809326171875,-0.035289812833070755,0.03873727470636368,-0.12369930744171143
1751013667845753000,2.896753173828125,-0.04367024824023247,0.016038088127970695,-0.06742750853300095
1751013667855696100,2.906696044921875,-0.046847134828567505,-0.010581271722912788,-0.010491789318621159
1751013667865640200,2.91664013671875,-0.0526333823800087,-0.03335822373628616,0.04379994422197342
1751013667875583200,2.926583251953125,-0.05765876919031143,-0.06172914430499077,0.07663378864526749
1751013667885526300,2.9365263671875,-0.05842842161655426,-0.08097367733716965,0.08952216058969498
1751013667895470300,2.94647021484375,-0.05344405025243759,-0.0660056471824646,0.08624274283647537
1751013667905413000,2.9564130859375,-0.049247972667217255,-0.03182211145758629,0.0664336159825325
1751013667915357400,2.966357421875,-0.05084161087870598,0.010271811857819557,0.03744058310985565
1751013667925300500,2.976300537109375,-0.054552722722291946,0.050871435552835464,0.00878097489476204
1751013667935243300,2.9862431640625,-0.05140247195959091,0.09436671435832977,-0.0014386395923793316
1751013667945187300,2.996187255859375,-0.04627934843301773,0.11067458242177963,0.00447011599317193
1751013667955130400,3.00613037109375,-0.042818836867809296,0.10110104829072952,0.014998656697571278
1751013667965074200,3.01607421875,-0.030944067984819412,0.07574296742677689,0.04040122032165527
1751013667975017200,3.026017333984375,-0.020626714453101158,0.052446696907281876,0.06959452480077744
1751013667984960300,3.035960205078125,-0.01269635371863842,0.02924044243991375,0.09198744595050812
1751013667994904300,3.045904296875,-0.011036405339837074,0.016535300761461258,0.10646199434995651
1751013668004847400,3.055847412109375,-0.00823902152478695,0.01978941820561886,0.10865457355976105
1751013668014791200,3.065791259765625,-0.002909237053245306,0.03581738471984863,0.10065044462680817
1751013668024734200,3.075734130859375,0.0036732980515807867,0.05393407121300697,0.07789959013462067
1751013668034678300,3.08567822265625,0.001636246219277382,0.06899850815534592,0.0420403927564621
1751013668044621300,3.095621337890625,-0.004257861990481615,0.07959283143281937,-0.0019441075855866075
1751013668054564400,3.105564453125,-0.020484501495957375,0.08651012182235718,-0.04248780384659767
1751013668064508200,3.115508056640625,-0.04026353359222412,0.08998262137174606,-0.07324891537427902
1751013668074451200,3.125451171875,-0.06353823095560074,0.08873865753412247,-0.08613807708024979
1751013668084395300,3.135395263671875,-0.07871824502944946,0.0891043096780777,-0.08543740212917328
1751013668094338300,3.14533837890625,-0.08185039460659027,0.08806327730417252,-0.06133153289556503
1751013668104281000,3.155281005859375,-0.08232390135526657,0.07335091382265091,-0.033601101487874985
1751013668114225200,3.16522509765625,-0.07541406154632568,0.05397268757224083,-0.008941562846302986
1751013668124168200,3.175168212890625,-0.06058425083756447,0.03966059535741806,0.017496168613433838
1751013668134112300,3.1851123046875,-0.04129737243056297,0.040355145931243896,0.04258367791771889
1751013668144055300,3.19505517578125,-0.028013525530695915,0.05083281919360161,0.05668378621339798
1751013668153999400,3.204999267578125,-0.02353275567293167,0.06689141690731049,0.06130490079522133
1751013668163942400,3.2149423828125,-0.013688648119568825,0.07282786816358566,0.06632709503173828
1751013668173885400,3.224885498046875,0.008980978280305862,0.0821063220500946,0.0800090804696083
1751013668183829200,3.234829345703125,0.043599408119916916,0.09297095239162445,0.11384347826242447
1751013668193772300,3.244772216796875,0.09067131578922272,0.10322917997837067,0.14120613038539886
1751013668203716400,3.25471630859375,0.13262727856636047,0.1003527045249939,0.16752667725086212
1751013668213659400,3.264659423828125,0.16064533591270447,0.07922904193401337,0.16676661372184753
1751013668223602200,3.274602294921875,0.1724090576171875,0.04092719405889511,0.15032479166984558
1751013668233546200,3.284546142578125,0.17154964804649353,0.004917260725051165,0.12230060994625092
1751013668243489300,3.2944892578125,0.16746222972869873,-0.018116420134902,0.09412010759115219
1751013668253433300,3.304433349609375,0.15847885608673096,-0.034143853932619095,0.06902860105037689
1751013668263376100,3.314376220703125,0.14985527098178864,-0.04042598605155945,0.060932327061891556
1751013668273320200,3.3243203125,0.14814312756061554,-0.024108797311782837,0.07573231309652328
1751013668283263200,3.33426318359375,0.1452924758195877,-0.012313391081988811,0.10169946402311325
1751013668293206300,3.344206298828125,0.14117363095283508,-0.010241718962788582,0.12827327847480774
1751013668303150000,3.354150146484375,0.13015800714492798,-0.02231622487306595,0.13951075077056885
1751013668313093000,3.364093017578125,0.112403504550457,-0.042390067130327225,0.1302189826965332
1751013668323037200,3.374037109375,0.09232833236455917,-0.07117750495672226,0.10947376489639282
1751013668332980200,3.383980224609375,0.07253199070692062,-0.09721975773572922,0.08501635491847992
1751013668342923300,3.39392333984375,0.05182990804314613,-0.11003755778074265,0.05808061361312866
1751013668352867300,3.403867431640625,0.03425544127821922,-0.10380762070417404,0.043416716158390045
1751013668362810400,3.413810302734375,0.020549749955534935,-0.08155558258295059,0.03251346945762634
1751013668372754400,3.42375439453125,0.013103018514811993,-0.03833593800663948,0.0360536091029644
1751013668382697200,3.433697265625,0.0030426615849137306,-0.002460228279232979,0.04154238477349281
1751013668392640300,3.44364013671875,-0.0024855281226336956,0.016436230391263962,0.04105715453624725
1751013668402584300,3.453584228515625,-0.009939982555806637,0.022245917469263077,0.03356195613741875
1751013668412527400,3.46352734375,-0.011175955645740032,0.016754744574427605,0.019298063591122627
1751013668422471200,3.47347119140625,-0.014367220923304558,0.008406800217926502,0.0025710156187415123
1751013668432414200,3.483414306640625,-0.016835173591971397,-0.005499694030731916,-0.01594381220638752
1751013668442358300,3.493358154296875,-0.01594780758023262,-0.01079991739243269,-0.0328357107937336
1751013668452301300,3.50330126953125,-0.012284096330404282,-0.006205165293067694,-0.04098977893590927
1751013668462244400,3.513244384765625,-0.00706856232136488,0.013944044709205627,-0.054186005145311356
1751013668472188200,3.523188232421875,-0.008412925526499748,0.03379657864570618,-0.06887413561344147
1751013668482131200,3.533131103515625,-0.006995059084147215,0.04134184867143631,-0.06763097643852234
1751013668492075300,3.5430751953125,-0.011477691121399403,0.03147004172205925,-0.06631351262331009
1751013668502018300,3.553018310546875,-0.014492656104266644,0.019810723140835762,-0.06049476936459541
1751013668511961300,3.56296142578125,-0.025006283074617386,0.005058940965682268,-0.05861377716064453
1751013668521905200,3.5729052734375,-0.03731195256114006,-0.0004223773430567235,-0.06005002185702324
1751013668531848200,3.58284814453125,-0.05048048496246338,0.002237587934359908,-0.06485462933778763
1751013668541792300,3.592792236328125,-0.06042925640940666,0.004241084214299917,-0.07374532520771027
1751013668551735000,3.602735107421875,-0.0626830905675888,-0.0032746228389441967,-0.08543980121612549
1751013668561678000,3.612677978515625,-0.05050045624375343,-0.012801814824342728,-0.09880087524652481
1751013668571622400,3.622622314453125,-0.041614022105932236,-0.020418722182512283,-0.10972463339567184
1751013668581565400,3.6325654296875,-0.038186267018318176,-0.025249164551496506,-0.11184371262788773
1751013668591509200,3.64250927734375,-0.03122742846608162,-0.020603278651833534,-0.09583038836717606
1751013668601452300,3.652452392578125,-0.026447586715221405,-0.0070280819199979305,-0.06241916865110397
1751013668611396400,3.662396240234375,-0.012926717288792133,0.006294913589954376,-0.016215188428759575
1751013668621339400,3.67233935546875,0.003528422210365534,0.0173233300447464,0.02707209810614586
1751013668631282400,3.682282470703125,0.01998063176870346,0.015796540305018425,0.05608617141842842
1751013668641226200,3.692226318359375,0.0231695007532835,-0.012395682744681835,0.06654280424118042
1751013668651169300,3.702169189453125,0.014311028644442558,-0.05405711010098457,0.05047329515218735
1751013668661113600,3.712113525390625,-0.00675297761335969,-0.08116728812456131,0.02754960209131241
1751013668671056400,3.722056396484375,-0.029262281954288483,-0.09554809331893921,-0.0031337416730821133
1751013668680999200,3.731999267578125,-0.051118310540914536,-0.0840807855129242,-0.03128069266676903
1751013668690943500,3.741943603515625,-0.06625225394964218,-0.05578896403312683,-0.05317400395870209
1751013668700886500,3.751886474609375,-0.06777744740247726,-0.026939472183585167,-0.0626671090722084
1751013668710830300,3.761830322265625,-0.06165803596377373,-0.0006210491410456598,-0.049369946122169495
1751013668720773400,3.7717734375,-0.052742306143045425,0.022976156324148178,-0.03455877676606178
1751013668730717400,3.781717529296875,-0.04367104917764664,0.03277925029397011,-0.004779309034347534
1751013668740660500,3.791660400390625,-0.036852821707725525,0.030342459678649902,0.01974654011428356
1751013668750603500,3.801603515625,-0.032113462686538696,0.015595471486449242,0.03160959109663963
1751013668760547300,3.81154736328125,-0.029380526393651962,0.004674380179494619,0.04162893444299698
1751013668770490400,3.821490478515625,-0.02359853684902191,-0.004625378176569939,0.03870931267738342
1751013668780434400,3.831434326171875,-0.017466608434915543,-0.021142570301890373,0.025612153112888336
1751013668790377500,3.84137744140625,-0.014339524321258068,-0.0276167131960392,0.0034549187403172255
1751013668800320500,3.851320556640625,-0.015600531361997128,-0.029328593984246254,-0.027241207659244537
1751013668810264300,3.861264404296875,-0.026936275884509087,-0.01866316609084606,-0.05212445557117462
1751013668820207400,3.871207275390625,-0.042215097695589066,0.00954077485948801,-0.06039569899439812
1751013668830151400,3.8811513671875,-0.05321874842047691,0.03677665814757347,-0.052746303379535675
1751013668840094200,3.89109423828125,-0.05024106800556183,0.06584532558917999,-0.031559791415929794
1751013668850037200,3.901037353515625,-0.03696121275424957,0.08136063814163208,-0.0028511802665889263
1751013668859981300,3.910981201171875,-0.017555024474859238,0.08848299086093903,0.01860217936336994
1751013668869924400,3.92092431640625,-0.003058640519157052,0.08837593346834183,0.033910561352968216
1751013668879868400,3.930868408203125,0.0036818201187998056,0.07018494606018066,0.036081038415431976
1751013668889811200,3.940811279296875,0.0033457293175160885,0.04370114207267761,0.02606329135596752
1751013668899755500,3.950755615234375,-0.008655806072056293,0.014464693143963814,-0.003069559345021844
1751013668909698600,3.960698486328125,-0.022706910967826843,0.010810836218297482,-0.041800711303949356
1751013668919641600,3.9706416015625,-0.037585191428661346,0.028787972405552864,-0.08440808951854706
1751013668929585400,3.98058544921875,-0.05549175292253494,0.06346605718135834,-0.11018242686986923
1751013668939528400,3.990528564453125,-0.0616159588098526,0.09664957970380783,-0.1302083432674408
1751013668949472500,4.000472412109375,-0.05746275931596756,0.11159097403287888,-0.13202594220638275
1751013668959415600,4.01041552734375,-0.042024414986371994,0.1075696051120758,-0.11875487864017487
1751013668969358300,4.0203583984375,-0.02376738004386425,0.07931612432003021,-0.10001900792121887
1751013668979302400,4.030302490234375,-0.012969594448804855,0.04183000326156616,-0.07409313321113586
1751013668989245400,4.040245361328125,-0.008863799273967743,0.027666781097650528,-0.04560157284140587
1751013668999189500,4.050189453125,-0.007414506748318672,0.038183603435754776,-0.012800750322639942
1751013669009132300,4.06013232421875,-0.010191651061177254,0.06805042177438736,0.014061490073800087
1751013669019075300,4.070075439453125,-0.0191316157579422,0.08996797353029251,0.028010861948132515
1751013669029019400,4.080019287109375,-0.022948192432522774,0.10168614983558655,0.03435318171977997
1751013669038962400,4.08996240234375,-0.02508511394262314,0.0949142649769783,0.03362320736050606
1751013669048906200,4.09990625,-0.03273823857307434,0.06947547942399979,0.033244773745536804
1751013669058849300,4.109849365234375,-0.03068254515528679,0.050206445157527924,0.033794716000556946
1751013669068793300,4.11979345703125,-0.02088530734181404,0.050998467952013016,0.035771578550338745
1751013669078736400,4.129736328125,0.0013235911028459668,0.061882808804512024,0.04513578489422798
1751013669088679400,4.139679443359375,0.020800087600946426,0.07496532052755356,0.052453089505434036
1751013669098623200,4.149623291015625,0.044559743255376816,0.07909908145666122,0.05161499232053757
1751013669108566300,4.159566162109375,0.05246027931571007,0.06735613942146301,0.038901325315237045
1751013669118510600,4.169510498046875,0.05195028334856033,0.043843355029821396,0.021288244053721428
1751013669128453400,4.179453369140625,0.04030720889568329,0.023272033780813217,0.0038605183362960815
1751013669138396400,4.189396484375,0.02732536382973194,0.009807356633245945,-0.004787831101566553
1751013669148340500,4.199340576171875,0.02305551804602146,0.0010910971323028207,-0.0034013893455266953
1751013669158283500,4.209283447265625,0.03680914640426636,0.005015264730900526,0.015051387250423431
1751013669168227300,4.219227294921875,0.06035415455698967,0.010293650440871716,0.03133128955960274
1751013669178170400,4.22917041015625,0.08279315382242203,-0.00526640098541975,0.03724031150341034
1751013669188114400,4.239114501953125,0.10779916495084763,-0.0336274690926075,0.01950445957481861
1751013669198057500,4.249057373046875,0.12030723690986633,-0.053893059492111206,-0.008860869333148003
1751013669208000500,4.25900048828125,0.13021047413349152,-0.09002602845430374,-0.050887417048215866
1751013669217944300,4.2689443359375,0.12779630720615387,-0.14294810593128204,-0.08570878207683563
1751013669227887400,4.278887451171875,0.11811865121126175,-0.18067337572574615,-0.09863842278718948
1751013669237831400,4.28883154296875,0.1081235408782959,-0.18065206706523895,-0.0766870528459549
1751013669247774500,4.2987744140625,0.09062497317790985,-0.14773859083652496,-0.0226238202303648
1751013669257717200,4.30871728515625,0.06591030955314636,-0.11477451771497726,0.033851440995931625
1751013669267661300,4.318661376953125,0.04183479771018028,-0.08757458627223969,0.0812210887670517
1751013669277604400,4.328604248046875,0.027824440971016884,-0.07585801184177399,0.09607646614313126
1751013669287548400,4.33854833984375,0.026324015110731125,-0.07652726769447327,0.07043422013521194
1751013669297491200,4.3484912109375,0.03810743987560272,-0.07011596858501434,0.017842380329966545
1751013669307434200,4.358434326171875,0.04671424254775047,-0.0563301183283329,-0.04307050630450249
1751013669317378300,4.36837841796875,0.05128422752022743,-0.04216583073139191,-0.0916747897863388
1751013669327321300,4.3783212890625,0.04852279648184776,-0.02359214425086975,-0.12558668851852417
1751013669337265400,4.388265380859375,0.039565518498420715,0.0034591800067573786,-0.14153476059436798
1751013669347208400,4.39820849609375,0.02262914553284645,0.03657212480902672,-0.14397048950195312
1751013669357152500,4.408152587890625,-0.0043958136811852455,0.07509554922580719,-0.14692765474319458
1751013669367095600,4.418095458984375,-0.027453728020191193,0.10161983221769333,-0.13325819373130798
1751013669377038600,4.42803857421875,-0.04776725545525551,0.10760342329740524,-0.12496084719896317
1751013669386982400,4.437982421875,-0.0538717545568943,0.08720201253890991,-0.11306370794773102
1751013669396925400,4.447925537109375,-0.04134930297732353,0.043302200734615326,-0.10838799178600311
1751013669406869500,4.457869384765625,-0.012325908057391644,0.0004881574132014066,-0.10533521324396133
1751013669416812500,4.4678125,0.021410217508673668,-0.014731807634234428,-0.09926746785640717
1751013669426755300,4.47775537109375,0.03984568268060684,0.00006072007090551779,-0.09782376140356064
1751013669436699400,4.487699462890625,0.046353116631507874,0.010423080064356327,-0.09929808974266052
1751013669446642400,4.497642333984375,0.04471820220351219,0.014711035415530205,-0.1014816164970398
1751013669456586200,4.507586181640625,0.040409475564956665,0.009347961284220219,-0.1017170399427414
1751013669466529300,4.517529296875,0.03199788182973862,0.0002545981842558831,-0.10451149195432663
1751013669476472300,4.527472412109375,0.026387132704257965,0.004520716145634651,-0.0969204232096672
1751013669486416400,4.53741650390625,0.016083894297480583,0.004096208140254021,-0.08246025443077087
1751013669496359400,4.547359375,0.0057199373841285706,0.005518602207303047,-0.06500216573476791
1751013669506303200,4.55730322265625,-0.0004913532175123692,0.0062155514024198055,-0.04096927121281624
1751013669516246300,4.567246337890625,0.004427238833159208,-0.0036218990571796894,-0.024758609011769295
1751013669526190300,4.5771904296875,0.01134080532938242,-0.019085276871919632,-0.01661066897213459
1751013669536133400,4.58713330078125,0.018882345408201218,-0.03148069605231285,-0.017841048538684845
1751013669546076400,4.597076416015625,0.024150343611836433,-0.033376600593328476,-0.017894579097628593
1751013669556020500,4.6070205078125,0.023258717730641365,-0.024807877838611603,-0.01859605498611927
1751013669565959400,4.61695947265625,0.029108883813023567,-0.013288108631968498,-0.010972489602863789
1751013669575903500,4.626903564453125,0.03711860626935959,0.0022889869287610054,0.0028189560398459435
1751013669585846500,4.636846435546875,0.048472728580236435,0.01720774918794632,0.010387660004198551
1751013669595789300,4.646789306640625,0.05281634256243706,0.028493959456682205,0.014176539145410061
1751013669605733400,4.6567333984375,0.04709427431225777,0.04424069821834564,0.01595206931233406
1751013669615676400,4.666676513671875,0.03833407163619995,0.041852906346321106,0.009248625487089157
1751013669625620500,4.676620361328125,0.03291107714176178,0.03152463585138321,-0.0021734058391302824
1751013669635563300,4.686563232421875,0.036345224827528,0.023928502574563026,-0.012167450040578842
1751013669645507600,4.696507568359375,0.049544382840394974,0.007481351960450411,-0.02118118479847908
1751013669655450600,4.70645068359375,0.05952857434749603,-0.014799985103309155,-0.027843881398439407
1751013669665393700,4.7163935546875,0.07774513214826584,-0.032155271619558334,-0.03833726793527603
1751013669675337500,4.72633740234375,0.09471878409385681,-0.046793870627880096,-0.04212827980518341
1751013669685280500,4.736280517578125,0.1089448556303978,-0.05145120620727539,-0.052554287016391754
1751013669695224600,4.746224609375,0.11692715436220169,-0.03909706696867943,-0.04675552248954773
1751013669705167600,4.756167724609375,0.12414485216140747,-0.010585266165435314,-0.0329105444252491
1751013669715110700,4.766110595703125,0.1302778422832489,0.02070368081331253,-0.016214922070503235
1751013669725054500,4.776054443359375,0.12669189274311066,0.020747622475028038,-0.00637880340218544
1751013669734997500,4.78599755859375,0.11964410543441772,0.0017092167399823666,-0.009045959450304508
1751013669744941600,4.795941650390625,0.11233452707529068,-0.004820853937417269,-0.01119246706366539
1751013669754884600,4.805884521484375,0.10395675897598267,-0.005894108209758997,-0.015308382920920849
1751013669764827400,4.815827392578125,0.08966357260942459,-0.02034122496843338,-0.018450379371643066
1751013669774771500,4.825771484375,0.08703742921352386,-0.02202647179365158,-0.014939800836145878
1751013669784714500,4.835714599609375,0.07811317592859268,-0.011421765200793743,-0.018972093239426613
1751013669794658300,4.845658203125,0.07041238248348236,-0.013823403976857662,-0.020779579877853394
1751013669804601300,4.855601318359375,0.062425825744867325,-0.006812898442149162,-0.03422454744577408
1751013669814545400,4.86554541015625,0.0472806952893734,0.0157757680863142,-0.04906341806054115
1751013669824488400,4.875488525390625,0.020395552739501,0.04971802234649658,-0.0687047615647316
1751013669834431500,4.885431396484375,-0.00905528012663126,0.07015138864517212,-0.07052050530910492
1751013669844375300,4.895375244140625,-0.02640923671424389,0.0733272135257721,-0.07271281629800797
1751013669854318300,4.905318359375,-0.029265742748975754,0.06459683924913406,-0.06283888220787048
1751013669864262700,4.9152626953125,-0.030829817056655884,0.039202794432640076,-0.04213413596153259
1751013669874205700,4.925205810546875,-0.03154487535357475,0.01170699018985033,-0.023372167721390724
1751013669884148500,4.9351484375,-0.034624822437763214,-0.01805783063173294,-0.005321261938661337
1751013669894092500,4.945092529296875,-0.03455318510532379,-0.04319274425506592,0.010641992092132568
1751013669904035600,4.95503564453125,-0.026130404323339462,-0.05919141694903374,0.02220197580754757
1751013669913979600,4.964979736328125,-0.005753759294748306,-0.06729408353567123,0.025015870109200478
1751013669923922400,4.97492236328125,0.015730759128928185,-0.06435049325227737,0.01666446402668953
1751013669933866500,4.984866455078125,0.037932466715574265,-0.05782042443752289,0.016984842717647552
1751013669943809500,4.9948095703125,0.05061231181025505,-0.04602634906768799,0.015678562223911285
1751013669953752600,5.004752685546875,0.05525526404380798,-0.03141304850578308,0.020326044410467148
1751013669963696400,5.0146962890625,0.05032016336917877,-0.016593091189861298,0.024327710270881653
1751013669973639400,5.024639404296875,0.03640061989426613,-0.005387841258198023,0.035781700164079666
1751013669983583500,5.03458349609375,0.01979873888194561,-0.0007190534961409867,0.044381044805049896
1751013669993526500,5.044526611328125,0.006073338910937309,-0.0015707324491813779,0.054786816239356995
1751013670003469600,5.054469482421875,-0.004200337454676628,-0.016874054446816444,0.07033994048833847
1751013670013413400,5.064413330078125,-0.005231513641774654,-0.030058566480875015,0.07892384380102158
1751013670023356400,5.0743564453125,-0.007505320478230715,-0.030894000083208084,0.0847708135843277
1751013670033300500,5.084300537109375,-0.0054549528285861015,-0.017193900421261787,0.09300743788480759
1751013670043243500,5.094243408203125,-0.00033875409280881286,-0.0008671252289786935,0.09212140738964081
1751013670053187300,5.104187255859375,-0.0009776464430615306,0.007749532349407673,0.07870519906282425
1751013670063130400,5.11413037109375,0.0022277343086898327,0.007379086688160896,0.06400108337402344
1751013670073073400,5.124073486328125,0.0010128001449629664,0.0015912387752905488,0.0406012237071991
1751013670083017500,5.134017578125,-0.009432650171220303,-0.010143714025616646,0.010946657508611679
1751013670092960300,5.143960205078125,-0.023130619898438454,-0.023329025134444237,-0.0075945365242660046
1751013670102904600,5.153904541015625,-0.043181292712688446,-0.03068094700574875,-0.01823306642472744
1751013670112847600,5.16384765625,-0.049248240888118744,-0.027404192835092545,-0.015164305455982685
1751013670122790700,5.173790771484375,-0.04963066801428795,-0.0172671377658844,-0.011040134355425835
1751013670132734500,5.183734375,-0.05127756670117378,-0.0001150485550169833,0.002898584585636854
1751013670142677500,5.193677490234375,-0.04890389367938042,0.01714596338570118,0.016712134703993797
1751013670152621600,5.20362158203125,-0.04188380017876625,0.02375619485974312,0.029091306030750275
1751013670162564600,5.213564697265625,-0.029648972675204277,0.01677924580872059,0.03985020890831947
1751013670172508400,5.22350830078125,-0.0016021577175706625,0.038119688630104065,0.046909451484680176
1751013670182451500,5.233451416015625,0.05014332756400108,0.11707309633493423,0.04097672924399376
1751013670192394500,5.24339453125,0.06698915362358093,0.08929472416639328,0.03122556395828724
1751013670202338600,5.253338623046875,0.06119012087583542,0.07675736397504807,0.03461736440658569
1751013670212281300,5.26328125,0.05968303605914116,0.08281631767749786,0.039254460483789444
1751013670222225400,5.273225341796875,0.05982072278857231,0.06484530866146088,0.04736724868416786
1751013670232168400,5.28316845703125,0.04977687820792198,0.03830850496888161,0.05511145666241646
1751013670242111500,5.293111572265625,0.03460804373025894,0.014518755488097668,0.062136340886354446
1751013670252055300,5.30305517578125,0.021458154544234276,0.005934588145464659,0.06278429180383682
1751013670261998300,5.312998291015625,-0.004776645917445421,0.008892827667295933,0.05931339040398598
1751013670271942400,5.3229423828125,-0.03308578208088875,-0.0056799896992743015,0.0420483835041523
1751013670281885400,5.332885498046875,-0.05125972628593445,-0.031088409945368767,0.019519371911883354
1751013670291829500,5.34282958984375,-0.04475788399577141,-0.04091707244515419,-0.008263256400823593
1751013670301772300,5.352772216796875,-0.03645654395222664,-0.04078285023570061,-0.034270089119672775
1751013670311715300,5.36271533203125,-0.032228775322437286,-0.023677365854382515,-0.04851027950644493
1751013670321659600,5.37265966796875,-0.0387580469250679,-0.00812264159321785,-0.0536951869726181
1751013670331602700,5.382602783203125,-0.04520689323544502,-0.0002492718631401658,-0.05829180032014847
1751013670341546500,5.39254638671875,-0.04777311533689499,0.01557922549545765,-0.04740320146083832
1751013670351489500,5.402489501953125,-0.04376425966620445,0.027632692828774452,-0.038720764219760895
1751013670361432600,5.4124326171875,-0.040827058255672455,0.03789997845888138,-0.027408987283706665
1751013670371376600,5.422376708984375,-0.039684031158685684,0.051905009895563126,-0.022518891841173172
1751013670381319400,5.4323193359375,-0.041845716536045074,0.05355164036154747,-0.025319205597043037
1751013670391263500,5.442263427734375,-0.03680967912077904,0.034654650837183,-0.02924869954586029
1751013670401206500,5.45220654296875,-0.029208751395344734,0.01661519519984722,-0.03136271610856056
1751013670411150300,5.462150390625,-0.022115688771009445,0.00148151651956141,-0.031973112374544144
1751013670421093400,5.47209326171875,-0.020809940993785858,-0.017591776326298714,-0.030848726630210876
1751013670431036400,5.482036376953125,-0.017789648845791817,-0.031204525381326675,-0.03176352381706238
1751013670440980500,5.49198046875,-0.01737792417407036,-0.025498168542981148,-0.04291870445013046
1751013670450923500,5.501923583984375,-0.017909225076436996,-0.009072324261069298,-0.05451996624469757
1751013670460867300,5.511867431640625,-0.024959944188594818,0.014627944678068161,-0.06676438450813293
1751013670470810400,5.521810302734375,-0.027840152382850647,0.028308337554335594,-0.07942558079957962
1751013670480753400,5.53175341796875,-0.027540547773241997,0.03700888529419899,-0.08010362088680267
1751013670490697500,5.541697509765625,-0.02135402522981167,0.053283993154764175,-0.06521149724721909
1751013670500640500,5.551640625,-0.01666313223540783,0.07486545294523239,-0.0476444847881794
1751013670510584600,5.56158447265625,-0.013539777137339115,0.0764969065785408,-0.02425367385149002
1751013670520527400,5.57152734375,-0.013263341039419174,0.06063591688871384,-0.0011377023765817285
1751013670530471700,5.5814716796875,-0.015276424586772919,0.0484764538705349,0.013194365426898003
1751013670540414500,5.59141455078125,-0.019516443833708763,0.03714283928275108,0.018627213314175606
1751013670550357500,5.601357421875,-0.01817207969725132,0.025434786453843117,0.02088078111410141
1751013670560301600,5.611301513671875,-0.014576812274754047,0.014421283267438412,0.011297395452857018
1751013670570244900,5.621244873046875,-0.020326577126979828,0.002910036128014326,0.006485862657427788
1751013670580189000,5.63118896484375,-0.01763731613755226,-0.006061088293790817,0.006133792456239462
1751013670590132000,5.641132080078125,-0.011304852552711964,-0.001529187080450356,0.012412727810442448
1751013670600075000,5.651074951171875,-0.00247540813870728,0.012065984308719635,0.02400493435561657
1751013670610019000,5.66101904296875,0.0014173343079164624,0.035770781338214874,0.0400286428630352
1751013670619961900,5.6709619140625,0.005465605296194553,0.0453198105096817,0.051056258380413055
1751013670629906000,5.680906005859375,0.0031872710678726435,0.04156395420432091,0.05296441540122032
1751013670639849000,5.690848876953125,-0.0038149782922118902,0.03298963978886604,0.03544161468744278
1751013670649793000,5.70079296875,-0.014510499313473701,0.029084116220474243,0.004294613376259804
1751013670659735800,5.71073583984375,-0.030649522319436073,0.015627428889274597,-0.022163892164826393
1751013670669678800,5.720678955078125,-0.040825460106134415,0.013225523754954338,-0.038309305906295776
1751013670679623000,5.730622802734375,-0.0511380173265934,0.02100781351327896,-0.03718625009059906
1751013670689566000,5.74056591796875,-0.06386473029851913,0.028237231075763702,-0.02533385157585144
1751013670699509800,5.750509765625,-0.06377951055765152,0.04164917767047882,-0.012851616367697716
1751013670709452800,5.760452880859375,-0.05022082477807999,0.046849798411130905,0.0073564499616622925
1751013670719395800,5.770395751953125,-0.043470244854688644,0.051356930285692215,0.02846945822238922
1751013670729340000,5.78033984375,-0.03665921092033386,0.04381778836250305,0.040777258574962616
1751013670739283000,5.790282958984375,-0.023368705064058304,0.04061054438352585,0.04854969307780266
1751013670749226800,5.800226806640625,-0.01050537172704935,0.02527686022222042,0.05148715898394585
1751013670759169800,5.810169677734375,-0.00749120581895113,0.021805163472890854,0.057857174426317215
1751013670769113900,5.82011376953125,-0.0030834078788757324,0.026687270030379295,0.06807971745729446
1751013670779057000,5.830056884765625,0.005049087107181549,0.037449635565280914,0.07117430865764618
1751013670788999700,5.839999755859375,0.011803662404417992,0.04252375662326813,0.0629187747836113
1751013670798944000,5.849944091796875,0.019150525331497192,0.046785615384578705,0.030492927879095078
1751013670808887000,5.859886962890625,0.021953769028186798,0.04620105028152466,-0.0031515848822891712
1751013670818830800,5.869830810546875,0.02532160095870495,0.040042489767074585,-0.03802381455898285
1751013670828774000,5.87977392578125,0.02755173295736313,0.040296558290719986,-0.06023351103067398
1751013670838717000,5.889717041015625,0.031022630631923676,0.048228517174720764,-0.07157991081476212
1751013670848661000,5.899660888671875,0.029881732538342476,0.05995361506938934,-0.06535930186510086
1751013670858604000,5.90960400390625,0.0238249059766531,0.056899502873420715,-0.04236157238483429
1751013670868547800,5.9195478515625,0.022977488115429878,0.04920056834816933,-0.017919344827532768
1751013670878491000,5.929490966796875,0.017375795170664787,0.05294657126069069,0.006947388406842947
1751013670888435000,5.93943505859375,0.018007762730121613,0.04868524894118309,0.01883494108915329
1751013670898378000,5.9493779296875,0.009542904794216156,0.03942623361945152,0.01775476150214672
1751013670908321000,5.959321044921875,0.005004345905035734,0.03247485309839249,0.003923102747648954
1751013670918264800,5.969264892578125,0.000803209375590086,0.026805514469742775,-0.016754478216171265
1751013670928208000,5.979207763671875,-0.002423742786049843,0.015293202362954617,-0.033365946263074875
1751013670938152000,5.98915185546875,-0.008585498668253422,0.015855928882956505,-0.04036393389105797
1751013670948094700,5.9990947265625,-0.006623814348131418,0.03154061734676361,-0.042203113436698914
1751013670958037800,6.009037841796875,-0.004551075864583254,0.045467350631952286,-0.03707679361104965
1751013670967981800,6.01898193359375,-0.0038988678716123104,0.04465961456298828,-0.033371806144714355
1751013670977924900,6.0289248046875,-0.008727711625397205,0.038054708391427994,-0.031078023836016655
1751013670987868700,6.03886865234375,-0.016503343358635902,0.02774348109960556,-0.02371971122920513
1751013670997811700,6.048811767578125,-0.018367288634181023,0.0291214007884264,-0.008440623059868813
1751013671007756000,6.058756103515625,-0.016382968053221703,0.044320594519376755,0.00809068325906992
1751013671017699000,6.068698974609375,-0.007997739128768444,0.04517466947436333,0.02099662832915783
1751013671027641900,6.078641845703125,-0.004057325888425112,0.03597664460539818,0.024869397282600403
1751013671037586000,6.0885859375,-0.002117745578289032,0.019471701234579086,0.02094735950231552
1751013671047529000,6.098529052734375,0.0028631645254790783,-0.0010668623726814985,0.008259527385234833
1751013671057473000,6.10847314453125,0.005375324282795191,-0.006648048758506775,-0.006804642733186483
1751013671067416000,6.118416015625,0.0036535905674099922,-0.006019542925059795,-0.017123859375715256
1751013671077359900,6.12835986328125,-0.00330285239033401,-0.0046602655202150345,-0.013598366640508175
1751013671087303000,6.138302978515625,-0.010387660004198551,-0.006000102031975985,-0.0011688614031299949
1751013671097246000,6.148245849609375,-0.015174957923591137,-0.00714685907587409,0.016164854168891907
1751013671107190000,6.15818994140625,-0.01582903042435646,-0.013676663860678673,0.028508074581623077
1751013671117132800,6.1681328125,-0.01966744475066662,-0.010697385296225548,0.03575107455253601
1751013671127076900,6.178076904296875,-0.019834958016872406,-0.009820406325161457,0.0418182872235775
1751013671137020000,6.18802001953125,-0.019239474087953568,-0.005875732284039259,0.0368829183280468
1751013671146963000,6.197962890625,-0.019417107105255127,0.0007464840309694409,0.0285288468003273
1751013671156906800,6.20790673828125,-0.022551914677023888,-0.002025333931669593,0.018978750333189964
1751013671166849800,6.217849853515625,-0.023487748578190804,0.0035989959724247456,0.013578392565250397
1751013671176793900,6.2277939453125,-0.025412682443857193,0.00905528012663126,0.005783320404589176
1751013671186737000,6.23773681640625,-0.03129187598824501,0.015978166833519936,0.0015749934827908874
1751013671196680700,6.2476806640625,-0.03612764552235603,0.02400493435561657,0.004493019077926874
1751013671206623700,6.257623779296875,-0.04057512432336807,0.026127208024263382,0.008651811629533768
1751013671216566800,6.26756689453125,-0.044794902205467224,0.021201159805059433,0.0007957525085657835
1751013671226511000,6.277510986328125,-0.04716617986559868,0.017121994867920876,-0.015590943396091461
1751013671236454000,6.287453857421875,-0.0471360869705677,0.015901202335953712,-0.02864282950758934
1751013671246398000,6.29739794921875,-0.04814835265278816,0.014385863207280636,-0.038974829018116
1751013671256341000,6.307341064453125,-0.04517653211951256,0.018578477203845978,-0.02696557156741619
1751013671266284000,6.317283935546875,-0.04109710082411766,0.026431873440742493,-0.01107475534081459
1751013671276227800,6.327227783203125,-0.03563815355300903,0.032945699989795685,0.006653375457972288
1751013671286171000,6.3371708984375,-0.026872361078858376,0.04033757001161575,0.018009627237915993
1751013671296115000,6.347114990234375,-0.021928468719124794,0.04521062225103378,0.019576897844672203
1751013671306058000,6.35705810546875,-0.02129916287958622,0.0462346076965332,0.012079033069312572
1751013671316001800,6.367001708984375,-0.025718679651618004,0.04416719451546669,-0.00860121101140976
1751013671325944800,6.37694482421875,-0.03305169194936752,0.028748024255037308,-0.02165895700454712
1751013671335888000,6.386887939453125,-0.04165823012590408,0.0163041390478611,-0.037349503487348557
1751013671345832000,6.39683203125,-0.051419515162706375,0.015614911913871765,-0.04500715434551239
1751013671355775000,6.40677490234375,-0.0570550300180912,0.02496473863720894,-0.04487905651330948
1751013671365718800,6.41671875,-0.06167801097035408,0.025900838896632195,-0.046423956751823425
1751013671375661800,6.426661865234375,-0.06113765761256218,0.030255639925599098,-0.04553872346878052
1751013671385604900,6.43660498046875,-0.05413780361413956,0.03225380927324295,-0.03966991603374481
1751013671395549000,6.446548828125,-0.05029752478003502,0.03921584412455559,-0.04304121062159538
1751013671405491700,6.45649169921875,-0.05284270644187927,0.041359689086675644,-0.05231060832738876
1751013671415435800,6.466435791015625,-0.05506777763366699,0.03804511949419975,-0.06882460415363312
1751013671425378800,6.47637890625,-0.05649496614933014,0.019277025014162064,-0.07849587500095367
1751013671435321900,6.48632177734375,-0.05589175969362259,-0.002382996492087841,-0.0840429738163948
1751013671445266000,6.496265869140625,-0.05564355477690697,-0.02828490175306797,-0.07480978965759277
1751013671455208700,6.506208740234375,-0.051894091069698334,-0.044910214841365814,-0.059420183300971985
1751013671465153000,6.516153076171875,-0.045825544744729996,-0.04891055077314377,-0.04062865301966667
1751013671475096000,6.526095947265625,-0.04061054438352585,-0.038117293268442154,-0.02189517952501774
1751013671485039900,6.536039794921875,-0.03299203887581825,-0.027238545939326286,-0.01025370229035616
1751013671494983000,6.54598291015625,-0.03049931861460209,-0.01673530414700508,-0.0035356127191334963
1751013671504926000,6.555926025390625,-0.022181468084454536,-0.016092151403427124,-0.01227530837059021
1751013671514870000,6.5658701171875,-0.015777098014950752,-0.026687003672122955,-0.023558055981993675
1751013671524813000,6.57581298828125,-0.005687979515641928,-0.03785230591893196,-0.03518382087349892
1751013671534756900,6.5857568359375,0.0068312743678689,-0.057190317660570145,-0.040713608264923096
1751013671544700000,6.595699951171875,0.007123423274606466,-0.0613110288977623,-0.0410800576210022
1751013671554644000,6.60564404296875,0.008667790330946445,-0.06253528594970703,-0.03984861448407173
1751013671564586800,6.615586669921875,0.006397179327905178,-0.05601266771554947,-0.04135622829198837
1751013671574529300,6.625529296875,0.017372332513332367,-0.0463792160153389,-0.043467048555612564
1751013671584473300,6.635473388671875,0.013545369729399681,-0.03116990439593792,-0.045342713594436646
1751013671594416400,6.64541650390625,0.01130884699523449,-0.017496168613433838,-0.037334054708480835
1751013671604360400,6.6553603515625,0.004511927254498005,-0.015213840641081333,-0.03993942588567734
1751013671614303200,6.66530322265625,0.006584665738046169,-0.01206651609390974,-0.03362560272216797
1751013671624246300,6.675246337890625,0.0022295983508229256,-0.008774316869676113,-0.025112010538578033
1751013671634190300,6.6851904296875,-0.0006420881254598498,-0.003162770066410303,-0.020983844995498657
1751013671644133400,6.69513330078125,0.006219812668859959,-0.0013704627053812146,-0.01906823366880417
1751013671654077200,6.7050771484375,0.011169031262397766,-0.00013129384024068713,-0.02761298604309559
1751013671664020200,6.715020263671875,0.024144217371940613,-0.009631321765482426,-0.04381246119737625
1751013671673964300,6.72496435546875,0.026257969439029694,-0.024575117975473404,-0.06499657779932022
1751013671683907300,6.7349072265625,0.025467276573181152,-0.032759543508291245,-0.07962292432785034
1751013671693850400,6.744850341796875,0.021761221811175346,-0.020320983603596687,-0.08596630394458771
1751013671703794200,6.754794189453125,0.012922190129756927,0.00045593318645842373,-0.08107247948646545
1751013671713737200,6.7647373046875,0.015045261941850185,0.025050491094589233,-0.07162918150424957
1751013671723681300,6.774681396484375,0.016162458807229996,0.05429119989275932,-0.047394946217536926
1751013671733624300,6.784624267578125,0.01769404299557209,0.08612822741270065,-0.018996860831975937
1751013671743567000,6.794567138671875,0.019534286111593246,0.1036427691578865,-0.004442418925464153
1751013671753511200,6.80451123046875,0.02261822670698166,0.10334423184394836,-0.000029294771593413316
1751013671763454200,6.8144541015625,0.026745326817035675,0.07767508924007416,0.003760383464396
1751013671773398300,6.824398193359375,0.02046639285981655,0.059424977749586105,0.008800415322184563
1751013671783341000,6.834341064453125,0.0115586519241333,0.04797657951712608,0.018971826881170273
1751013671793285400,6.844285400390625,-0.0010961571242660284,0.03461736440658569,0.03232385218143463
1751013671803228400,6.854228515625,-0.006086920853704214,0.02305658347904682,0.03658783808350563
1751013671813171200,6.864171142578125,-0.0162452831864357,0.023865384981036186,0.04368090257048607
1751013671823115300,6.874115234375,-0.023570839315652847,0.019878633320331573,0.05849926173686981
1751013671833058300,6.884058349609375,-0.01570093259215355,0.006993727292865515,0.08220566064119339
1751013671843002400,6.89400244140625,-0.006710633169859648,0.0008594020619057119,0.09884801506996155
1751013671852945400,6.9039453125,0.0019773971289396286,-0.015508918091654778,0.10699275881052017
1751013671862888400,6.913888427734375,0.01799284853041172,-0.022280005738139153,0.11160323023796082
1751013671872832300,6.923832275390625,0.02931341342628002,-0.030544593930244446,0.10563907772302628
1751013671882775300,6.933775390625,0.03481949865818024,-0.0424121730029583,0.09885121136903763
1751013671892719400,6.94371923828125,0.030530212447047234,-0.06518139690160751,0.0967869982123375
1751013671902662400,6.953662353515625,0.022668028250336647,-0.09374513477087021,0.10360921919345856
1751013671912606200,6.963606201171875,0.011274226009845734,-0.11937379837036133,0.11959537118673325
1751013671922549200,6.97354931640625,0.005877064075320959,-0.14028973877429962,0.14019039273262024
1751013671932492300,6.9834921875,-0.010771953500807285,-0.1549866497516632,0.1576428860425949
1751013671942436000,6.99343603515625,-0.023862721398472786,-0.15034796297550201,0.19148847460746765
1751013671952379100,7.003379150390625,-0.028654014691710472,-0.13098332285881042,0.22744540870189667
1751013671962323200,7.0133232421875,-0.03215234354138374,-0.10743963718414307,0.23886637389659882
1751013671972266200,7.023266357421875,-0.021021129563450813,-0.08685074001550674,0.22315505146980286
1751013671982210000,7.0332099609375,-0.014513961970806122,-0.08777778595685959,0.17472440004348755
1751013671992153000,7.043153076171875,-0.0027686222456395626,-0.0937826856970787,0.10958161950111389
1751013672002096000,7.05309619140625,0.0009946906939148903,-0.09396937489509583,0.037755101919174194
1751013672012040400,7.06304052734375,0.007768973242491484,-0.09239917248487473,-0.024756744503974915
1751013672021983500,7.0729833984375,0.014505972154438496,-0.0818764865398407,-0.07055272907018661
1751013672031927300,7.08292724609375,0.012004731222987175,-0.05161259323358536,-0.1079871878027916
1751013672041870300,7.092870361328125,0.011578358709812164,-0.022649385035037994,-0.12763811647891998
1751013672051813400,7.1028134765625,0.0043840957805514336,0.008807339705526829,-0.13840794563293457
1751013672061757400,7.11275732421875,-0.006257096771150827,0.03298724442720413,-0.12947729229927063
1751013672071700200,7.1227001953125,-0.011972506530582905,0.04867060109972954,-0.11104556173086166
1751013672081644300,7.132644287109375,-0.020177440717816353,0.05350051075220108,-0.0941334217786789
1751013672091587300,7.14258740234375,-0.026554113253951073,0.05678418651223183,-0.08380462229251862
1751013672101531400,7.152531494140625,-0.02672695182263851,0.0554366260766983,-0.07880640029907227
1751013672111474200,7.16247412109375,-0.03236646205186844,0.041481129825115204,-0.07261960953474045
1751013672121417200,7.172417236328125,-0.03567597270011902,0.02635224536061287,-0.06766746193170547
1751013672131361300,7.182361328125,-0.03933382406830788,0.005701827816665173,-0.06096534803509712
1751013672141304300,7.19230419921875,-0.041851308196783066,-0.014856976456940174,-0.056951697915792465
1751013672151248100,7.202248046875,-0.04075542092323303,-0.028612203896045685,-0.05147064849734306
1751013672161191200,7.212191162109375,-0.03466370329260826,-0.027289144694805145,-0.04153625667095184
1751013672171134200,7.22213427734375,-0.02779487892985344,-0.01131204329431057,-0.0400715209543705
1751013672181078300,7.232078369140625,-0.017791779711842537,0.004802744835615158,-0.04042758420109749
1751013672191021300,7.242021240234375,-0.01185133308172226,0.020801683887839317,-0.045765090733766556
1751013672200965000,7.251965087890625,-0.01019990723580122,0.033237580209970474,-0.05356469005346298
1751013672210908200,7.261908203125,-0.015078552067279816,0.055998288094997406,-0.0484575480222702
1751013672220852500,7.2718525390625,-0.025682194158434868,0.06688981503248215,-0.042096056044101715
1751013672230795300,7.281795166015625,-0.033965688198804855,0.06451161205768585,-0.03201732039451599
1751013672240738000,7.291738037109375,-0.04073491320014,0.06494011729955673,-0.013884656131267548
1751013672250682400,7.301682373046875,-0.04370540380477905,0.07063555717468262,-0.0008404936525039375
1751013672260625400,7.31162548828125,-0.04604179412126541,0.0761573538184166,0.0038661109283566475
1751013672270569200,7.3215693359375,-0.04737070947885513,0.07840798795223236,0.002945456188172102
1751013672280512300,7.33151220703125,-0.042384739965200424,0.07328353822231293,-0.016167251393198967
1751013672290455300,7.341455322265625,-0.03664163500070572,0.06238987296819687,-0.042086731642484665
1751013672300399400,7.3513994140625,-0.03188709169626236,0.04511874169111252,-0.07142677903175354
1751013672310342400,7.36134228515625,-0.02754880301654339,0.03322799503803253,-0.08803185075521469
1751013672320286200,7.3712861328125,-0.02611309289932251,0.03422641381621361,-0.08861535042524338
1751013672330229200,7.381229248046875,-0.032945964485406876,0.03435051813721657,-0.0791451558470726
1751013672340173300,7.39117333984375,-0.040468063205480576,0.023924773558974266,-0.06314355134963989
1751013672350116400,7.401116455078125,-0.04465828090906143,0.0178208090364933,-0.047325171530246735
1751013672360059100,7.41105908203125,-0.044439371675252914,0.023960459977388382,-0.037153761833906174
1751013672370003200,7.421003173828125,-0.03906963765621185,0.04201402887701988,-0.021893581375479698
1751013672379946200,7.4309462890625,-0.027186879888176918,0.05958583205938339,-0.015907060354948044
1751013672389890300,7.440890380859375,-0.01338478084653616,0.06949039548635483,-0.02286323718726635
1751013672399833000,7.4508330078125,-0.01203828677535057,0.05339211970567703,-0.03159121423959732
1751013672409777200,7.460777099609375,-0.013085974380373955,0.02179131470620632,-0.03761262446641922
1751013672419720200,7.47072021484375,-0.010779676958918571,-0.004318581894040108,-0.042695533484220505
1751013672429663200,7.480663330078125,-0.013728328980505466,-0.014415957033634186,-0.049182724207639694
1751013672439607300,7.490607177734375,-0.028652682900428772,-0.01636991836130619,-0.04888258874416351
1751013672449550000,7.500550048828125,-0.030183734372258186,-0.013667075894773006,-0.04472166672348976
1751013672459494400,7.510494384765625,-0.02215377241373062,-0.00427171029150486,-0.037633396685123444
1751013672469437400,7.5204375,-0.013028716668486595,0.006396912969648838,-0.032760608941316605
1751013672479380500,7.53038037109375,-0.012532036751508713,0.015141136012971401,-0.023999609053134918
1751013672489324300,7.54032421875,-0.018876219168305397,0.017662083730101585,-0.0018602180061861873
1751013672499267300,7.550267333984375,-0.035110849887132645,0.006196909584105015,0.018620289862155914
1751013672509211400,7.56021142578125,-0.043717652559280396,0.0028431906830519438,0.03374278172850609
1751013672519154400,7.570154541015625,-0.03260881081223488,0.008945025503635406,0.04078338295221329
1751013672529098200,7.58009814453125,-0.02834082767367363,0.005224855616688728,0.034985415637493134
1751013672539041300,7.590041259765625,-0.023909593001008034,-0.0010093380697071552,0.013202887028455734
1751013672548984300,7.599984375,-0.011079282499849796,0.0046568033285439014,-0.0114001939073205
1751013672558928100,7.60992822265625,-0.005562810692936182,0.0012804478174075484,-0.03879266977310181
1751013672568871400,7.619871337890625,-0.005830192007124424,-0.014023940078914165,-0.0590505376458168
1751013672578815500,7.6298154296875,-0.006798783782869577,-0.02718927711248398,-0.06512334197759628
1751013672588758500,7.639758544921875,-0.014484400860965252,-0.027596473693847656,-0.06698063015937805
1751013672598702300,7.649702392578125,-0.023563915863633156,-0.030950192362070084,-0.045456431806087494
1751013672608645400,7.659645263671875,-0.030361900106072426,-0.030010363087058067,-0.018820293247699738
1751013672618588400,7.66958837890625,-0.023388680070638657,-0.013537646271288395,0.014427941292524338
1751013672628532500,7.679532470703125,-0.018522018566727638,0.0026176210958510637,0.035479962825775146
1751013672638475500,7.6894755859375,-0.01967783086001873,0.010431601665914059,0.04689214006066322
1751013672648419600,7.699419677734375,-0.018699118867516518,-0.0030341395176947117,0.0431879498064518
1751013672658362600,7.709362548828125,-0.01745249330997467,-0.010116816498339176,0.02468270994722843
1751013672668306700,7.719306640625,-0.01835503801703453,-0.02895442023873329,0.013713149353861809
1751013672678249500,7.72924951171875,-0.016994962468743324,-0.04766525700688362,0.0065292720682919025
1751013672688192500,7.739192626953125,-0.013019395060837269,-0.05332953482866287,0.003495132550597191
1751013672698136600,7.749136474609375,-0.0026530411560088396,-0.049141447991132736,0.008347944356501102
1751013672708079600,7.75907958984375,0.0001358212175546214,-0.030309170484542847,0.019277824088931084
1751013672718023400,7.7690234375,-0.0032501218374818563,-0.009622001089155674,0.028186097741127014
1751013672727966500,7.778966552734375,-0.007413974031805992,-0.000474575295811519,0.029570408165454865
1751013672737909500,7.788909423828125,-0.00555162550881505,0.0006942860782146454,0.019222164526581764
1751013672747853600,7.798853515625,-0.008023305796086788,-0.008592955768108368,-0.007527690846472979
1751013672757796600,7.808796630859375,-0.017256485298275948,-0.01324150338768959,-0.03598356619477272
1751013672767740400,7.818740478515625,-0.0196839552372694,-0.01565219648182392,-0.05721615254878998
1751013672777683500,7.828683349609375,-0.02449335902929306,-0.024215590208768845,-0.06506608426570892
1751013672787627500,7.83862744140625,-0.025143437087535858,-0.024772191420197487,-0.06818544864654541
1751013672797570600,7.848570556640625,-0.028500882908701897,-0.010872354730963707,-0.061969093978405
1751013672807513600,7.858513671875,-0.02870514802634716,0.011344000697135925,-0.05107277259230614
1751013672817457400,7.86845751953125,-0.03494599834084511,0.03136298432946205,-0.041062213480472565
1751013672827400400,7.878400390625,-0.032406143844127655,0.04312429949641228,-0.03245088458061218
1751013672837344500,7.888344482421875,-0.02479669265449047,0.04935130476951599,-0.030103040859103203
1751013672847287300,7.898287353515625,-0.015993880107998848,0.04656563699245453,-0.0251008253544569
1751013672857231600,7.908231689453125,-0.009523996151983738,0.03711754083633423,-0.021999308839440346
1751013672867174700,7.918174560546875,-0.001127848750911653,0.02569391205906868,-0.027846012264490128
1751013672877117700,7.92811767578125,0.005533515941351652,0.02118837647140026,-0.025296302512288094
1751013672887061500,7.9380615234375,0.010480071417987347,0.022002769634127617,-0.020062124356627464
1751013672897004500,7.948004638671875,0.014125938527286053,0.003326554549857974,-0.012114186771214008
1751013672906948600,7.957948486328125,0.01786927878856659,0.015017032623291016,-0.008431301452219486
1751013672916891600,7.9678916015625,0.018366223201155663,0.026256904006004333,-0.010488327592611313
1751013672926834700,7.977834716796875,0.013421799056231976,-0.003748665563762188,-0.008637696504592896
1751013672936778500,7.987778564453125,0.009889115579426289,-0.013644971884787083,-0.010626811534166336
1751013672946721500,7.997721435546875,0.0028045750223100185,-0.006411560345441103,-0.007741542998701334
1751013672956665600,8.00766552734375,-0.005112736485898495,-0.00044528054422698915,-0.004226702731102705
1751013672966608600,8.017608642578125,-0.00749067310243845,0.005366535857319832,0.0028597023338079453
1751013672976552400,8.027552490234376,0.0013214604696258903,0.01696034148335457,0.002014415105804801
1751013672986495500,8.03749560546875,0.009559416212141514,0.023301860317587852,-0.007391337305307388
1751013672996438500,8.0474384765625,0.025468608364462852,0.020651215687394142,-0.03220640495419502
1751013673006382600,8.057382568359374,0.041617218405008316,0.02340865321457386,-0.06507114320993423
1751013673016325400,8.067325439453125,0.05752747505903244,0.03393399715423584,-0.0821651741862297
1751013673026269400,8.07726953125,0.07817789167165756,0.046962447464466095,-0.09697235375642776
1751013673036212500,8.08721240234375,0.13632641732692719,0.020603278651833534,-0.11617986857891083
1751013673046156300,8.09715625,0.11638333648443222,0.054179348051548004,-0.13071833550930023
1751013673056099300,8.107099365234374,0.044084105640649796,0.10486649721860886,-0.1373394876718521
1751013673066042400,8.11704248046875,-0.013485981151461601,0.11756151914596558,-0.11233533173799515
1751013673075986700,8.126986572265626,-0.038484010845422745,0.11608479171991348,-0.0812583714723587
1751013673085929700,8.1369296875,-0.036785710602998734,0.10025309771299362,-0.038360171020030975
1751013673095873500,8.14687353515625,-0.028124578297138214,0.0664549246430397,-0.004552674014121294
1751013673105816600,8.156816650390626,-0.028056934475898743,0.03644296154379845,0.0207500196993351
1751013673115760600,8.1667607421875,-0.022298913449048996,0.01353524997830391,0.03485118970274925
1751013673125703700,8.17670361328125,-0.018380338326096535,-0.002531600883230567,0.050098586827516556
1751013673135646500,8.186646484375,-0.0196852870285511,-0.027878236025571823,0.055151134729385376
1751013673145590500,8.196590576171875,-0.01967277005314827,-0.0428428053855896,0.05143389478325844
1751013673155533600,8.206533447265626,-0.0059718722477555275,-0.046245258301496506,0.03632897883653641
1751013673165477600,8.2164775390625,0.008974320255219936,-0.05373513326048851,0.019512448459863663
1751013673175420400,8.22642041015625,0.0212983638048172,-0.05847316235303879,0.006384395994246006
1751013673185363500,8.236363525390624,0.02726224809885025,-0.04619625583291054,-0.0005315669695846736
1751013673195307500,8.2463076171875,0.02972167730331421,-0.023968448862433434,-0.0021470405627042055
1751013673205250600,8.25625048828125,0.03188842535018921,-0.002205097349360585,-0.006140716839581728
1751013673215194400,8.2661943359375,0.03560592979192734,0.017787519842386246,-0.0038064562249928713
1751013673225137400,8.276137451171875,0.03062448836863041,0.028970930725336075,-0.007428088691085577
1751013673235081500,8.28608154296875,0.024535436183214188,0.032639969140291214,-0.016865000128746033
1751013673245024500,8.2960244140625,0.012949620373547077,0.03887522593140602,-0.026084331795573235
1751013673254967600,8.305967529296876,0.007750065065920353,0.03928855061531067,-0.03037974424660206
1751013673264911400,8.315911376953125,0.0018788601737469435,0.02743428759276867,-0.0365806482732296
1751013673274854400,8.3258544921875,-0.0007355650886893272,0.012806076556444168,-0.0380786769092083
1751013673284798700,8.335798828125,-0.005963616538792849,0.003710582386702299,-0.04122333601117134
1751013673294741500,8.345741455078125,-0.007420898415148258,0.007481884676963091,-0.038053374737501144
1751013673304685600,8.355685546875,-0.012612997554242611,0.013019927777349949,-0.0279123242944479
1751013673314628600,8.365628662109375,-0.01733451522886753,0.02576608397066593,-0.014959242194890976
1751013673324571600,8.375571533203125,-0.015328888781368732,0.035894084721803665,-0.0041057956404984
1751013673334515500,8.385515380859376,-0.013766944408416748,0.03851436823606491,0.0014085458824411035
1751013673344458500,8.39545849609375,-0.007237140089273453,0.03338512033224106,-0.004518052563071251
1751013673354402600,8.405402587890626,0.0013249226612970233,0.030486537143588066,-0.017539845779538155
1751013673364345600,8.415345703125,0.0068331388756632805,0.030353911221027374,-0.030058832839131355
1751013673374288600,8.42528857421875,0.003575826296582818,0.02491760067641735,-0.031188812106847763
1751013673384232400,8.435232421875,-0.01284495834261179,0.012253204360604286,-0.031245270743966103
1751013673394175500,8.445175537109375,-0.04391073063015938,0.011244398541748524,-0.016947824507951736
1751013673404119600,8.45511962890625,-0.06845788657665253,0.00552206439897418,0.019357452169060707
1751013673414062600,8.4650625,-0.07659117877483368,-0.009616142138838768,0.062256451696157455
1751013673424006400,8.47500634765625,-0.06862007081508636,-0.023901604115962982,0.0977068543434143
1751013673433949400,8.484949462890626,-0.06267563253641129,-0.026091787964105606,0.13166135549545288
1751013673443892500,8.494892578125,-0.047925446182489395,-0.018687400966882706,0.15391525626182556
1751013673453836500,8.50483642578125,-0.036678384989500046,-0.015679627656936646,0.16226108372211456
1751013673463779300,8.514779296875,-0.01731853559613228,0.002685531508177519,0.15657202899456024
1751013673473723400,8.524723388671875,-0.009182313457131386,-0.015558453276753426,0.14831890165805817
1751013673483666400,8.53466650390625,-0.015222362242639065,-0.0232270248234272,0.13338148593902588
1751013673493610500,8.544610595703125,-0.018928950652480125,-0.0031523837242275476,0.11480807512998581
1751013673503553500,8.554553466796875,-0.018026137724518776,0.004688494838774204,0.098777174949646
1751013673513496300,8.564496337890626,-0.016448747366666794,0.014169614762067795,0.07678239792585373
1751013673523440600,8.574440673828125,-0.014762434177100658,0.015237542800605297,0.065031997859478
1751013673533383700,8.5843837890625,-0.0018849853659048676,0.04902853071689606,0.0579565092921257
1751013673543327500,8.594327392578125,-0.011658786796033382,0.02726517617702484,0.057683803141117096
1751013673553270500,8.6042705078125,-0.014613830484449863,0.013103284873068333,0.04854250326752663
1751013673563214600,8.614214599609374,-0.009845972992479801,0.00640703272074461,0.038552187383174896
1751013673573156900,8.624156982421875,-0.004205664154142141,-0.011546134948730469,0.023802800104022026
1751013673583100000,8.634099853515625,0.00006285060226218775,-0.0350184366106987,0.006209160201251507
1751013673593043700,8.644043701171874,0.0020386497490108013,-0.047396011650562286,-0.011659585870802402
1751013673602986800,8.65398681640625,-0.0036852823104709387,-0.051483962684869766,-0.031632229685783386
1751013673612930800,8.663930908203126,-0.008511463180184364,-0.03419871628284454,-0.04325852543115616
1751013673622873900,8.673873779296875,-0.01955772191286087,-0.0048829056322574615,-0.046251118183135986
1751013673632817700,8.683817626953125,-0.020383834838867188,0.009410546161234379,-0.04252801835536957
1751013673642760700,8.6937607421875,-0.023333551362156868,0.02942872792482376,-0.04363003373146057
1751013673652703700,8.703703857421875,-0.020246149972081184,0.04484497010707855,-0.05152790620923042
1751013673662648000,8.71364794921875,-0.018608039245009422,0.042695797979831696,-0.05380304530262947
1751013673672590800,8.7235908203125,-0.01569880172610283,0.02484116703271866,-0.04448650777339935
1751013673682535000,8.733534912109375,-0.01110165286809206,0.017845842987298965,-0.04249845817685127
1751013673692478000,8.74347802734375,-0.007001716643571854,0.009734652936458588,-0.03393719345331192
1751013673702422000,8.753422119140625,-0.00267674308270216,0.021433386951684952,-0.017140105366706848
1751013673712364800,8.76336474609375,-0.001445830101147294,0.0010165285784751177,0.00827710423618555
1751013673722307800,8.773307861328124,0.0010226538870483637,-0.006878678686916828,0.028861476108431816
1751013673732252000,8.783251953125,0.004247209057211876,0.006626477465033531,0.038665104657411575
1751013673742195000,8.79319482421875,0.010278736241161823,0.01847807690501213,0.04241430386900902
1751013673752138800,8.803138671875,0.005388107616454363,0.02514902874827385,0.03771249204874039
1751013673762081800,8.813081787109375,0.014394385740160942,0.03851303830742836,0.027235882356762886
1751013673772025900,8.82302587890625,0.017675133422017097,0.04625378176569939,0.014755776152014732
1751013673781969000,8.832968994140625,0.017619740217924118,0.04813264310359955,0.008782838471233845
1751013673791912000,8.842911865234376,0.011039867997169495,0.04922240599989891,0.004834702704101801
1751013673801855700,8.852855712890625,0.010655307210981846,0.04246623441576958,0.0046331011690199375
1751013673811798800,8.862798828125,0.00646668765693903,0.03710901737213135,0.012189820408821106
1751013673821742800,8.872742919921874,0.005368399899452925,0.03899160772562027,0.021621139720082283
1751013673831686000,8.882685791015625,0.0036101811565458775,0.0434233732521534,0.019964920356869698
1751013673841628700,8.892628662109376,0.004990497604012489,0.045101430267095566,0.010995126329362392
1751013673851572700,8.90257275390625,0.005305283237248659,0.03484666347503662,-0.008621984161436558
1751013673861515800,8.912515869140625,0.004776911810040474,0.021195566281676292,-0.03459419682621956
1751013673871459800,8.9224599609375,0.0010759170399978757,0.007380950730293989,-0.04939631000161171
1751013673881402600,8.932402587890625,-0.00003808320252574049,0.0011209244839847088,-0.05645422264933586
1751013673891347000,8.942346923828126,0.0036069853231310844,0.0009126652730628848,-0.048162203282117844
1751013673901290000,8.9522900390625,0.006173740141093731,0.012445484288036823,-0.028354676440358162
1751013673911233000,8.96223291015625,0.00833675917237997,0.03045431151986122,-0.0006093312404118478
1751013673921176800,8.9721767578125,0.017649566754698753,0.042454514652490616,0.02569950371980667
1751013673931119900,8.982119873046875,0.027689151465892792,0.050819769501686096,0.03578516095876694
1751013673941064000,8.99206396484375,0.03893062099814415,0.05260861665010452,0.044084902852773666
1751013673951007000,9.002007080078124,0.0441240519285202,0.03789305314421654,0.042390868067741394
1751013673960950800,9.01195068359375,0.04977261647582054,0.022952187806367874,0.027455059811472893
1751013673970893800,9.021893798828126,0.046072687953710556,0.0070397998206317425,0.01715528406202793
1751013673980836900,9.0318369140625,0.039865922182798386,-0.005130579695105553,0.01264042779803276
1751013673990781000,9.041781005859375,0.0419895276427269,-0.015673767775297165,0.01732998713850975
1751013674000723700,9.0517236328125,0.04621250182390213,-0.016997359693050385,0.02394581213593483
1751013674010667800,9.061667724609375,0.04914624243974686,-0.01690095290541649,0.027572238817811012
1751013674020610800,9.07161083984375,0.04586176574230194,-0.017225325107574463,0.022881347686052322
1751013674030555000,9.081554931640625,0.04093971103429794,-0.012650813907384872,0.013021525926887989
1751013674040497700,9.09149755859375,0.032463133335113525,-0.008330101147294044,0.00350365461781621
1751013674050440700,9.101440673828124,0.020436033606529236,-0.0052352421917021275,-0.004706604406237602
1751013674060384800,9.111384765625,0.012765862978994846,0.0046272422187030315,-0.0011499529937282205
1751013674070327800,9.121327880859376,0.004480235744267702,0.006025668233633041,0.005260542035102844
1751013674080272000,9.13127197265625,0.002968891989439726,0.008782572112977505,0.012835904024541378
1751013674090215000,9.14121484375,0.00017976337403524667,0.017835190519690514,0.010297378525137901
1751013674100159000,9.151158935546874,0.0031342741567641497,0.023265108466148376,0.007641940843313932
1751013674110102000,9.16110205078125,0.0009872338268905878,0.025846777483820915,-0.006436061579734087
1751013674120045000,9.171045166015626,0.011167965829372406,0.029337914660573006,-0.020653346553444862
1751013674129988900,9.18098876953125,0.013827398419380188,0.0325361043214798,-0.03205327317118645
1751013674139932000,9.190931884765625,0.015607988461852074,0.023750070482492447,-0.029525667428970337
1751013674149876000,9.2008759765625,0.014121411368250847,0.004268248099833727,-0.020474914461374283
1751013674159819000,9.210819091796875,0.009701362811028957,-0.010324542410671711,-0.005084507167339325
1751013674169762800,9.2207626953125,0.003166232258081436,-0.011665711179375648,0.012835637666285038
1751013674179705900,9.230705810546874,0.0007757788407616317,-0.007120760157704353,0.026757577434182167
1751013674189649000,9.24064892578125,-0.0006807039608247578,-0.0012274509062990546,0.041910432279109955
1751013674199592700,9.2505927734375,-0.005554821342229843,0.004664260428398848,0.046124085783958435
1751013674209535700,9.26053564453125,-0.00398755120113492,0.011960255913436413,0.040954090654850006
1751013674219479800,9.270479736328125,-0.0006809702608734369,0.015663648024201393,0.03063300997018814
1751013674229422800,9.2804228515625,0.003388606244698167,0.029642580077052116,0.009457684122025967
1751013674239366000,9.290365966796875,0.009632387198507786,0.03781156241893768,-0.008129831403493881
1751013674249309700,9.300309814453126,0.015271364711225033,0.0461624339222908,-0.013074789196252823
1751013674259252700,9.310252685546875,0.016394952312111855,0.043110452592372894,-0.02569843828678131
1751013674269196800,9.32019677734375,0.015503591857850552,0.02592906914651394,-0.03706960380077362
1751013674279139800,9.330139892578124,0.011091533116996288,0.002241050126031041,-0.047038350254297256
1751013674289084000,9.340083984375,0.0062855929136276245,-0.006690126843750477,-0.04843704029917717
1751013674299027000,9.35002685546875,-0.002615756820887327,-0.0025505092926323414,-0.03779984265565872
1751013674308971000,9.359970947265625,-0.014053767547011375,0.0036253612488508224,-0.029857497662305832
1751013674318914000,9.3699140625,-0.015516641549766064,0.013288907706737518,-0.023789219558238983
1751013674328856800,9.37985693359375,-0.013609551824629307,0.01870551146566868,-0.02154470607638359
1751013674338801000,9.38980078125,-0.015004782006144524,0.021932462230324745,-0.024119718000292778
1751013674348744000,9.399743896484376,-0.009572465904057026,0.02491866610944271,-0.019604859873652458
1751013674358688000,9.40968798828125,-0.010514426045119762,0.022599585354328156,-0.014312626793980598
1751013674368630800,9.419630859375,-0.010734403505921364,0.02232927456498146,-0.0038637141697108746
1751013674378573800,9.42957373046875,-0.016655409708619118,0.01751134917140007,0.0024349282030016184
1751013674388518000,9.439517822265625,-0.016087889671325684,0.013275858014822006,0.0079133166000247
1751013674398461000,9.4494609375,-0.013007677160203457,0.021336181089282036,0.017287643626332283
1751013674408404700,9.45940478515625,-0.004719920456409454,0.03273983672261238,0.016102803871035576
1751013674418347800,9.46934765625,0.0031137678306549788,0.038349252194166183,0.01372033916413784
1751013674428291800,9.479291748046874,0.0032658344134688377,0.033610958606004715,-0.00046365635353140533
1751013674438235000,9.48923486328125,-0.0015880429418757558,0.02166374959051609,-0.006907174363732338
1751013674448178000,9.499177978515625,-0.0007768440991640091,0.013194099068641663,-0.013708621263504028
1751013674458121700,9.509121826171874,-0.007950334809720516,0.005652293097227812,-0.008293616585433483
1751013674468064800,9.519064697265625,-0.009109608829021454,0.008813198655843735,0.005881591234356165
1751013674478008800,9.5290087890625,-0.010448645800352097,0.01932149939239025,0.02599644660949707
1751013674487952000,9.538951904296875,-0.0070496536791324615,0.027631627395749092,0.04451367259025574
1751013674497896000,9.54889599609375,-0.0011946940794587135,0.038423821330070496,0.0482756532728672
1751013674507839000,9.5588388671875,0.0009084042394533753,0.04633340984582901,0.039923980832099915
1751013674517781800,9.56878173828125,0.006271477788686752,0.0516996793448925,0.02581428736448288
1751013674527725800,9.578725830078126,0.007328486535698175,0.04472832381725311,0.008598548360168934
1751013674537668900,9.5886689453125,0.005404619034379721,0.025600168853998184,-0.012344017624855042
1751013674547613000,9.598613037109375,0.000693220819812268,0.004463457968086004,-0.022845927625894547
1751013674557556000,9.608555908203124,-0.008174839429557323,-0.014801316894590855,-0.026766633614897728
1751013674567499800,9.618499755859375,-0.007583084981888533,-0.013400760479271412,-0.02509070560336113
1751013674577443800,9.62844384765625,-0.012552809901535511,0.0028594359755516052,-0.009443835355341434
1751013674587386600,9.63838671875,-0.016148343682289124,0.021037906408309937,0.0027060380671173334
1751013674597330700,9.64833056640625,-0.016872456297278404,0.041256360709667206,0.00646588858217001
1751013674607273700,9.658273681640624,-0.012735769152641296,0.04490862041711807,-0.004968126770108938
1751013674617217800,9.6682177734375,-0.013228720054030418,0.03316833823919296,-0.021562550216913223
1751013674627160800,9.678160888671876,-0.020142551511526108,0.016953149810433388,-0.03853221237659454
1751013674637104600,9.688104736328125,-0.012013785541057587,0.015368036925792694,-0.03796203061938286
1751013674647047700,9.698047607421875,-0.01733691245317459,-0.006608101539313793,-0.028483306989073753
1751013674656990700,9.70799072265625,-0.023723438382148743,-0.0028277444653213024,-0.0273250974714756
1751013674666934800,9.717934814453125,-0.022541794925928116,0.01128061767667532,-0.01919420063495636
1751013674676877800,9.7278779296875,-0.02257215417921543,0.01684822142124176,-0.014646586962044239
1751013674686821600,9.737821533203125,-0.0222025066614151,0.021075457334518433,-0.023265907540917397
1751013674696764700,9.7477646484375,-0.030950991436839104,0.020490095019340515,-0.042387671768665314
1751013674706708700,9.757708740234374,-0.045340582728385925,-0.005394499283283949,-0.04969511926174164
1751013674716651800,9.76765185546875,-0.052806224673986435,-0.037097033113241196,-0.050691671669483185
1751013674726594600,9.777594482421875,-0.0540216900408268,-0.04964398592710495,-0.04043903574347496
1751013674736538600,9.78753857421875,-0.05377454683184624,-0.03516145050525665,-0.022123944014310837
1751013674746481700,9.797481689453125,-0.04523405805230141,0.004802478477358818,-0.00857591163367033
1751013674756425700,9.80742578125,-0.046006105840206146,0.05729151889681816,-0.004426972474902868
1751013674766368500,9.817368408203125,-0.04177514463663101,0.11165542155504227,-0.010083792731165886
1751013674776312800,9.827312744140626,-0.039382025599479675,0.1573222428560257,-0.028655879199504852
1751013674786256000,9.837255859375,-0.02907346375286579,0.184085413813591,-0.050212036818265915
1751013674796198700,9.84719873046875,-0.027397535741329193,0.17017225921154022,-0.05925559997558594
1751013674806142700,9.857142822265626,-0.034928690642118454,0.13295991718769073,-0.05681508034467697
1751013674816085800,9.867085693359375,-0.03543735295534134,0.08283043652772903,-0.03999242186546326
1751013674826029800,9.87702978515625,-0.027881432324647903,0.04819389432668686,-0.019352393224835396
1751013674835972900,9.886972900390624,-0.023030217736959457,0.016986174508929253,0.0024884575977921486
1751013674845916700,9.896916748046875,-0.01347479596734047,0.001047154888510704,0.01763731613755226
1751013674855859700,9.906859619140626,-0.008777512237429619,-0.01221565343439579,0.021144699305295944
1751013674865802800,9.916802734375,-0.00942226406186819,-0.030545659363269806,0.01098527293652296
1751013674875746800,9.926746826171875,-0.007969776168465614,-0.03957270830869675,-0.0029084382113069296
1751013674885689900,9.93668994140625,-0.0015899071004241705,-0.03765656426548958,-0.025138376280665398
1751013674895633700,9.946633544921875,0.005306880921125412,-0.03328205645084381,-0.051309261471033096
1751013674905576700,9.95657666015625,0.005104747135192156,-0.03136564418673515,-0.06952128559350967
1751013674915520800,9.966520751953125,0.004542287439107895,-0.0164165236055851,-0.07588943839073181
1751013674925463600,9.976463623046875,0.007863249629735947,-0.0022085595410317183,-0.07607346028089523
1751013674935406600,9.986406494140626,0.013948839157819748,0.011658254079520702,-0.06118372827768326
1751013674945350700,9.9963505859375,0.02466246858239174,0.02245390973985195,-0.03796948492527008
1751013674955293700,10.006293701171876,0.029348034411668777,0.022297315299510956,-0.008387359790503979
1751013674965237500,10.016237548828125,0.029107019305229187,0.013306750915944576,0.017433319240808487
1751013674975180500,10.0261806640625,0.024410001933574677,0.006072806194424629,0.04183772951364517
1751013674985124900,10.036124755859374,0.01751188188791275,0.0005874933558516204,0.06616836786270142
1751013674995068000,10.04606787109375,0.00837031565606594,-0.0057226005010306835,0.08239181339740753
1751013675005011000,10.056010986328126,0.0016330503858625889,-0.00020639497961383313,0.08492927253246307
1751013675014954800,10.065954833984375,-0.0025800704024732113,0.011265171691775322,0.07712940871715546
1751013675024897800,10.075897705078125,-0.0030101709999144077,0.02431146427989006,0.06047053262591362
1751013675034841900,10.085841796875,-0.00512951472774148,0.03207670897245407,0.04009442403912544
1751013675044785000,10.095784912109375,-0.00743075180798769,0.036254145205020905,0.014225275255739689
1751013675054728700,10.105728759765626,-0.003724963404238224,0.040292829275131226,-0.007242466323077679
1751013675064671700,10.115671630859374,-0.007157777901738882,0.0366661362349987,-0.025228124111890793
1751013675074614800,10.12561474609375,-0.005596366710960865,0.02708088606595993,-0.03310096263885498
1751013675084558800,10.135558837890626,-0.001517469179816544,0.023913055658340454,-0.033612288534641266
1751013675094501600,10.145501708984375,0.002561694709584117,0.012644155882298946,-0.019287943840026855
1751013675104445700,10.15544580078125,0.013273460790514946,0.003824033075943589,-0.006641923915594816
1751013675114388700,10.165388671875,0.018679412081837654,-0.0023150858469307423,0.0007789746159687638
1751013675124332500,10.17533251953125,0.022876819595694542,0.0049010151997208595,0.013816745951771736
1751013675134275600,10.185275634765626,0.027346402406692505,0.008287757635116577,0.0189630389213562
1751013675144218600,10.195218505859375,0.028439098969101906,0.0018154769204556942,0.015730759128928185
1751013675154162700,10.20516259765625,0.027056651189923286,0.0011709919199347496,0.004327636677771807
1751013675164105700,10.215105712890624,0.026188461109995842,-0.002852511825039983,-0.01357333268970251
1751013675174049500,10.225049560546875,0.02863670513033867,-0.004729773849248886,-0.023910658434033394
1751013675183992600,10.23499267578125,0.024230238050222397,-0.008842493407428265,-0.0294343214482069
1751013675193937000,10.24493701171875,0.024213194847106934,-0.0009257147903554142,-0.03557717055082321
1751013675203880000,10.2548798828125,0.02454795315861702,0.002965962514281273,-0.04001506045460701
1751013675213822700,10.26482275390625,0.02835254557430744,0.005153216887265444,-0.04423270747065544
1751013675223766800,10.274766845703125,0.02563345804810524,0.004752144683152437,-0.04705246165394783
1751013675233709800,10.284709716796876,0.023968182504177094,0.01287798210978508,-0.041496310383081436
1751013675243654000,10.29465380859375,0.020081300288438797,0.021734589710831642,-0.035465583205223083
1751013675253596700,10.3045966796875,0.015478026121854782,0.02701750211417675,-0.024320784956216812
1751013675263540700,10.314540771484374,0.006328469607979059,0.037449102848768234,-0.01793399266898632
1751013675273483800,10.32448388671875,-0.005367334932088852,0.050390470772981644,-0.011891280300915241
1751013675283426800,10.3344267578125,-0.008054197765886784,0.05634529888629913,-0.004437092691659927
1751013675293370600,10.34437060546875,-0.0068238177336752415,0.05492210388183594,0.0041401502676308155
1751013675303313700,10.354313720703125,-0.0019835224375128746,0.0496320016682148,0.010987403802573681
1751013675313257700,10.3642578125,0.0010519486386328936,0.046308908611536026,0.008987103588879108
1751013675323200800,10.37420068359375,0.010884871706366539,0.0481233187019825,0.007250189781188965
1751013675333144600,10.38414453125,0.016814133152365685,0.041193775832653046,-0.0034091125708073378
1751013675343087600,10.394087646484374,0.021621139720082283,0.033973678946495056,-0.011513643898069859
1751013675353030700,10.40403076171875,0.02172926440834999,0.01728205196559429,-0.023199062794446945
1751013675362974700,10.413974609375,0.01347666047513485,0.013685451820492744,-0.02479615993797779
1751013675372917800,10.423917724609375,0.006962035782635212,0.019219767302274704,-0.010528274811804295
1751013675382861600,10.433861572265625,0.0012444951571524143,0.030001841485500336,0.0020152139477431774
1751013675392804600,10.4438046875,-0.0028040423057973385,0.03937137499451637,0.012376242317259312
1751013675402749000,10.4537490234375,-0.006140983197838068,0.04902772977948189,0.01979527622461319
1751013675412691700,10.463691650390626,-0.0023379891645163298,0.045875612646341324,0.019418172538280487
1751013675422634800,10.473634765625,0.004211523104459047,0.04727936536073685,0.01739097386598587
1751013675432578800,10.483578857421875,0.013523532077670097,0.03453826904296875,0.004181961994618177
1751013675442521900,10.49352197265625,0.018670624122023582,0.01830364018678665,-0.00148125016130507
1751013675452465700,10.503465576171875,0.028898227959871292,-0.002062085550278425,-0.01025503408163786
1751013675462408700,10.51340869140625,0.03165007010102272,-0.011720571666955948,-0.01124945841729641
1751013675472352800,10.523352783203125,0.03919427469372749,-0.01690548099577427,0.004727643448859453
1751013675482295800,10.5332958984375,0.04495362564921379,-0.016641560941934586,0.015911588445305824
1751013675492238800,10.54323876953125,0.047083888202905655,-0.007837682962417603,0.03651167079806328
1751013675502182700,10.5531826171875,0.04904850199818611,0.003549993736669421,0.05380011349916458
1751013675512125700,10.563125732421875,0.04844050481915474,0.01588043011724949,0.06125563383102417
1751013675522069800,10.57306982421875,0.047869253903627396,0.03881371021270752,0.04343828931450844
1751013675532012800,10.5830126953125,0.04271071031689644,0.04392671212553978,0.01877661794424057
1751013675541956600,10.59295654296875,0.033065807074308395,0.04478318244218826,-0.007939149625599384
1751013675551899600,10.602899658203125,0.02694746106863022,0.054303716868162155,-0.032095883041620255
1751013675561842700,10.6128427734375,0.018250375986099243,0.06095709279179573,-0.054776694625616074
1751013675571790300,10.622790283203125,0.008734902366995811,0.07743833214044571,-0.05849100649356842
1751013675581732900,10.63273291015625,0.0035095135681331158,0.09386364370584488,-0.05500306561589241
1751013675591677200,10.64267724609375,-0.008807339705526829,0.09576380997896194,-0.05106957629323006
1751013675601620200,10.6526201171875,-0.019834958016872406,0.10454265773296356,-0.04309820011258125
1751013675611564000,10.66256396484375,-0.02177879773080349,0.1247645691037178,0.0006141249323263764
1751013675621507000,10.672507080078125,-0.019365442916750908,0.13948465883731842,0.025951972231268883
1751013675631450000,10.6824501953125,-0.045766957104206085,0.23000763356685638,0.1385863721370697
1751013675641394200,10.692394287109375,-0.05783746764063835,0.1973399668931961,0.14981213212013245
1751013675651337200,10.702337158203125,-0.04650358483195305,0.10145524889230728,0.0747368186712265
1751013675661281000,10.712281005859374,0.0008135957177728415,0.023637153208255768,-0.014658571220934391
1751013675671224000,10.72222412109375,0.022823557257652283,-0.04532380402088165,-0.0570204071700573
1751013675681168100,10.732168212890626,0.03050144948065281,-0.07501379400491714,-0.064732126891613
1751013675691111200,10.742111083984375,0.04340260103344917,-0.1068263128399849,-0.08431754261255264
1751013675701054200,10.75205419921875,0.055318914353847504,-0.11847205460071564,-0.10588089376688004
1751013675710998000,10.761998046875,0.05210128426551819,-0.11312974989414215,-0.09583225101232529
1751013675720941000,10.771941162109375,0.039192941039800644,-0.08085330575704575,-0.04344814270734787
1751013675730885000,10.781885009765626,0.042208705097436905,0.02598792500793934,0.042989280074834824
