time,seconds_elapsed,z,y,x
1751013947553783300,0.121783203125,-0.053164150565862656,-0.017240505665540695,0.06897800415754318
1751013947563727400,0.131727294921875,-0.06141968443989754,-0.029685191810131073,0.07215568423271179
1751013947573671700,0.141671630859375,-0.07694937288761139,-0.04836114123463631,0.07234450429677963
1751013947583614500,0.151614501953125,-0.08917408436536789,-0.060873471200466156,0.06480616331100464
1751013947593558500,0.16155859375,-0.10641059279441833,-0.07079161703586578,0.03735802322626114
1751013947603502600,0.171502685546875,-0.11795327067375183,-0.0815579742193222,0.00018801917030941695
1751013947613445600,0.181445556640625,-0.12772147357463837,-0.0874832421541214,-0.0304575078189373
1751013947623389400,0.191389404296875,-0.1317143589258194,-0.07780371606349945,-0.04794728383421898
1751013947633332500,0.20133251953125,-0.13753868639469147,-0.06597688794136047,-0.06265166401863098
1751013947643276500,0.211276611328125,-0.14689436554908752,-0.06549698114395142,-0.07759173214435577
1751013947653220400,0.221220458984375,-0.15145502984523773,-0.07934728264808655,-0.08271698653697968
1751013947663163400,0.231163330078125,-0.15317517518997192,-0.10632883757352829,-0.07211999595165253
1751013947673107500,0.241107421875,-0.14884459972381592,-0.13142113387584686,-0.03876497223973274
1751013947683051300,0.25105126953125,-0.13955868780612946,-0.13523025810718536,-0.009188438765704632
1751013947692994300,0.260994384765625,-0.10956910252571106,-0.13532720506191254,0.0046719834208488464
1751013947702938600,0.270938720703125,-0.07323373109102249,-0.1228092759847641,0.006788930390030146
1751013947712881700,0.280881591796875,-0.03966272249817848,-0.10860610753297806,-0.006475476082414389
1751013947722825500,0.290825439453125,-0.022067751735448837,-0.08069298416376114,-0.036082103848457336
1751013947732769500,0.30076953125,-0.01404870767146349,-0.03666160628199577,-0.06547275185585022
1751013947742712600,0.310712646484375,-0.012200740166008472,-0.003790477057918906,-0.09734572470188141
1751013947752656400,0.320656494140625,-0.02388269640505314,-0.003495665267109871,-0.10681778937578201
1751013947762600400,0.330600341796875,-0.03886270895600319,-0.0010434264549985528,-0.07872969657182693
1751013947772543500,0.34054345703125,-0.03686267510056496,0.0015334481140598655,-0.02015347220003605
1751013947782487300,0.3504873046875,-0.0226224884390831,-0.009257414378225803,0.05685609206557274
1751013947792431400,0.360431396484375,0.002546780975535512,-0.01846769079566002,0.12595979869365692
1751013947802374400,0.37037451171875,0.03810637444257736,-0.0052261874079704285,0.17219918966293335
1751013947812318500,0.380318359375,0.0714118629693985,0.03171025961637497,0.1815793812274933
1751013947822261500,0.390261474609375,0.1021743044257164,0.0751836970448494,0.15408463776111603
1751013947832205600,0.40020556640625,0.12316640466451645,0.12074532359838486,0.10073646157979965
1751013947842149400,0.4101494140625,0.13690219819545746,0.14930053055286407,0.04086301103234291
1751013947852092400,0.420092529296875,0.15300020575523376,0.1541927605867386,0.000919323181733489
1751013947862036500,0.430036376953125,0.15780986845493317,0.14715775847434998,-0.00618066405877471
1751013947871980500,0.43998046875,0.1588604897260666,0.1310134083032608,0.018030399456620216
1751013947881923300,0.44992333984375,0.15594938397407532,0.10151916742324829,0.05474899709224701
1751013947891867400,0.459867431640625,0.14386609196662903,0.07492990046739578,0.09383248537778854
1751013947901811500,0.4698115234375,0.14361655712127686,0.05663877725601196,0.12828846275806427
1751013947911754500,0.47975439453125,0.14081330597400665,0.04392245039343834,0.15039536356925964
1751013947921698600,0.489698486328125,0.14925099909305573,0.04039109870791435,0.15479303896427155
1751013947931641600,0.4996416015625,0.1672888547182083,0.05777648091316223,0.15416720509529114
1751013947941585700,0.509585693359375,0.19793039560317993,0.08639800548553467,0.1662270575761795
1751013947951529500,0.519529541015625,0.23260022699832916,0.1360638290643692,0.1954919993877411
1751013947961472500,0.529472412109375,0.25090253353118896,0.2252698689699173,0.24029675126075745
1751013947971416600,0.53941650390625,0.2228860706090927,0.32312825322151184,0.2703627943992615
1751013947981360400,0.5493603515625,0.16642706096172333,0.36839932203292847,0.25298672914505005
1751013947991303400,0.559303466796875,0.0852925255894661,0.35512426495552063,0.18900693953037262
1751013948001247500,0.56924755859375,0.016589095816016197,0.2742390036582947,0.0725458413362503
1751013948011191300,0.57919140625,-0.05082829296588898,0.14077922701835632,-0.07212532311677933
1751013948021134300,0.58913427734375,-0.0826227068901062,0.012913135811686516,-0.19991950690746307
1751013948031078700,0.59907861328125,-0.06740646809339523,-0.07201001048088074,-0.278170645236969
1751013948041021400,0.609021484375,-0.011243599466979504,-0.12455364316701889,-0.2799541652202606
1751013948050965500,0.618965576171875,0.043045736849308014,-0.1418069303035736,-0.2116328924894333
1751013948060909600,0.62890966796875,0.08740068227052689,-0.1567573845386505,-0.08982336521148682
1751013948070852600,0.6388525390625,0.11306663602590561,-0.16123895347118378,0.05024266242980957
1751013948080796400,0.64879638671875,0.12598775327205658,-0.1657159924507141,0.16818395256996155
1751013948090740500,0.658740478515625,0.130944162607193,-0.16388534009456635,0.23391076922416687
1751013948100683500,0.66868359375,0.13833071291446686,-0.15459942817687988,0.24177508056163788
1751013948110627300,0.67862744140625,0.1408897489309311,-0.14482270181179047,0.2022915780544281
1751013948120570400,0.6885703125,0.13235591351985931,-0.13281051814556122,0.12721414864063263
1751013948130514400,0.698514404296875,0.13314872980117798,-0.11061785370111465,0.04421539977192879
1751013948140458200,0.708458251953125,0.15385587513446808,-0.08512528240680695,-0.03044392541050911
1751013948150401300,0.7184013671875,0.18294104933738708,-0.05028340965509415,-0.08646165579557419
1751013948160345600,0.728345703125,0.1992739588022232,0.0020362529903650284,-0.12133974581956863
1751013948170289400,0.738289306640625,0.201457217335701,0.05314497649669647,-0.14177897572517395
1751013948180232400,0.748232421875,0.20125055313110352,0.08151137083768845,-0.14720463752746582
1751013948190176500,0.758176513671875,0.19339609146118164,0.09517019242048264,-0.13568486273288727
1751013948200119600,0.76811962890625,0.17509618401527405,0.10671792179346085,-0.12414751201868057
1751013948210063400,0.7780634765625,0.15612594783306122,0.09463968873023987,-0.10752113163471222
1751013948220007400,0.78800732421875,0.14742541313171387,0.05530959367752075,-0.0862954705953598
1751013948229950500,0.797950439453125,0.14166365563869476,0.00785818975418806,-0.05625475198030472
1751013948239894300,0.807894287109375,0.1347319781780243,-0.027177559211850166,-0.019453858956694603
1751013948249838300,0.81783837890625,0.1336086541414261,-0.05200274661183357,0.014781342819333076
1751013948259781400,0.827781494140625,0.13849769532680511,-0.06820275634527206,0.04670145735144615
1751013948269725400,0.837725341796875,0.14281520247459412,-0.07241135090589523,0.0733189582824707
1751013948279668500,0.84766845703125,0.14247512817382812,-0.05122910067439079,0.09004253894090652
1751013948289612500,0.857612548828125,0.1513623595237732,-0.01878034509718418,0.08415216207504272
1751013948299556600,0.867556640625,0.16045518219470978,0.03009158931672573,0.06259200721979141
1751013948309499400,0.87749951171875,0.15973161160945892,0.07295330613851547,0.028421787545084953
1751013948319443500,0.887443359375,0.14956632256507874,0.10619647800922394,-0.012572516687214375
1751013948329387500,0.897387451171875,0.12381035834550858,0.13059742748737335,-0.05354125425219536
1751013948339330600,0.90733056640625,0.09776677191257477,0.1560058444738388,-0.09958784282207489
1751013948349274400,0.9172744140625,0.0952969565987587,0.1511559635400772,-0.1314709335565567
1751013948359217400,0.927217529296875,0.10764656960964203,0.1426495611667633,-0.12896570563316345
1751013948369161500,0.937161376953125,0.12182177603244781,0.13713841140270233,-0.10078573226928711
1751013948379105500,0.94710546875,0.13165922462940216,0.12090964615345001,-0.05227385833859444
1751013948389048600,0.957048583984375,0.12950153648853302,0.10029837489128113,-0.0008306399104185402
1751013948398992600,0.96699267578125,0.11375266313552856,0.07071837782859802,0.05143922194838524
1751013948408936400,0.9769365234375,0.09378321468830109,0.04842372611165047,0.10746254026889801
1751013948418879500,0.98687939453125,0.07513310015201569,0.028932582587003708,0.1474112868309021
1751013948428823600,0.996823486328125,0.056770604103803635,0.007759918924421072,0.16978344321250916
1751013948438767400,1.006767333984375,0.03346235305070877,-0.016995228826999664,0.1573755145072937
1751013948448710400,1.01671044921875,0.015004249289631844,-0.039375901222229004,0.11928671598434448
1751013948458654500,1.026654541015625,0.0031411985401064157,-0.0616026446223259,0.06465569138526917
1751013948468597500,1.036597412109375,0.003177417442202568,-0.07389499992132187,0.007071757689118385
1751013948478541300,1.046541259765625,0.006097839679569006,-0.048224519938230515,-0.032885510474443436
1751013948488485600,1.056485595703125,0.014912903308868408,-0.007010238710790873,-0.06067666411399841
1751013948498428400,1.066428466796875,0.020483968779444695,0.03657239302992821,-0.07718320190906525
1751013948508372500,1.07637255859375,0.03401708975434303,0.0614796057343483,-0.08212149888277054
1751013948518316500,1.086316650390625,0.03138961270451546,0.062316637486219406,-0.07631261646747589
1751013948528259600,1.096259521484375,0.02220543660223484,0.05301687866449356,-0.053827546536922455
1751013948538203400,1.106203369140625,0.013616742566227913,0.03371162340044975,-0.035827238112688065
1751013948548146400,1.116146484375,0.0009395632077939808,0.0031465247739106417,-0.01774410903453827
1751013948558090500,1.126090576171875,-0.010354636237025261,-0.029809027910232544,-0.00609304616227746
1751013948568034300,1.136034423828125,-0.027820179238915443,-0.04693342000246048,0.005203816574066877
1751013948577977300,1.145977294921875,-0.040341831743717194,-0.05010950565338135,0.013391705229878426
1751013948587921400,1.15592138671875,-0.06270892173051834,-0.045411158353090286,0.01738884299993515
1751013948597865200,1.165865234375,-0.1040763333439827,-0.04322123900055885,-0.009225722402334213
1751013948607808300,1.175808349609375,-0.15135623514652252,-0.04387078434228897,-0.046486809849739075
1751013948617752600,1.185752685546875,-0.18126219511032104,-0.035891689360141754,-0.07740051299333572
1751013948627695600,1.195695556640625,-0.1851821094751358,-0.01884186454117298,-0.09544476121664047
1751013948637639400,1.205639404296875,-0.16121844947338104,0.001145159243606031,-0.09379146993160248
1751013948647583500,1.21558349609375,-0.11677774786949158,0.017352093011140823,-0.06666824221611023
1751013948657526500,1.225526611328125,-0.08626484870910645,0.02449602261185646,-0.03465811163187027
1751013948667470300,1.23547021484375,-0.06979373097419739,0.03350629284977913,-0.00669492082670331
1751013948677414400,1.245414306640625,-0.06565411388874054,0.03738545626401901,0.005982791539281607
1751013948687357400,1.255357421875,-0.06401041150093079,0.03210840001702309,-0.001642637769691646
1751013948697301500,1.265301513671875,-0.05924760922789574,0.027035612612962723,-0.025176193565130234
1751013948707244300,1.275244384765625,-0.056942377239465714,0.02594398334622383,-0.0394214428961277
1751013948717188400,1.285188232421875,-0.04900296404957771,0.02095108851790428,-0.052623264491558075
1751013948727132700,1.295132568359375,-0.03557956591248512,0.020110327750444412,-0.051058389246463776
1751013948737075500,1.305075439453125,-0.024162594228982925,0.01648310199379921,-0.035887960344552994
1751013948747019500,1.31501953125,-0.01552489772439003,0.01889512687921524,-0.010565824806690216
1751013948756963600,1.324963623046875,0.002293780678883195,0.02907000109553337,0.02100594900548458
1751013948766906600,1.33490673828125,0.011571701616048813,0.04362444207072258,0.04884849861264229
1751013948776850400,1.344850341796875,0.022305838763713837,0.060375191271305084,0.0665057897567749
1751013948786793500,1.35479345703125,0.025779666379094124,0.06909278780221939,0.06751512736082077
1751013948796737500,1.364737548828125,0.026979153975844383,0.06656810641288757,0.043225500732660294
1751013948806681300,1.374681396484375,0.009838515892624855,0.052928727120161057,-0.0060240705497562885
1751013948816624400,1.384624267578125,-0.010483533143997192,0.03044046275317669,-0.05594928562641144
1751013948826568400,1.394568359375,-0.02858876809477806,0.012261459603905678,-0.08658655732870102
1751013948836516600,1.4045166015625,-0.04223667085170746,0.006813697516918182,-0.08472341299057007
1751013948846459600,1.414459716796875,-0.044077180325984955,0.014208496548235416,-0.049846917390823364
1751013948856403700,1.42440380859375,-0.04264679551124573,0.01588122919201851,-0.004008590243756771
1751013948866346500,1.434346435546875,-0.029028721153736115,0.017070330679416656,0.03453853726387024
1751013948876290600,1.44429052734375,-0.004509264137595892,0.020120980218052864,0.06458618491888046
1751013948886234600,1.454234619140625,0.014050571247935295,0.023492010310292244,0.08141549676656723
1751013948896177400,1.464177490234375,0.03696281090378761,0.025416409596800804,0.07934089750051498
1751013948906121500,1.47412158203125,0.05338093265891075,0.020616061985492706,0.07375171780586243
1751013948916065800,1.484065673828125,0.05913522467017174,0.01404684316366911,0.07061105221509933
1751013948926008600,1.494008544921875,0.056708287447690964,0.016684703528881073,0.06664533913135529
1751013948935952600,1.50395263671875,0.054130613803863525,0.013078250922262669,0.05371569097042084
1751013948945895700,1.513895751953125,0.05327334254980087,0.008501076139509678,0.04144171625375748
1751013948955839700,1.52383984375,0.03689383715391159,-0.0012266519479453564,0.03217897564172745
1751013948965783600,1.533783447265625,0.01387054193764925,-0.01750682108104229,0.01696833036839962
1751013948975726600,1.5437265625,-0.001612544059753418,-0.03597930446267128,-0.0005174521938897669
1751013948985670700,1.553670654296875,-0.00552179804071784,-0.049431998282670975,-0.008629174903035164
1751013948995614500,1.563614501953125,-0.002129463478922844,-0.04947780445218086,-0.0002996056282427162
1751013949005557500,1.5735576171875,0.007986287586390972,-0.04403803125023842,0.010428406298160553
1751013949015501600,1.58350146484375,0.013176522217690945,-0.0341971181333065,0.01775556057691574
1751013949025444600,1.593444580078125,0.019602729007601738,-0.023261379450559616,0.020207533612847328
1751013949035388400,1.603388427734375,0.017248494550585747,-0.013360812328755856,0.013002350926399231
1751013949045332700,1.613332763671875,0.011388209648430347,-0.013318202458322048,0.0036362800747156143
1751013949055275800,1.62327587890625,0.0073266224935650826,-0.011202054098248482,-0.0010833739070221782
1751013949065219600,1.633219482421875,0.007995608262717724,0.002204830991104245,-0.0041468082927167416
1751013949075163600,1.64316357421875,0.00953944306820631,0.01804930716753006,-0.0070672305300831795
1751013949085106700,1.653106689453125,0.02353541925549507,0.024922126904129982,-0.008844091556966305
1751013949095050500,1.663050537109375,0.03489406779408455,0.03013846091926098,-0.011002050712704659
1751013949104993500,1.67299365234375,0.047204796224832535,0.021926071494817734,-0.008696286007761955
1751013949114937600,1.6829375,0.05028181150555611,0.009298959746956825,-0.0036573191173374653
1751013949124881400,1.69288134765625,0.0495971143245697,0.0008101335843093693,0.01595473103225231
1751013949134824400,1.702824462890625,0.03350283205509186,-0.007102117873728275,0.021628595888614655
1751013949144768500,1.7127685546875,0.017243968322873116,-0.0138966403901577,0.021269869059324265
1751013949154712600,1.722712646484375,0.0026815368328243494,-0.011172759346663952,0.015182947739958763
1751013949164655600,1.732655517578125,0.0033747577108442783,-0.00041731735109351575,0.007552991155534983
1751013949174599700,1.742599609375,0.010055829770863056,0.019661318510770798,0.0010040117194876075
1751013949184542700,1.752542724609375,0.024152474477887154,0.04582900553941727,-0.001537709147669375
1751013949194486500,1.762486572265625,0.044502485543489456,0.06617236137390137,-0.019587017595767975
1751013949204430600,1.7724306640625,0.059176236391067505,0.078005850315094,-0.033118803054094315
1751013949214373600,1.78237353515625,0.06760088354349136,0.08010735362768173,-0.05503502115607262
1751013949224317400,1.7923173828125,0.06335952877998352,0.05853521451354027,-0.06308761984109879
1751013949234261500,1.802261474609375,0.04947354272007942,0.022401180118322372,-0.06728582829236984
1751013949244204500,1.81220458984375,0.028733909130096436,-0.010338923893868923,-0.047332629561424255
1751013949254148600,1.822148681640625,0.005135640036314726,-0.03525545820593834,-0.013562147505581379
1751013949264091400,1.83209130859375,-0.0023377228062599897,-0.0397799015045166,0.025646774098277092
1751013949274035700,1.84203564453125,0.0016247945604845881,-0.038231007754802704,0.05609176307916641
1751013949283979800,1.851979736328125,0.00971707608550787,-0.033013876527547836,0.07464281469583511
1751013949293922600,1.861922607421875,0.017703363671898842,-0.013422864489257336,0.07088562101125717
1751013949303866600,1.87186669921875,0.023507723584771156,0.004852812271565199,0.0446324497461319
1751013949313810700,1.881810791015625,0.03292572498321533,0.019214706495404243,0.00008788431296125054
1751013949323753500,1.89175341796875,0.0435677170753479,0.03786509111523628,-0.053653109818696976
1751013949333697500,1.901697509765625,0.049123868346214294,0.05398200824856758,-0.08640466630458832
1751013949343640600,1.911640625,0.04887885972857475,0.06427006423473358,-0.09877637773752213
1751013949353584600,1.921584716796875,0.03771036118268967,0.05829579755663872,-0.08426454663276672
1751013949363528400,1.931528564453125,0.025196965783834457,0.039924245327711105,-0.04729108139872551
1751013949373471500,1.941471435546875,0.007571367081254721,0.0075660403817892075,0.0000476705827168189
1751013949383415800,1.951415771484375,-0.0009001484140753746,-0.02028849348425865,0.04542474076151848
1751013949393359600,1.961359619140625,-0.005685849115252495,-0.031384821981191635,0.06983580440282822
1751013949403302700,1.971302734375,-0.0020929782185703516,-0.03278031572699547,0.06549245864152908
1751013949413246700,1.981246826171875,0.0036035231314599514,-0.021020863205194473,0.04773609712719917
1751013949423189800,1.991189697265625,0.010060090571641922,-0.004358795937150717,0.013577594421803951
1751013949433133600,2.001133544921875,0.01684476062655449,0.005270129535347223,-0.011815913021564484
1751013949443077600,2.01107763671875,0.014279336668550968,0.009189769625663757,-0.028192754834890366
1751013949453020700,2.021020751953125,0.010483266785740852,0.015424496494233608,-0.026520024985074997
1751013949462964500,2.030964599609375,0.0036607813090085983,0.017413876950740814,-0.012900618836283684
1751013949472908500,2.040908447265625,0.005359345115721226,0.019578760489821434,-0.0009962886106222868
1751013949482851600,2.0508515625,0.012140818871557713,0.01690787635743618,0.01125318743288517
1751013949492795400,2.06079541015625,0.02003868855535984,0.022402776405215263,0.019816314801573753
1751013949502738400,2.070738525390625,0.02003362961113453,0.022336997091770172,0.019105784595012665
1751013949512682800,2.080682861328125,0.018385399132966995,0.016437029466032982,0.011620969511568546
1751013949522626600,2.09062646484375,0.022611569613218307,0.01158634852617979,0.005677592940628529
1751013949532569600,2.100569580078125,0.015400794334709644,0.008048072457313538,0.007547398563474417
1751013949542513700,2.110513671875,0.00851732213050127,0.001820270554162562,0.00443975580856204
1751013949552457500,2.12045751953125,-0.00019361180602572858,0.00040613205055706203,0.009710684418678284
1751013949562400500,2.130400390625,-0.00029880666988901794,0.0011137339752167463,0.017674867063760757
1751013949572344600,2.140344482421875,0.004792624618858099,0.005081577692180872,0.02112525887787342
1751013949582287600,2.15028759765625,0.0006327670416794717,0.010056362487375736,0.02274605818092823
1751013949592231400,2.1602314453125,0.0026027073618024588,0.015915583819150925,-0.004010454285889864
1751013949602175500,2.170175537109375,-0.0019044264918193221,0.014358965680003166,-0.03702539578080177
1751013949612118500,2.180118408203125,0.005234176758676767,0.00987260416150093,-0.06405328214168549
1751013949622062600,2.1900625,0.008298410102725029,0.0058080879971385,-0.07605055719614029
1751013949632006700,2.200006591796875,-0.0007731156656518579,-0.006117547396570444,-0.06549964845180511
1751013949641949700,2.20994970703125,-0.010521350428462029,-0.022461898624897003,-0.04695552587509155
1751013949651893500,2.2198935546875,-0.02676982805132866,-0.04632435366511345,-0.02189784124493599
1751013949661837600,2.229837646484375,-0.044864676892757416,-0.0619208924472332,0.009895240887999535
1751013949671780600,2.239780517578125,-0.05350077524781227,-0.08256145566701889,0.049915626645088196
1751013949681724700,2.249724609375,-0.05470825359225273,-0.08978341519832611,0.08628455549478531
1751013949691667500,2.25966748046875,-0.05320809409022331,-0.08393511176109314,0.10342945158481598
1751013949701611500,2.269611572265625,-0.020550016313791275,-0.07505427300930023,0.11035020649433136
1751013949711555600,2.2795556640625,0.008822253905236721,-0.052935387939214706,0.09913164377212524
1751013949721498400,2.289498291015625,0.026860909536480904,-0.024992167949676514,0.07536692917346954
1751013949731442700,2.299442626953125,0.03869546577334404,-0.006849117577075958,0.035824574530124664
1751013949741386800,2.30938671875,0.049609098583459854,-0.0017001620726659894,0.0032415995374321938
1751013949751329500,2.31932958984375,0.049247439950704575,0.008270712569355965,-0.011893411166965961
1751013949761273600,2.329273681640625,0.04369954392313957,0.008845156989991665,-0.01495018694549799
1751013949771216600,2.339216552734375,0.03875378891825676,0.004422445315867662,-0.0057558901607990265
1751013949781160700,2.34916064453125,0.02256389893591404,0.0010428938549011946,0.007804127410054207
1751013949791104500,2.3591044921875,0.013176788575947285,0.0026647590566426516,0.015752598643302917
1751013949801047600,2.369047607421875,0.0031558459158986807,-0.00452790642157197,0.01565193012356758
1751013949810991600,2.37899169921875,-0.00464694993570447,-0.004822984803467989,0.010428939014673233
1751013949820935400,2.388935302734375,-0.009558884426951408,-0.0014516890514642,0.00520674604922533
1751013949830878500,2.39887841796875,-0.01528840884566307,0.00812264159321785,-0.0006838997360318899
1751013949840819200,2.408819091796875,-0.012627378106117249,0.017478326335549355,-0.0054637412540614605
1751013949850762200,2.41876220703125,-0.009008674882352352,0.03425677493214607,-0.008554073050618172
1751013949860706300,2.428706298828125,0.005244829226285219,0.05511491745710373,-0.012284362688660622
1751013949870650400,2.438650390625,0.01703357882797718,0.07350137829780579,-0.007911453023552895
1751013949880593400,2.448593505859375,0.017524132505059242,0.08290713280439377,-0.01185373030602932
1751013949890537200,2.458537109375,0.008597482927143574,0.08580359071493149,-0.01389690674841404
1751013949900481300,2.468481201171875,0.0040765004232525826,0.07162518799304962,-0.02371038869023323
1751013949910424300,2.47842431640625,-0.0062975771725177765,0.05642519146203995,-0.026632942259311676
1751013949920368000,2.4883681640625,-0.019303390756249428,0.03265967592597008,-0.03185087442398071
1751013949930311200,2.498311279296875,-0.027874508872628212,0.009149289689958096,-0.02418043650686741
1751013949940255200,2.508255126953125,-0.030701186507940292,-0.003778493031859398,-0.005476790945976973
1751013949950199000,2.518198974609375,-0.027546139433979988,-0.007625695317983627,0.0170330461114645
1751013949960142000,2.52814208984375,-0.026585804298520088,-0.000493750034365803,0.036928191781044006
1751013949970086100,2.538086181640625,-0.020866133272647858,0.006494118366390467,0.041371941566467285
1751013949980030200,2.5480302734375,-0.019055450335144997,0.005822202656418085,0.03711408004164696
1751013949989973200,2.55797314453125,-0.015593606978654861,0.005351355765014887,0.015489744022488594
1751013949999917300,2.567917236328125,-0.011699266731739044,0.017172062769532204,-0.00885074958205223
1751013950009860400,2.5778603515625,-0.005034173373132944,0.020235763862729073,-0.02881593629717827
1751013950019804200,2.58780419921875,0.00001757686368364375,0.014055897481739521,-0.04379408434033394
1751013950029748200,2.597748291015625,-0.006155097857117653,0.012836436741054058,-0.04327503591775894
1751013950039691300,2.607691162109375,-0.013283847831189632,0.0036764938849955797,-0.0333893820643425
1751013950049635000,2.617635009765625,-0.020354008302092552,-0.0013552826130762696,-0.010530139319598675
1751013950059579100,2.6275791015625,-0.02912539429962635,0.002919090911746025,0.007939682342112064
1751013950069522200,2.637522216796875,-0.03500432148575783,0.014297179877758026,0.0232376791536808
1751013950079466000,2.647466064453125,-0.03767520561814308,0.022767895832657814,0.03382321074604988
1751013950089409000,2.657408935546875,-0.03278191387653351,0.030069218948483467,0.039874445647001266
1751013950099353300,2.667353271484375,-0.02298307977616787,0.032281506806612015,0.04494989663362503
1751013950109297200,2.677297119140625,-0.01426309160888195,0.035477034747600555,0.05131165683269501
1751013950119240200,2.687240234375,-0.011289140209555626,0.03515345975756645,0.053037919104099274
1751013950129184300,2.697184326171875,-0.02111833542585373,0.039389483630657196,0.05193297192454338
1751013950139128300,2.70712841796875,-0.03435637429356575,0.0412217378616333,0.03634415939450264
1751013950149071000,2.717071044921875,-0.04386918619275093,0.03808347135782242,0.01565193012356758
1751013950159015200,2.72701513671875,-0.051469314843416214,0.030101975426077843,0.0027297399938106537
1751013950168958200,2.736958251953125,-0.05554341897368431,0.028243621811270714,0.0015395734226331115
1751013950178902300,2.74690234375,-0.057308297604322433,0.0227415319532156,0.012635367922484875
1751013950188846000,2.75684619140625,-0.05673198774456978,0.00917405728250742,0.024111460894346237
1751013950198789000,2.7667890625,-0.05296867713332176,-0.006660033017396927,0.03363519161939621
1751013950208733400,2.7767333984375,-0.04794355854392052,-0.01398718822747469,0.041201766580343246
1751013950218677200,2.78667724609375,-0.03465678170323372,-0.015900935977697372,0.03353958576917648
1751013950228620300,2.796620361328125,-0.02702282927930355,-0.011992746964097023,0.02436046674847603
1751013950238564400,2.806564453125,-0.020866932347416878,-0.004563326481729746,0.015793344005942345
1751013950248508200,2.816508056640625,-0.013190636411309242,0.014492922462522984,0.009582053869962692
1751013950258451200,2.826451171875,-0.00407516909763217,0.027213778346776962,0.01053093746304512
1751013950268395300,2.836395263671875,0.0013768542557954788,0.03381548821926117,0.0208863727748394
1751013950278338300,2.84633837890625,-0.0030162963084876537,0.03419818356633186,0.02816692367196083
1751013950288282000,2.8562822265625,-0.013287842273712158,0.02719220519065857,0.03820411115884781
1751013950298226200,2.86622607421875,-0.021764151751995087,0.02026958577334881,0.03749784082174301
1751013950308169200,2.876169189453125,-0.029275596141815186,0.013685718178749084,0.03309350460767746
1751013950318113300,2.88611328125,-0.04289127513766289,0.0003281014505773783,0.027451597154140472
1751013950328057300,2.896057373046875,-0.05700016766786575,-0.009219597093760967,0.022776152938604355
1751013950338000400,2.90600048828125,-0.06637875735759735,-0.014900386333465576,0.01937050186097622
1751013950347944200,2.915944091796875,-0.06928347051143646,-0.02063390612602234,0.016766196116805077
1751013950357887200,2.92588720703125,-0.07172159105539322,-0.03351934254169464,0.019180351868271828
1751013950367831300,2.935831298828125,-0.067768394947052,-0.04210937023162842,0.01673450507223606
1751013950377775000,2.945775146484375,-0.0601874403655529,-0.045033786445856094,0.02141554281115532
1751013950387718100,2.95571826171875,-0.04748975485563278,-0.042381543666124344,0.023387880995869637
1751013950397662200,2.965662109375,-0.036978255957365036,-0.018979016691446304,0.025614283978939056
1751013950407606000,2.97560595703125,-0.02725905179977417,0.006361492909491062,0.02382943220436573
1751013950417549000,2.985549072265625,-0.021505825221538544,0.029989324510097504,0.020259732380509377
1751013950427493000,2.9954931640625,-0.008013451471924782,0.04918112978339195,0.010144779458642006
1751013950437436200,3.005436279296875,-0.0027622305788099766,0.054486677050590515,-0.00890907272696495
1751013950447380200,3.015380126953125,-0.008340221829712391,0.03383093327283859,-0.03659103438258171
1751013950457324300,3.02532421875,-0.019881296902894974,-0.006895989179611206,-0.05808407440781593
1751013950467267300,3.035267333984375,-0.04345879331231117,-0.04313894733786583,-0.05590001866221428
1751013950477211100,3.045211181640625,-0.07237246632575989,-0.07071012258529663,-0.026992468163371086
1751013950487155200,3.0551552734375,-0.08563394099473953,-0.09175335615873337,0.020535368472337723
1751013950497098200,3.06509814453125,-0.0913219228386879,-0.10480497777462006,0.07039826363325119
1751013950507042000,3.0750419921875,-0.06821633875370026,-0.08549012988805771,0.11592233926057816
1751013950516985000,3.084985107421875,-0.04507506638765335,-0.047080427408218384,0.14203596115112305
1751013950526929200,3.09492919921875,-0.013333914801478386,-0.0033164345659315586,0.13756825029850006
1751013950536873200,3.104873291015625,0.01901736669242382,0.03051023930311203,0.09848635643720627
1751013950546816000,3.11481591796875,0.04688548296689987,0.048943307250738144,0.04362098127603531
1751013950556760300,3.12476025390625,0.061281997710466385,0.06603414565324783,-0.023601466789841652
1751013950566704400,3.134704345703125,0.06222555786371231,0.0725833922624588,-0.089409239590168
1751013950576647200,3.144647216796875,0.04905542731285095,0.06608900427818298,-0.1311364471912384
1751013950586591200,3.15459130859375,0.02292582206428051,0.04941468685865402,-0.1528063267469406
1751013950596535300,3.164535400390625,-0.009023322723805904,0.028146682307124138,-0.14322693645954132
1751013950606478300,3.174478271484375,-0.03777853772044182,-0.0006378270918503404,-0.1122109591960907
1751013950616422100,3.184422119140625,-0.0557977519929409,-0.026562102138996124,-0.06675985455513
1751013950626365200,3.194365234375,-0.054722901433706284,-0.044263068586587906,-0.024813205003738403
1751013950636309200,3.204309326171875,-0.0496802031993866,-0.05434313416481018,0.010039318352937698
1751013950646253000,3.214253173828125,-0.035950545221567154,-0.04638614133000374,0.03164341300725937
1751013950656196000,3.224196044921875,-0.015903333202004433,-0.02587900124490261,0.036373455077409744
1751013950666140400,3.234140380859375,0.007095726206898689,0.00720491586253047,0.016806144267320633
1751013950676084200,3.244084228515625,0.031676970422267914,0.04370167478919029,-0.00863370206207037
1751013950686027300,3.25402734375,0.04978566616773605,0.07792702317237854,-0.04458611086010933
1751013950695971300,3.263971435546875,0.05728672444820404,0.09550761431455612,-0.0730568990111351
1751013950705914400,3.273914306640625,0.05230049043893814,0.09185082465410233,-0.09457550942897797
1751013950715858200,3.283858154296875,0.030944600701332092,0.06937747448682785,-0.10864685475826263
1751013950725802200,3.29380224609375,0.0034317492973059416,0.03725522756576538,-0.10696852952241898
1751013950735745300,3.303745361328125,-0.02616928517818451,-0.0063031697645783424,-0.0974959284067154
1751013950745689000,3.313689208984375,-0.054432082921266556,-0.044744301587343216,-0.07654430717229843
1751013950755633200,3.323633056640625,-0.07167764753103256,-0.06795880943536758,-0.04476986825466156
1751013950765576200,3.333576171875,-0.07116978615522385,-0.07033861428499222,-0.006347378250211477
1751013950775520300,3.343520263671875,-0.0536951869726181,-0.0571085587143898,0.012434831820428371
1751013950785464300,3.35346435546875,-0.030585072934627533,-0.031157121062278748,0.005316202063113451
1751013950795407400,3.363407470703125,-0.006138320080935955,-0.009080846793949604,-0.01866023615002632
1751013950805351200,3.37335107421875,0.015562181361019611,0.004739627707749605,-0.05991952493786812
1751013950815294200,3.383294189453125,0.02329600229859352,0.010814031586050987,-0.10074951499700546
1751013950825238300,3.39323828125,0.025202292948961258,0.003762780223041773,-0.13403210043907166
1751013950835182000,3.40318212890625,0.03032434917986393,0.00011371697473805398,-0.14016136527061462
1751013950845124900,3.413124755859375,0.03156884387135506,0.004959338344633579,-0.12515579164028168
1751013950855069000,3.42306884765625,0.03533162549138069,0.012013252824544907,-0.0970194935798645
1751013950865013000,3.433012939453125,0.04187687486410141,0.012652412056922913,-0.0655587688088417
1751013950874955800,3.442955810546875,0.047691889107227325,0.012233496643602848,-0.03478674218058586
1751013950884900000,3.452900146484375,0.06003590673208237,0.01284282747656107,-0.025106152519583702
1751013950894843100,3.462843017578125,0.07997632771730423,0.01637444645166397,-0.0385226234793663
1751013950904787000,3.472786865234375,0.10085950046777725,0.017891649156808853,-0.07242652773857117
1751013950914731000,3.48273095703125,0.11875887215137482,0.024476846680045128,-0.1082172840833664
1751013950924674000,3.492674072265625,0.13161875307559967,0.030550451949238777,-0.12854838371276855
1751013950934618000,3.5026181640625,0.13243474066257477,0.03463813662528992,-0.13101394474506378
1751013950944562000,3.51256201171875,0.1227717250585556,0.03663098067045212,-0.1097336858510971
1751013950954505000,3.5225048828125,0.10461509227752686,0.030545925721526146,-0.07274877279996872
1751013950964449000,3.532448974609375,0.08248075842857361,0.022604644298553467,-0.030917968600988388
1751013950974392000,3.54239208984375,0.05747874081134796,0.017655959352850914,0.007429420482367277
1751013950984336000,3.5523359375,0.03734337538480759,0.021559620276093483,0.03696334362030029
1751013950994280200,3.5622802734375,0.028079304844141006,0.03287272900342941,0.04519091546535492
1751013951004223200,3.57222314453125,0.020138558000326157,0.03364797309041023,0.024353543296456337
1751013951014167000,3.5821669921875,0.010911770164966583,0.029795711860060692,-0.006601443514227867
1751013951024111000,3.592111083984375,-0.01181964110583067,0.012204734608530998,-0.048717472702264786
1751013951034054100,3.60205419921875,-0.04578666388988495,-0.007873902097344398,-0.08323097229003906
1751013951043998000,3.611998046875,-0.07093915343284607,-0.024043550714850426,-0.10630326718091965
1751013951053942000,3.62194189453125,-0.08280034363269806,-0.023470439016819,-0.1032363772392273
1751013951063885000,3.631885009765625,-0.07785564661026001,-0.0007536745979450643,-0.09055013954639435
1751013951073828900,3.641828857421875,-0.05886811017990112,0.026443591341376305,-0.06449883431196213
1751013951083772000,3.65177197265625,-0.027054520323872566,0.05657299980521202,-0.029291309416294098
1751013951093716000,3.661716064453125,0.004744421225041151,0.09149982035160065,0.0054970309138298035
1751013951103660000,3.671659912109375,0.027455326169729233,0.11286822706460953,0.024102672934532166
1751013951113603000,3.68160302734375,0.03798626363277435,0.11540888249874115,0.03196166083216667
1751013951123547100,3.691547119140625,0.03737373650074005,0.09365592151880264,0.028268655762076378
1751013951133491000,3.701490966796875,0.029505427926778793,0.05662333220243454,0.023024093359708786
1751013951143434000,3.71143408203125,0.008673382923007011,0.016389358788728714,0.02496393956243992
1751013951153378000,3.7213779296875,-0.01582130789756775,-0.019724436104297638,0.03657824918627739
1751013951163321000,3.731321044921875,-0.040819067507982254,-0.04704420641064644,0.04446999728679657
1751013951173265000,3.741264892578125,-0.05626247450709343,-0.06347378343343735,0.0444050133228302
1751013951183209000,3.751208984375,-0.06618008762598038,-0.061775483191013336,0.027220701798796654
1751013951193152000,3.761152099609375,-0.06157974153757095,-0.05305922403931618,0.005300489254295826
1751013951203095800,3.771095703125,-0.04384361952543259,-0.031498536467552185,-0.016826117411255836
1751013951213040000,3.7810400390625,-0.023748472332954407,-0.017957428470253944,-0.044497694820165634
1751013951222983200,3.790983154296875,-0.014994129538536072,-0.008251005783677101,-0.06335233896970749
1751013951232927000,3.800927001953125,-0.0006024070316925645,0.010264622047543526,-0.06934791803359985
1751013951242871000,3.81087109375,0.013366405852138996,0.020435500890016556,-0.06019383296370506
1751013951252814000,3.82081396484375,0.013520335778594017,0.01275494322180748,-0.04253334552049637
1751013951262758100,3.830758056640625,0.0005739112384617329,-0.004849882796406746,-0.020609671249985695
1751013951272701000,3.840700927734375,-0.01455630548298359,-0.021098094061017036,-0.011127219535410404
1751013951282645000,3.85064501953125,-0.023609455674886703,-0.03633004426956177,-0.011173824779689312
1751013951292589000,3.860589111328125,-0.016708938404917717,-0.043768253177404404,-0.01786155439913273
1751013951302531800,3.87053173828125,-0.009668606333434582,-0.03555852547287941,-0.023147929459810257
1751013951312476000,3.880475830078125,0.0028045750223100185,-0.022976422682404518,-0.03501124680042267
1751013951322420200,3.890420166015625,0.020912472158670425,-0.0018050905782729387,-0.034155573695898056
1751013951332363000,3.900363037109375,0.040106408298015594,0.019943080842494965,-0.032158203423023224
1751013951342307000,3.91030712890625,0.04963972419500351,0.03014139086008072,-0.033136382699012756
1751013951352250000,3.92025,0.053572945296764374,0.0383114367723465,-0.034812573343515396
1751013951362194200,3.930194091796875,0.0511995367705822,0.03714683651924133,-0.04662928730249405
1751013951372138000,3.940137939453125,0.04987994208931923,0.025970080867409706,-0.06114457920193672
1751013951382081000,3.9500810546875,0.0473073273897171,0.009650230407714844,-0.054243262857198715
1751013951392025000,3.960025146484375,0.03822754696011543,-0.0037561224307864904,-0.050040531903505325
1751013951401969000,3.969968994140625,0.024113591760396957,-0.012600746937096119,-0.04310912266373634
1751013951411912000,3.979911865234375,0.016409600153565407,-0.01679336093366146,-0.036368392407894135
1751013951421856000,3.98985595703125,0.013587447814643383,-0.026186063885688782,-0.02136441133916378
1751013951431799800,3.9997998046875,0.009732522070407867,-0.03436116874217987,-0.011084875091910362
1751013951441742800,4.009742919921875,0.00037444045301526785,-0.03958496078848839,-0.008263256400823593
1751013951451687200,4.019687255859375,-0.001347559504210949,-0.03892742469906807,-0.010394584387540817
1751013951461630200,4.029630126953125,0.00046099317842163146,-0.038669098168611526,-0.016035690903663635
1751013951471574000,4.039573974609375,-0.003908189013600349,-0.03538941591978073,-0.016808275133371353
1751013951481518000,4.04951806640625,-0.012270248495042324,-0.02388855442404747,-0.02219584956765175
1751013951491461000,4.059461181640625,-0.017520669847726822,-0.015073757618665695,-0.03663284704089165
1751013951501405000,4.069405029296875,-0.01085957232862711,-0.003878894029185176,-0.04797471687197685
1751013951511349000,4.079348876953125,-0.005813147872686386,0.010498713701963425,-0.047689758241176605
1751013951521292000,4.0892919921875,-0.006389189511537552,0.01894652657210827,-0.02906760387122631
1751013951531235800,4.09923583984375,-0.015450594946742058,0.026872361078858376,-0.023006515577435493
1751013951541180000,4.109179931640625,-0.015489477664232254,0.02544730342924595,-0.02574770711362362
1751013951551123000,4.119123046875,-0.02004215121269226,0.019179819151759148,-0.039439816027879715
1751013951561067000,4.12906689453125,-0.02611229382455349,0.004062119405716658,-0.046787746250629425
1751013951571010000,4.139010009765625,-0.03466770052909851,0.00589570589363575,-0.04529983550310135
1751013951580954000,4.1489541015625,-0.043355997651815414,0.015472966246306896,-0.039576172828674316
1751013951590898000,4.15889794921875,-0.04225078225135803,0.01708630844950676,-0.03917376697063446
1751013951600841000,4.168841064453125,-0.03983796015381813,0.01787460409104824,-0.03719184175133705
1751013951610785000,4.178784912109375,-0.03888561204075813,0.010370083153247833,-0.0376078300178051
1751013951620729000,4.18872900390625,-0.03730476275086403,0.004532699938863516,-0.03738518804311752
1751013951630672000,4.198671875,-0.02629232406616211,0.0002889529860112816,-0.03341228514909744
1751013951640616000,4.208615966796875,-0.016812801361083984,0.0026557042729109526,-0.02015560120344162
1751013951650560000,4.21856005859375,-0.006036587059497833,0.01581651344895363,-0.015139005146920681
1751013951660502800,4.228502685546875,0.007513842545449734,0.02333941124379635,-0.010693124495446682
1751013951670447000,4.238447021484375,0.017676731571555138,0.031511321663856506,-0.007619303651154041
1751013951680390100,4.24839013671875,0.02418895997107029,0.03693964332342148,-0.009032110683619976
1751013951690334200,4.258334228515625,0.02359587326645851,0.03237657994031906,-0.021030450239777565
1751013951700278000,4.268278076171875,0.020298080518841743,0.01540798507630825,-0.040707215666770935
1751013951710221000,4.278220947265625,-0.0009571401169523597,-0.00461579067632556,-0.05536152422428131
1751013951720165000,4.2881650390625,-0.02110927924513817,-0.02557486854493618,-0.05848754569888115
1751013951730109000,4.29810888671875,-0.03780490159988403,-0.04243587329983711,-0.055443018674850464
1751013951740052000,4.308052001953125,-0.04729720950126648,-0.05968117341399193,-0.05010844022035599
1751013951749996000,4.31799609375,-0.048284709453582764,-0.06184259429574013,-0.043112050741910934
1751013951759939000,4.32793896484375,-0.04079669713973999,-0.05077023804187775,-0.037028856575489044
1751013951769883000,4.3378828125,-0.022294919937849045,-0.03521977365016937,-0.021982530131936073
1751013951779827200,4.3478271484375,0.0019712718203663826,-0.01423353049904108,-0.004686098080128431
1751013951789770000,4.35777001953125,0.02618047036230564,0.001151284552179277,0.007919175550341606
1751013951799714000,4.367714111328125,0.03888481482863426,0.000261788722127676,0.002800047630444169
1751013951809658000,4.377658203125,0.03463653847575188,-0.02358761802315712,-0.011903264559805393
1751013951819601200,4.38760107421875,0.016833042725920677,-0.06150437146425247,-0.031254325062036514
1751013951829545000,4.397544921875,0.0005531385540962219,-0.07584762573242188,-0.040041692554950714
1751013951839489000,4.407489013671875,-0.007756989449262619,-0.07921972125768661,-0.03442614898085594
1751013951849436000,4.417435791015625,-0.007595335599035025,-0.06689434498548508,-0.016567258164286613
1751013951859379700,4.427379638671875,-0.0065132929012179375,-0.04540875926613808,0.0016133430181071162
1751013951869322800,4.43732275390625,-0.0004593952908180654,-0.026384735479950905,0.014831677079200745
1751013951879266800,4.447266845703125,0.0010122675448656082,-0.00743314903229475,0.026430808007717133
1751013951889210600,4.457210693359375,0.009783654473721981,0.012777314521372318,0.030178675428032875
1751013951899153700,4.467153564453125,0.025354359298944473,0.017952103167772293,0.033731065690517426
1751013951909097700,4.47709765625,0.035118039697408676,0.026632942259311676,0.04189098998904228
1751013951919041500,4.48704150390625,0.043174900114536285,0.04267289489507675,0.039445411413908005
1751013951928984600,4.496984619140625,0.049610164016485214,0.05080512538552284,0.02201502025127411
1751013951938928600,4.5069287109375,0.055928245186805725,0.04673980921506882,0.0062576294876635075
1751013951948872700,4.516872802734375,0.051475442945957184,0.03455344960093498,-0.009396697394549847
1751013951958815700,4.526815673828125,0.039498407393693924,0.01455603912472725,-0.012202870100736618
1751013951968759800,4.536759765625,0.014820490963757038,-0.006040581967681646,-0.004891161806881428
1751013951978702800,4.546702880859375,-0.0012831110507249832,-0.022544190287590027,0.007453655358403921
1751013951988646700,4.556646728515625,-0.020016850903630257,-0.024349814280867577,0.014012488536536694
1751013951998590700,4.5665908203125,-0.02996029518544674,-0.017298029735684395,0.005769738461822271
1751013952008533800,4.57653369140625,-0.032461803406476974,-0.014172544702887535,-0.013097159564495087
1751013952018477600,4.5864775390625,-0.023358052596449852,-0.004809668753296137,-0.03404638543725014
1751013952028421600,4.596421630859375,-0.016694823279976845,0.003469566348940134,-0.0457424558699131
1751013952038364700,4.60636474609375,-0.004966262727975845,0.005870139691978693,-0.04418210685253143
1751013952048308700,4.616308837890625,-0.0019976370967924595,0.00957060232758522,-0.03213636577129364
1751013952058252800,4.626252685546875,-0.0034490597900003195,0.0105916578322649,-0.025365810841321945
1751013952068195800,4.63619580078125,-0.0005914880894124508,0.0016932378057390451,-0.01931590773165226
1751013952078140000,4.646139892578125,0.004256530199199915,-0.004365986213088036,-0.015108911320567131
1751013952088083700,4.656083740234375,-0.0014085458824411035,-0.011576761491596699,-0.007464574184268713
1751013952098026800,4.66602685546875,-0.012035890482366085,-0.01943015679717064,-0.005138835404068232
1751013952107970800,4.675970703125,-0.017137708142399788,-0.01859339140355587,-0.006530071143060923
1751013952117913600,4.68591357421875,-0.01079592201858759,-0.01588069647550583,-0.0013680658303201199
1751013952127857700,4.695857666015625,0.002612827345728874,-0.000532365869730711,0.011795406229794025
1751013952137801700,4.7058017578125,0.015506521798670292,0.015595737844705582,0.021558554843068123
1751013952147744800,4.715744873046875,0.028539232909679413,0.02292102761566639,0.02738688327372074
1751013952157688600,4.7256884765625,0.03687785565853119,0.026197515428066254,0.03062155842781067
1751013952167633000,4.7356328125,0.042505115270614624,0.021700767800211906,0.027103522792458534
1751013952177576000,4.745575927734375,0.04213493689894676,0.010879279114305973,0.028057999908924103
1751013952187519700,4.755519775390625,0.03747973218560219,-0.003141731023788452,0.03098507970571518
1751013952197463800,4.7654638671875,0.029446305707097054,-0.015921708196401596,0.03936924412846565
1751013952207406800,4.77540673828125,0.02161315083503723,-0.011578358709812164,0.04936595261096954
1751013952217350700,4.7853505859375,0.010123208165168762,0.0014274542918428779,0.05763480067253113
1751013952227293700,4.795293701171875,0.00015393071225844324,0.021377461031079292,0.05287253484129906
1751013952237237800,4.80523779296875,-0.0012713931500911713,0.04801493138074875,0.03104979544878006
1751013952247181600,4.815181640625,0.004032824654132128,0.050207242369651794,0.005005677696317434
1751013952257124600,4.82512451171875,0.007813714444637299,0.06022951751947403,-0.022216888144612312
1751013952267068700,4.835068603515625,0.019273295998573303,0.06566769629716873,-0.037453364580869675
1751013952277012700,4.8450126953125,0.041243843734264374,0.06118825450539589,-0.04705965518951416
1751013952286955500,4.85495556640625,0.04821626469492912,0.05188263952732086,-0.04512939602136612
1751013952296899800,4.86489990234375,0.0499555766582489,0.045398905873298645,-0.03645547851920128
1751013952306843600,4.87484375,0.04418530315160751,0.04237009212374687,-0.00971387978643179
1751013952316786700,4.88478662109375,0.028536569327116013,0.03663124889135361,0.01721493899822235
1751013952326730800,4.894730712890625,0.016577111557126045,0.030595725402235985,0.03401122987270355
1751013952336674800,4.9046748046875,0.0073013221845030785,0.023797741159796715,0.034805651754140854
1751013952346617600,4.91461767578125,0.007564176339656115,0.021993448957800865,0.020654678344726562
1751013952356561700,4.924561767578125,0.015145929530262947,0.023574568331241608,-0.011511780321598053
1751013952366504700,4.934504638671875,0.019030150026082993,0.025499233976006508,-0.040114130824804306
1751013952376448500,4.944448486328125,0.021215273067355156,0.027636421844363213,-0.0638199895620346
1751013952386392600,4.954392578125,0.01655261218547821,0.023447269573807716,-0.07469447702169418
1751013952396335600,4.964335693359375,0.0076030585914850235,0.005759618245065212,-0.06939372420310974
1751013952406279700,4.97427978515625,-0.00006311691686278209,-0.015079083852469921,-0.05065332353115082
1751013952416223700,4.9842236328125,-0.016411198303103447,-0.032756347209215164,-0.018006164580583572
1751013952426166800,4.994166748046875,-0.033430926501750946,-0.04583379998803139,0.011753861792385578
1751013952436110800,5.00411083984375,-0.040218524634838104,-0.049010418355464935,0.04336398467421532
1751013952446054700,5.0140546875,-0.035056255757808685,-0.031087346374988556,0.06894844025373459
1751013952455997700,5.023997802734375,-0.023273630067706108,-0.0014466290595009923,0.08061974495649338
1751013952465941800,5.033941650390625,-0.01185186579823494,0.020368121564388275,0.059606339782476425
1751013952475884800,5.043884765625,0.006245112512260675,0.028063591569662094,0.023124760016798973
1751013952485828600,5.05382861328125,0.019946277141571045,0.02081499993801117,-0.021528728306293488
1751013952495772700,5.063772705078125,0.02269119769334793,0.006019809283316135,-0.059246279299259186
1751013952505715700,5.0737158203125,0.02208799123764038,-0.00711676524952054,-0.06999506056308746
1751013952515659800,5.08365966796875,0.013847372494637966,-0.012692891992628574,-0.051421113312244415
1751013952525603800,5.093603759765625,0.0020634171087294817,-0.012630041688680649,-0.022881347686052322
1751013952535547000,5.103546875,0.0003832288784906268,-0.007608384825289249,0.014225541613996029
1751013952545490700,5.11349072265625,-0.00016192019393201917,0.0012679309584200382,0.044789042323827744
1751013952555434800,5.123434814453125,-0.0001613875647308305,0.003915912006050348,0.0656604990363121
1751013952565377800,5.133377685546875,0.00478277076035738,0.005606220569461584,0.07256527990102768
1751013952575321600,5.143321533203125,0.016863135620951653,0.010149040259420872,0.07074181735515594
1751013952585265700,5.153265625,0.030004771426320076,0.0030570426024496555,0.06208014860749245
1751013952595208700,5.163208740234375,0.0306300800293684,0.0036575854755938053,0.04271896928548813
1751013952605152500,5.173152587890625,0.0244922935962677,0.004905542824417353,0.011843609623610973
1751013952615096800,5.183096923828125,0.02249971590936184,-0.002685531508177519,-0.03110598772764206
1751013952625040000,5.193039794921875,0.015121161937713623,-0.0073687005788087845,-0.06587222218513489
1751013952634983700,5.202983642578125,-0.002986468840390444,-0.013514210470020771,-0.09004786610603333
1751013952644926700,5.2129267578125,-0.0191356111317873,-0.01798166334629059,-0.08399370312690735
1751013952654870800,5.222870849609375,-0.03272439166903496,-0.02166561409831047,-0.0557977519929409
1751013952664814600,5.232814697265625,-0.03773512691259384,-0.025488581508398056,-0.013696370646357536
1751013952674757600,5.242757568359375,-0.02575942501425743,-0.024944763630628586,0.03453933447599411
1751013952684701700,5.25270166015625,-0.01047314703464508,-0.016635434702038765,0.07804446667432785
1751013952694645800,5.262645751953125,0.00583738274872303,-0.004935103934258223,0.10673336684703827
1751013952704588500,5.272588623046875,0.011603659018874168,0.0067697553895413876,0.11831732094287872
1751013952714532600,5.28253271484375,0.015671636909246445,0.022067751735448837,0.10560951381921768
1751013952724477000,5.292476806640625,0.0156513974070549,0.038170021027326584,0.08028046041727066
1751013952734419700,5.302419677734375,0.018385931849479675,0.04165290296077728,0.04068591073155403
1751013952744363800,5.31236376953125,0.02154923416674137,0.044509146362543106,0.010810037143528461
1751013952754307800,5.322307861328125,0.027772774919867516,0.05221473425626755,-0.009647035039961338
1751013952764251000,5.3322509765625,0.03657772019505501,0.05657992139458656,-0.016273511573672295
1751013952774194700,5.342194580078125,0.03747999668121338,0.05204669013619423,-0.0105341337621212
1751013952784137700,5.3521376953125,0.03405490517616272,0.041185252368450165,0.0072717610746622086
1751013952794081800,5.362081787109375,0.030368026345968246,0.0268931332975626,0.03003086894750595
1751013952804025600,5.372025634765625,0.021497035399079323,0.002139050979167223,0.052682384848594666
1751013952813968600,5.38196875,0.011424694210290909,-0.01666925847530365,0.07513656467199326
1751013952823912700,5.39191259765625,-0.004113784991204739,-0.028834577649831772,0.09091605991125107
1751013952833856800,5.401856689453125,-0.01119033619761467,-0.03273051604628563,0.08277051150798798
1751013952843796500,5.41179638671875,-0.008745022118091583,-0.024683509021997452,0.06394302845001221
1751013952853740800,5.42174072265625,-0.0009041432058438659,-0.017196031287312508,0.03915885463356972
1751013952863684600,5.4316845703125,0.010367685928940773,0.00221974472515285,0.020907944068312645
1751013952873627600,5.441627685546875,0.014481204561889172,0.01564953289926052,-0.004927380476146936
1751013952883571700,5.45157177734375,0.019482355564832687,0.011827364563941956,-0.02624092437326908
1751013952893515500,5.461515625,0.01613742485642433,0.0008673915872350335,-0.03057308867573738
1751013952903458600,5.47145849609375,0.011629758402705193,-0.00872265174984932,-0.020667461678385735
1751013952913402600,5.481402587890625,0.00019228023302275687,-0.013935523107647896,-0.001847967505455017
1751013952923345700,5.491345703125,-0.008871521800756454,-0.016630908474326134,0.013790380209684372
1751013952933289500,5.50128955078125,-0.010273676365613937,-0.00800572894513607,0.029404494911432266
1751013952943233500,5.511233642578125,-0.011752530001103878,0.011509915813803673,0.0394134521484375
1751013952953176600,5.521176513671875,-0.006936469115316868,0.026450250297784805,0.03834898769855499
1751013952963120600,5.53112060546875,-0.0005520732956938446,0.025237713009119034,0.02841193415224552
1751013952973064700,5.541064697265625,0.00501100393012166,0.022336997091770172,0.018687933683395386
1751013952983007700,5.5510078125,0.013304353691637516,0.02671550028026104,0.012533102184534073
1751013952992951600,5.56095166015625,0.01414484716951847,0.0256867203861475,0.00689066294580698
1751013953002895600,5.5708955078125,0.015739548951387405,0.01888447441160679,0.011546934023499489
1751013953012838700,5.580838623046875,0.011781824752688408,0.023966053500771523,0.021981731057167053
1751013953022782500,5.590782470703125,0.005063734482973814,0.023122096434235573,0.034562237560749054
1751013953032726500,5.6007265625,-0.003634682158008218,0.023212645202875137,0.04644739255309105
1751013953042669600,5.610669677734375,-0.015389609150588512,0.01570492796599865,0.0563623420894146
1751013953052613400,5.62061328125,-0.028923526406288147,0.0036400086246430874,0.048765674233436584
1751013953062557700,5.6305576171875,-0.03287326171994209,-0.00574816670268774,0.04135330021381378
1751013953072500500,5.64050048828125,-0.03269136697053909,-0.011782091110944748,0.027538683265447617
1751013953082444500,5.650444580078125,-0.026323748752474785,-0.012538162060081959,0.022477611899375916
1751013953092387600,5.6603876953125,-0.022413697093725204,-0.01124972477555275,0.03039172850549221
1751013953102331600,5.67033154296875,-0.021025655791163445,-0.004430701024830341,0.051486894488334656
1751013953112275700,5.680275634765625,-0.022708507254719734,-0.005224589258432388,0.08252736926078796
1751013953122218500,5.690218505859375,-0.028982115909457207,-0.004808337427675724,0.11630850285291672
1751013953132162600,5.70016259765625,-0.03201545774936676,-0.004588892683386803,0.14320296049118042
1751013953142106600,5.710106689453125,-0.018736137077212334,0.020493557676672935,0.14039625227451324
1751013953152049700,5.720049560546875,0.008863266557455063,0.04560822993516922,0.12130033224821091
1751013953161993500,5.729993408203125,0.02785906195640564,0.03327726200222969,0.07940587401390076
1751013953171937800,5.739937744140625,0.031007450073957443,0.022363362833857536,0.0431503988802433
1751013953181880600,5.749880615234375,0.028128840029239655,0.01708764024078846,0.02996429055929184
1751013953191824600,5.75982470703125,0.01642797514796257,0.004464257042855024,0.03917083889245987
1751013953201768700,5.769768798828125,0.005193696822971106,-0.005788912996649742,0.057189520448446274
1751013953211711700,5.779711669921875,-0.0073652383871376514,-0.01278610248118639,0.07569476217031479
1751013953221655600,5.789655517578125,-0.01607324182987213,-0.019340408965945244,0.0896553173661232
1751013953231598600,5.7995986328125,-0.024408670142292976,-0.027287546545267105,0.09117837995290756
1751013953241542700,5.809542724609375,-0.026569291949272156,-0.018326276913285255,0.0830746442079544
1751013953251486500,5.819486572265625,-0.020503144711256027,-0.00458729499951005,0.06838811188936234
1751013953261429500,5.829429443359375,-0.009459547698497772,0.01725967973470688,0.048413872718811035
1751013953271373600,5.83937353515625,0.010608701966702938,0.03743765130639076,0.026685940101742744
1751013953281317400,5.8493173828125,0.031984563916921616,0.0535079650580883,0.011114169843494892
1751013953291260400,5.859260498046875,0.04650571569800377,0.06526289135217667,0.008882441557943821
1751013953301204700,5.869204833984375,0.05199076235294342,0.05648777633905411,0.011361577548086643
1751013953311148500,5.8791484375,0.04951642081141472,0.03930958732962608,0.030474020168185234
1751013953321091600,5.889091552734375,0.036726854741573334,0.013778396882116795,0.052618205547332764
1751013953331035600,5.89903564453125,0.016340890899300575,-0.009285110980272293,0.07622738927602768
1751013953340979500,5.9089794921875,-0.004179564770311117,-0.018208032473921776,0.08734742552042007
1751013953350922500,5.918922607421875,-0.014831144362688065,-0.021279456093907356,0.08753784000873566
1751013953360866600,5.928866455078125,-0.015797339379787445,-0.016684437170624733,0.07825512439012527
1751013953370810600,5.938810546875,-0.009882990270853043,-0.007056045345962048,0.05848781019449234
1751013953380753400,5.94875341796875,-0.004307929426431656,-0.005477323196828365,0.0391218364238739
1751013953390697500,5.958697509765625,-0.0010897654574364424,-0.00401524780318141,0.02082272432744503
1751013953400641800,5.968641845703125,0.000059388490626588464,-0.00603472301736474,0.007183610461652279
1751013953410584600,5.97858447265625,-0.004782504867762327,-0.00833942275494337,-0.005605687852948904
1751013953420528600,5.988528564453125,-0.012536564841866493,-0.012397014535963535,-0.011092332191765308
1751013953430471700,5.9984716796875,-0.024441426619887352,-0.008509332314133644,-0.017479658126831055
1751013953440415700,6.008415771484375,-0.033248234540224075,-0.004162254277616739,-0.021290374919772148
1751013953450359600,6.018359619140625,-0.03520086407661438,0.002855441300198436,-0.02124723233282566
1751013953460302600,6.028302490234375,-0.03961345553398132,0.011472631245851517,-0.01956464722752571
1751013953470246700,6.03824658203125,-0.03879133611917496,0.024163659662008286,-0.019058380275964737
1751013953480190500,6.0481904296875,-0.04079350084066391,0.03232678025960922,-0.016928650438785553
1751013953490133500,6.058133544921875,-0.04066300764679909,0.037455230951309204,-0.021331386640667915
1751013953500077600,6.06807763671875,-0.03580939769744873,0.039733562618494034,-0.02912299707531929
1751013953510021600,6.078021728515625,-0.03498062118887901,0.03617637977004051,-0.03623044118285179
1751013953519964700,6.087964599609375,-0.034108966588974,0.0233540590852499,-0.035298336297273636
1751013953529908700,6.09790869140625,-0.038906387984752655,0.014367220923304558,-0.023843547329306602
1751013953539852500,6.1078525390625,-0.0357968807220459,0.015807459130883217,-0.014246047474443913
1751013953549795600,6.117795654296875,-0.036786776036024094,0.017400560900568962,-0.006194512825459242
1751013953559739600,6.12773974609375,-0.033076994121074677,0.022072013467550278,-0.005005411338061094
1751013953569683500,6.137683349609375,-0.01582956314086914,0.025602033361792564,-0.00446798512712121
1751013953579626500,6.14762646484375,-0.004778509959578514,0.028558406978845596,-0.005938583053648472
1751013953589570600,6.157570556640625,0.002341717481613159,0.03207537904381752,-0.013861486688256264
1751013953599514400,6.167514404296875,0.005101817660033703,0.032889239490032196,-0.015865782275795937
1751013953609457400,6.17745751953125,0.01164360623806715,0.030242323875427246,-0.01464818511158228
1751013953619401700,6.187401611328125,0.014881477691233158,0.02155029959976673,-0.010432134382426739
1751013953629344800,6.1973447265625,0.013472133316099644,0.016139822080731392,0.001169394003227353
1751013953639288600,6.20728857421875,0.011948006227612495,0.010072607547044754,0.0010213222121819854
1751013953649232600,6.217232666015625,0.009797769598662853,0.008372445590794086,0.004487426485866308
1751013953659175700,6.22717578125,0.008344482630491257,0.0073013221845030785,0.005194495897740126
1751013953669119500,6.237119384765625,0.0015755260828882456,0.006284793838858604,0.0025063008069992065
1751013953679063600,6.2470634765625,-0.00714552728459239,0.006362824235111475,0.0007392935222014785
1751013953689006600,6.257006591796875,-0.011355452239513397,0.01810816302895546,-0.007758320774883032
1751013953698950700,6.26695068359375,-0.01423672679811716,0.02347549796104431,-0.024168452247977257
1751013953708894500,6.27689453125,-0.016263391822576523,0.020675184205174446,-0.05095985159277916
1751013953718837500,6.28683740234375,-0.014407968148589134,0.020241888239979744,-0.07887856662273407
1751013953728781800,6.29678173828125,-0.01492035947740078,0.022790001705288887,-0.10988602042198181
1751013953738725600,6.3067255859375,-0.012689430266618729,0.01895025558769703,-0.14113475382328033
1751013953748668700,6.316668701171875,-0.024562068283557892,0.004954278469085693,-0.1673695594072342
1751013953758612700,6.32661279296875,-0.04716964438557625,-0.010074738413095474,-0.18600529432296753
1751013953768556500,6.336556640625,-0.07278978824615479,-0.019699668511748314,-0.18493443727493286
1751013953778499600,6.34649951171875,-0.08705154806375504,-0.02039741724729538,-0.16725769639015198
1751013953788443600,6.356443603515625,-0.07979816198348999,-0.012631106190383434,-0.13085202872753143
1751013953798387500,6.366387451171875,-0.05938582867383957,-0.0033691651187837124,-0.082852803170681
1751013953808330500,6.37633056640625,-0.038056571036577225,0.0022980417124927044,-0.02936960570514202
1751013953818274600,6.386274658203125,-0.013676397502422333,0.0027225494850426912,0.011797270737588406
1751013953828218600,6.396218505859375,0.0035167040769010782,0.003718305379152298,0.039135683327913284
1751013953838161400,6.406161376953125,0.020548684522509575,0.013537379913032055,0.052451491355895996
1751013953848105700,6.416105712890625,0.0385761559009552,0.02117026597261429,0.040765807032585144
1751013953858048800,6.426048828125,0.044322188943624496,0.03263038024306297,0.005743106827139854
1751013953867992600,6.43599267578125,0.04728176072239876,0.04188486561179161,-0.045459359884262085
1751013953877936600,6.4459365234375,0.04358262941241264,0.04153332859277725,-0.09821231663227081
1751013953887879700,6.455879638671875,0.04413097724318504,0.039692286401987076,-0.12668737769126892
1751013953897823500,6.465823486328125,0.04096927121281624,0.030368559062480927,-0.12462102621793747
1751013953907767600,6.475767578125,0.03677425906062126,0.021738585084676743,-0.10189786553382874
1751013953917710600,6.485710693359375,0.024875521659851074,0.0073655047453939915,-0.06477313488721848
1751013953927654400,6.495654296875,0.010208428837358952,0.001383778522722423,-0.009463276714086533
1751013953937598500,6.505598388671875,0.005394232925027609,-0.002041046740487218,0.040956754237413406
1751013953947541500,6.51554150390625,0.00045353634050115943,0.005600361619144678,0.07478582113981247
1751013953957485600,6.525485595703125,0.0014066817238926888,0.018379805609583855,0.08360940963029861
1751013953967429600,6.5354296875,0.013099556788802147,0.02616901881992817,0.06566929072141647
1751013953977372700,6.54537255859375,0.02143152244389057,0.031988292932510376,0.03834046423435211
1751013953987316700,6.555316650390625,0.029818082228302956,0.042624957859516144,0.002954510971903801
1751013953997260500,6.565260498046875,0.02425500564277172,0.05001522973179817,-0.03305835276842117
1751013954007203600,6.57520361328125,0.022960709407925606,0.047576840966939926,-0.0646037608385086
1751013954017147600,6.585147705078125,0.025785258039832115,0.0367223285138607,-0.07284171879291534
1751013954027091500,6.595091552734375,0.020852284505963326,0.03430604189634323,-0.0645398423075676
1751013954037034500,6.605034423828125,0.011663846671581268,0.024060862138867378,-0.04480928182601929
1751013954046978600,6.614978515625,0.004703941289335489,0.018983278423547745,-0.019878899678587914
1751013954056921600,6.624921630859375,0.0033997914288192987,0.010282465256750584,0.004877579398453236
1751013954066865700,6.63486572265625,0.002644518855959177,0.006956709548830986,0.018281003460288048
1751013954076809700,6.644809814453125,-0.00021651499264407903,0.005892243701964617,0.0252800565212965
1751013954086752800,6.654752685546875,-0.004899950232356787,0.004590757191181183,0.0013550163712352514
1751013954096696600,6.664696533203125,0.0016026903176680207,0.00902438722550869,-0.03242718055844307
1751013954106640600,6.674640625,0.015515309758484364,0.022543391212821007,-0.0704275593161583
1751013954116583700,6.684583740234375,0.02406965009868145,0.02845188044011593,-0.10524945706129074
1751013954126527500,6.694527587890625,0.022218219935894012,0.03997191786766052,-0.12434592097997665
1751013954136471600,6.704471435546875,0.03202131763100624,0.06259919703006744,-0.12398160248994827
1751013954146414600,6.71441455078125,0.047637294977903366,0.09316110610961914,-0.11187087744474411
1751013954156358400,6.7243583984375,0.06003723666071892,0.12107183039188385,-0.09002629667520523
1751013954166302700,6.734302734375,0.05728166550397873,0.11120268702507019,-0.0659840777516365
1751013954176245800,6.744245849609375,0.049193378537893295,0.07023555040359497,-0.049609895795583725
1751013954186189600,6.754189453125,0.03117309883236885,0.012381302192807198,-0.025103488937020302
1751013954196133600,6.764133544921875,0.01152509544044733,-0.031202660873532295,-0.0023640880826860666
1751013954206076700,6.77407666015625,-0.0078059914521873,-0.05855518952012062,0.013514210470020771
1751013954216020500,6.7840205078125,-0.023690149188041687,-0.07366729527711868,0.01985493116080761
1751013954225964500,6.793964599609375,-0.02863404154777527,-0.0758175328373909,0.0219082273542881
1751013954235907600,6.803907470703125,-0.026276078075170517,-0.0606609508395195,0.00022264027211349458
1751013954245851400,6.813851318359375,-0.0162948165088892,-0.03303704410791397,-0.03155100345611572
1751013954255795500,6.82379541015625,0.007002782076597214,-0.0006404902087524533,-0.06127374246716499
1751013954265738500,6.833738525390625,0.02924124151468277,0.03148708492517471,-0.08346106857061386
1751013954275682600,6.8436826171875,0.04490888491272926,0.045463088899850845,-0.08192389458417892
1751013954285626600,6.853626708984375,0.05965374410152435,0.05257266387343407,-0.0600992888212204
1751013954295569700,6.863569580078125,0.06011367216706276,0.053940996527671814,-0.023077355697751045
1751013954305513700,6.873513671875,0.04657575860619545,0.04964691400527954,0.024763669818639755
1751013954315457500,6.88345751953125,0.02780047245323658,0.03479766100645065,0.054730623960494995
1751013954325400600,6.893400634765625,0.009929063729941845,0.01811269111931324,0.05759778246283531
1751013954335344600,6.9033447265625,-0.004691957030445337,0.005490106530487537,0.03766428679227829
1751013954345288400,6.913288330078125,-0.008599347434937954,0.002764893928542733,-0.0018096179701387882
1751013954355231500,6.9232314453125,-0.004743888974189758,0.00833782460540533,-0.04590996727347374
1751013954365175600,6.933175537109375,0.007561246864497662,0.023311180993914604,-0.07239590585231781
1751013954375118600,6.94311865234375,0.020663466304540634,0.04422178864479065,-0.08176330476999283
1751013954385062700,6.953062744140625,0.02864709123969078,0.06107533723115921,-0.0787251740694046
1751013954395006700,6.9630068359375,0.03863687440752983,0.06155310943722725,-0.06507966667413712
1751013954404949800,6.97294970703125,0.04871933534741402,0.055817726999521255,-0.04018417000770569
1751013954414893600,6.9828935546875,0.04879976436495781,0.04007977619767189,-0.010334396734833717
1751013954424837600,6.992837646484375,0.04351738467812538,0.003343865042552352,0.018544388934969902
1751013954434780700,7.00278076171875,0.028207935392856598,-0.031267907470464706,0.034455712884664536
1751013954444724500,7.012724365234375,0.012651879340410233,-0.05848861113190651,0.04217834770679474
1751013954454668500,7.02266845703125,-0.0036309538409113884,-0.07184436172246933,0.03756042569875717
1751013954464611600,7.032611572265625,-0.008804144337773323,-0.07133489847183228,0.025217205286026
1751013954474555400,7.042555419921875,-0.008274974301457405,-0.06389082968235016,-0.001392566948197782
1751013954484499700,7.052499755859375,0.0037121803034096956,-0.047095607966184616,-0.031256455928087234
1751013954494442800,7.06244287109375,0.020740166306495667,-0.022713834419846535,-0.05010870844125748
1751013954504386600,7.072386474609375,0.04008696600794792,-0.0003802994033321738,-0.0581304132938385
1751013954514330600,7.08233056640625,0.05469147488474846,0.01631212793290615,-0.04715925455093384
1751013954524273700,7.092273681640625,0.0657113716006279,0.02611842006444931,-0.022905582562088966
1751013954534217500,7.102217529296875,0.07560128718614578,0.025801237672567368,0.003162770066410303
1751013954544161500,7.11216162109375,0.0753011479973793,0.018327075988054276,0.028666798025369644
1751013954554104600,7.1221044921875,0.06449776887893677,0.005529255140572786,0.0422462560236454
1751013954564048600,7.132048583984375,0.0570015013217926,-0.004896221682429314,0.04904690384864807
1751013954573992400,7.141992431640625,0.039994820952415466,-0.015855129808187485,0.04390673711895943
1751013954583935500,7.151935546875,0.027332022786140442,-0.019656525924801826,0.03941824659705162
1751013954593879800,7.1618798828125,0.01792254112660885,-0.012279569171369076,0.023937823250889778
1751013954603823600,7.17182373046875,0.01242124941200018,-0.0015662050573155284,0.005282912403345108
1751013954613766700,7.1817666015625,0.01260926853865385,0.011862518265843391,-0.012647884897887707
1751013954623710700,7.191710693359375,0.019397133961319923,0.03067748434841633,-0.027341876178979874
1751013954633654500,7.201654541015625,0.03314011171460152,0.04740985855460167,-0.026085130870342255
1751013954643597600,7.21159765625,0.0408499613404274,0.052491169422864914,-0.016020778566598892
1751013954653541600,7.221541748046875,0.03507063537836075,0.04704580456018448,-0.008134892210364342
1751013954663485400,7.2314853515625,0.02280624583363533,0.031925708055496216,-0.002638659905642271
1751013954673428500,7.241428466796875,0.0065353973768651485,0.018929749727249146,0.007927431724965572
1751013954683372500,7.25137255859375,-0.01200792659074068,-0.0015512913232669234,0.001487109111621976
1751013954693316600,7.261316650390625,-0.03098135255277157,-0.015794143080711365,0.00041492050513625145
1751013954703259400,7.27125927734375,-0.03592950478196144,-0.01884159818291664,-0.01344496849924326
1751013954713203700,7.28120361328125,-0.04084170609712601,-0.013397031463682652,-0.040103476494550705
1751013954723147500,7.2911474609375,-0.0399404913187027,-0.004234692547470331,-0.07987086474895477
1751013954733090600,7.301090576171875,-0.025798041373491287,0.018555041402578354,-0.10390935093164444
1751013954743034600,7.31103466796875,-0.011394601315259933,0.04446280747652054,-0.11028682440519333
1751013954752978700,7.320978759765625,0.0028431906830519438,0.06022152677178383,-0.09922458976507187
1751013954762921500,7.33092138671875,0.006951382849365473,0.0658610388636589,-0.0760396420955658
1751013954772865500,7.340865478515625,0.007015032693743706,0.07362335175275803,-0.039575107395648956
1751013954782808600,7.35080859375,0.004631237126886845,0.07618025690317154,-0.005705556366592646
1751013954792752400,7.36075244140625,-0.005640575196594,0.07299857586622238,0.02857891470193863
1751013954802696700,7.37069677734375,-0.018798721954226494,0.058758120983839035,0.044796232134103775
1751013954812639500,7.380639404296875,-0.03687705844640732,0.04434003308415413,0.056287772953510284
1751013954822583600,7.39058349609375,-0.05613916739821434,0.024893632158637047,0.05094920098781586
1751013954832527600,7.400527587890625,-0.06840489059686661,0.003619768423959613,0.036308206617832184
1751013954842470400,7.410470458984375,-0.07959549129009247,-0.01432461105287075,0.009128783829510212
1751013954852414500,7.42041455078125,-0.08937968313694,-0.023738618940114975,-0.028363464400172234
1751013954862358300,7.430358154296875,-0.08565125614404678,-0.01733584702014923,-0.06518672406673431
1751013954872301300,7.44030126953125,-0.07083688676357269,0.0022160164080560207,-0.08729042857885361
1751013954882245400,7.450245361328125,-0.052569467574357986,0.025524267926812172,-0.08722038567066193
1751013954892189200,7.460189208984375,-0.028915004804730415,0.047641821205616,-0.06701552122831345
1751013954902132200,7.47013232421875,-0.007920240983366966,0.054307978600263596,-0.03238803520798683
1751013954912076300,7.480076171875,0.006822219584137201,0.0459190234541893,0.009869941510260105
1751013954922020400,7.490020263671875,0.016176307573914528,0.026394322514533997,0.04170110821723938
1751013954931963400,7.49996337890625,0.023392673581838608,0.0022860574536025524,0.06397978216409683
1751013954941907500,7.509907470703125,0.02063337340950966,-0.02118651196360588,0.06723789125680923
1751013954951851300,7.519851318359375,0.019781161099672318,-0.028871595859527588,0.05179422348737717
1751013954961794300,7.529794189453125,0.021456822752952576,-0.02809847891330719,0.022471221163868904
1751013954971738400,7.53973828125,0.0345449261367321,-0.01932576112449169,-0.005294364411383867
1751013954981682200,7.54968212890625,0.04615790769457817,0.0021784657146781683,-0.028897162526845932
1751013954991625200,7.559625244140625,0.05986546352505684,0.0190205629914999,-0.03211852163076401
1751013955001569300,7.5695693359375,0.062003981322050095,0.03160959109663963,-0.021377461031079292
1751013955011513300,7.579513427734375,0.05481025204062462,0.030282804742455482,-0.0028008464723825455
1751013955021456100,7.5894560546875,0.04439649358391762,0.023690149188041687,0.02377776801586151
1751013955031400400,7.599400390625,0.03087003156542778,0.024331705644726753,0.044134169816970825
1751013955041344500,7.609344482421875,0.017724402248859406,0.02407737262547016,0.05717673525214195
1751013955051287300,7.619287353515625,0.01073999609798193,0.030431674793362617,0.04963093623518944
1751013955061231400,7.6292314453125,0.010643056593835354,0.030960578471422195,0.038053374737501144
1751013955071175400,7.639175537109375,0.012722453102469444,0.03340349718928337,0.024445688351988792
1751013955081118500,7.649118408203125,0.006041114684194326,0.04302842542529106,0.012177837081253529
1751013955091062300,7.659062255859375,-0.0012474246323108673,0.04387344792485237,-0.003379018744453788
1751013955101006300,7.66900634765625,-0.011968245729804039,0.03771195933222771,-0.00765871861949563
1751013955110949400,7.678949462890625,-0.027513382956385612,0.0275069922208786,-0.009965814650058746
1751013955120893200,7.68889306640625,-0.045109156519174576,0.014622884802520275,-0.008045942522585392
1751013955130837500,7.69883740234375,-0.06052486225962639,0.0025385250337421894,-0.011599131859838963
1751013955140780500,7.708780517578125,-0.07087550312280655,-0.011832690797746181,-0.01666339859366417
1751013955150724400,7.718724365234375,-0.061050038784742355,-0.021193968132138252,-0.015722770243883133
1751013955160668400,7.72866845703125,-0.04966236278414726,-0.023379890248179436,-0.01606791652739048
1751013955170611500,7.738611572265625,-0.03615773841738701,-0.019112175330519676,-0.018201107159256935
1751013955180555300,7.74855517578125,-0.013993313536047935,-0.004221376497298479,-0.012809804640710354
1751013955190499300,7.758499267578125,0.013481986708939075,0.009648632258176804,-0.006696784868836403
1751013955200442400,7.7684423828125,0.03202451020479202,0.024981249123811722,0.006189718842506409
1751013955210386200,7.77838623046875,0.048895370215177536,0.041663557291030884,0.010983143001794815
1751013955220330200,7.788330322265625,0.061158694326877594,0.04807431995868683,0.01884346269071102
1751013955230273300,7.798273193359375,0.06744322180747986,0.038182806223630905,0.01926477439701557
1751013955240217300,7.80821728515625,0.06565890461206436,0.023995080962777138,0.014961638487875462
1751013955250161400,7.818161376953125,0.060572534799575806,0.004397944081574678,0.010024936869740486
1751013955260104400,7.8281044921875,0.05116864666342735,-0.020923657342791557,0.007209975738078356
1751013955270048300,7.83804833984375,0.03892769291996956,-0.0369042232632637,0.007556453347206116
1751013955279992300,7.847992431640625,0.025522936135530472,-0.04129018262028694,0.007697867229580879
1751013955289935400,7.857935302734375,0.016573118045926094,-0.03687146678566933,0.014348845928907394
1751013955299879400,7.86787939453125,0.010721886530518532,-0.02502945251762867,0.025786323472857475
1751013955309823200,7.8778232421875,0.016102803871035576,-0.004375573713332415,0.03569195047020912
1751013955319766300,7.887766357421875,0.03290468826889992,0.02563292533159256,0.04668547958135605
1751013955329710300,7.89771044921875,0.047737427055835724,0.04409129545092583,0.04778669774532318
1751013955339654400,7.907654296875,0.055519185960292816,0.04826899617910385,0.027525633573532104
1751013955349597400,7.917597412109375,0.05656207725405693,0.040835049003362656,-0.007068828213959932
1751013955359541500,7.92754150390625,0.04783197119832039,0.02490960992872715,-0.042398590594530106
1751013955369485300,7.9374853515625,0.036367859691381454,0.0073103769682347775,-0.059057459235191345
1751013955379428400,7.947428466796875,0.016401875764131546,-0.010778877884149551,-0.05982418358325958
1751013955389372400,7.957372314453125,0.0016277240356430411,-0.02020833268761635,-0.03886350989341736
1751013955399316200,7.967316162109375,-0.016500679776072502,-0.023480026051402092,-0.013107013888657093
1751013955409259300,7.97725927734375,-0.027090206742286682,-0.025372734293341637,0.011007376946508884
1751013955419203300,7.987203369140625,-0.016346216201782227,-0.02105441875755787,0.0292524266988039
1751013955429147100,7.997147216796875,-0.0025446503423154354,-0.004524177871644497,0.045881737023591995
1751013955439090200,8.007090087890624,0.014344317838549614,0.005861084908246994,0.0597381666302681
1751013955449034500,8.017034423828125,0.02075960673391819,0.008665393106639385,0.06264127790927887
1751013955458978300,8.026978271484374,0.027603931725025177,0.0030652983114123344,0.060634318739175797
1751013955468921300,8.03692138671875,0.032525986433029175,-0.0010135991033166647,0.045704904943704605
1751013955478865400,8.046865478515626,0.045350171625614166,0.0002490055630914867,0.028788505122065544
1751013955488809500,8.0568095703125,0.05218490585684776,0.007862716913223267,0.009312541224062443
1751013955498752300,8.066752197265625,0.05350636690855026,0.017615212127566338,-0.00672208471223712
1751013955508696300,8.0766962890625,0.04392857477068901,0.024698954075574875,-0.025660090148448944
1751013955518640400,8.086640380859375,0.03268763795495033,0.01489585917443037,-0.04100123047828674
1751013955528583200,8.096583251953126,0.02124643325805664,-0.0025451830588281155,-0.04327317327260971
1751013955538527200,8.10652734375,0.007529555354267359,-0.016100673004984856,-0.029291842132806778
1751013955548471600,8.116471435546876,-0.00009134642459684983,-0.02401345781981945,-0.003564907470718026
1751013955558414300,8.126414306640624,-0.002537459833547473,-0.0275591891258955,0.0203915573656559
1751013955568358400,8.1363583984375,0.004399808589369059,-0.019333483651280403,0.032464466989040375
1751013955578302500,8.146302490234374,0.01799711026251316,-0.010746387764811516,0.03207670897245407
1751013955588245500,8.15624560546875,0.030726753175258636,-0.00043516053119674325,0.025311747565865517
1751013955598189300,8.166189208984376,0.038364168256521225,0.013741378672420979,0.021255487576127052
1751013955608133400,8.17613330078125,0.04387344792485237,0.029316077008843422,0.015087340027093887
1751013955618076400,8.186076416015625,0.0490248017013073,0.03333611786365509,0.013992514461278915
1751013955628020200,8.196020263671874,0.042084336280822754,0.0312708355486393,0.00888057705014944
1751013955637964300,8.20596435546875,0.02225949987769127,0.02544437348842621,-0.010465689934790134
1751013955647907300,8.2159072265625,-0.003891677362844348,0.014753379859030247,-0.04270085692405701
1751013955657851100,8.22585107421875,-0.03452868387103081,0.0032738239970058203,-0.07924049347639084
1751013955667795500,8.23579541015625,-0.05121311917901039,-0.010467554442584515,-0.1045977845788002
1751013955677738500,8.245738525390625,-0.04259273409843445,-0.03215234354138374,-0.12378106266260147
1751013955687682300,8.255682373046875,-0.06657982617616653,-0.06046174466609955,-0.1379179209470749
1751013955697626400,8.26562646484375,-0.08900177478790283,-0.0793752521276474,-0.14647598564624786
1751013955707569400,8.2755693359375,-0.07925407588481903,-0.08130470663309097,-0.13904203474521637
1751013955717513200,8.28551318359375,-0.042939476668834686,-0.06700965762138367,-0.11390606313943863
1751013955727457300,8.295457275390625,-0.004009122494608164,-0.04434855654835701,-0.0741349458694458
1751013955737400300,8.305400390625,0.015408516861498356,-0.024027837440371513,-0.02900182455778122
1751013955747344100,8.31534423828125,0.02526407688856125,-0.0073143718764185905,0.006592921447008848
1751013955757288200,8.3252880859375,0.023680562153458595,0.002540655666962266,0.029141373932361603
1751013955767231200,8.335231201171876,0.023035544902086258,0.010245180688798428,0.0330389104783535
1751013955777175600,8.345175537109375,0.027282753959298134,0.011413509026169777,0.030781880021095276
1751013955787119400,8.355119384765626,0.02961594983935356,0.003555852686986327,0.021404890343546867
1751013955797062400,8.3650625,0.027661988511681557,-0.0075548551976680756,0.009020392782986164
1751013955807006500,8.37500634765625,0.03205939754843712,-0.022879216820001602,-0.001657551503740251
1751013955816950300,8.3849501953125,0.028326179832220078,-0.031068436801433563,-0.01210033893585205
1751013955826893300,8.394893310546875,0.026217754930257797,-0.02786944806575775,-0.02382916584610939
1751013955836837400,8.40483740234375,0.024387365207076073,-0.020424848422408104,-0.02785986103117466
1751013955846781700,8.41478173828125,0.028480377048254013,-0.006097041070461273,-0.028244154527783394
1751013955856724700,8.424724853515626,0.038605980575084686,0.014191718772053719,-0.00580862071365118
1751013955866668800,8.434668701171875,0.04597148671746254,0.02034734934568405,0.02118518017232418
1751013955876612600,8.444612548828125,0.05198943242430687,0.025828400626778603,0.05379744991660118
1751013955886555600,8.4545556640625,0.058158379048109055,0.017844244837760925,0.08165491372346878
1751013955896499700,8.464499755859375,0.05627685412764549,0.008893094025552273,0.08149752020835876
1751013955906443500,8.474443603515626,0.05210048705339432,-0.007363373879343271,0.06046067923307419
1751013955916386600,8.484386474609375,0.04670252278447151,-0.012113387696444988,0.026216156780719757
1751013955926330600,8.49433056640625,0.03466849774122238,-0.00960016343742609,0.001731853699311614
1751013955936274400,8.5042744140625,0.0239572636783123,0.002304965863004327,-0.011195928789675236
1751013955946217500,8.514217529296875,0.009047823026776314,0.011048123240470886,-0.01022813655436039
1751013955956161800,8.524161865234374,-0.0005382248782552779,0.009618804790079594,-0.009643306024372578
1751013955966105600,8.534105712890625,-0.006779875606298447,0.011907525360584259,0.0010556770721450448
1751013955976048600,8.544048583984376,-0.0049284459091722965,0.010103234089910984,0.013703561387956142
1751013955985992700,8.55399267578125,-0.00028815402765758336,0.014938469044864178,0.02467764914035797
1751013955995936500,8.5639365234375,0.009159144014120102,0.024111460894346237,0.017349429428577423
1751013956005880600,8.573880615234375,0.02635197900235653,0.0418718159198761,0.013363742269575596
1751013956015823600,8.58382373046875,0.04103691503405571,0.058276355266571045,0.012769857421517372
1751013956025767700,8.593767578125,0.04013383761048317,0.068675197660923,0.010114951990544796
1751013956035710500,8.60371044921875,0.02810167521238327,0.06277789920568466,-0.003722300287336111
1751013956045654500,8.613654541015626,0.01961391419172287,0.0514376237988472,-0.01878007873892784
1751013956055598800,8.623598876953125,0.01034478284418583,0.05981326475739479,-0.04256583750247955
1751013956065542700,8.633542724609375,0.006876814644783735,0.07348939776420593,-0.06869437545537949
1751013956075485700,8.643485595703124,0.014609835110604763,0.09418162703514099,-0.10002220422029495
1751013956085429800,8.6534296875,0.023517576977610588,0.11374787241220474,-0.11563339084386826
1751013956095373600,8.66337353515625,0.027892084792256355,0.13993366062641144,-0.10716906189918518
1751013956105316600,8.673316650390625,0.030427414923906326,0.14409752190113068,-0.0971398651599884
1751013956115260700,8.6832607421875,0.033494312316179276,0.13466113805770874,-0.06854071468114853
1751013956125204500,8.69320458984375,0.028150411322712898,0.1096615195274353,-0.028720594942569733
1751013956135147500,8.7031474609375,0.024457672610878944,0.07945194840431213,0.01716007851064205
1751013956145091600,8.713091552734374,0.009494967758655548,0.06021567061543465,0.05455538630485535
1751013956155035600,8.72303564453125,-0.0023521038237959146,0.04959950968623161,0.06928613036870956
1751013956164978700,8.732978759765626,-0.016570987179875374,0.03033500164747238,0.036554016172885895
1751013956174922800,8.7429228515625,-0.028603948652744293,0.011202586814761162,-0.013873204588890076
1751013956184866600,8.752866455078125,-0.024324780330061913,-0.002298840554431081,-0.056957826018333435
1751013956194809600,8.7628095703125,-0.027633491903543472,-0.012040683999657631,-0.0665220320224762
1751013956204753700,8.772753662109375,-0.04261430725455284,-0.028720062226057053,-0.06420961022377014
1751013956214697500,8.782697509765624,-0.061173342168331146,-0.04403350502252579,-0.03929121419787407
1751013956224640500,8.792640625,-0.06790447980165482,-0.05872243642807007,-0.008716526441276073
1751013956234584600,8.80258447265625,-0.05741562321782112,-0.06114724278450012,0.021446969360113144
1751013956244528600,8.812528564453125,-0.05162830650806427,-0.05970647186040878,0.0323246493935585
1751013956254471400,8.822471435546875,-0.03675907850265503,-0.0628545954823494,0.04387984052300453
1751013956264415700,8.832415771484374,-0.022761238738894463,-0.06311265379190445,0.05506298691034317
1751013956274359800,8.84235986328125,-0.013778396882116795,-0.04857232794165611,0.05874001234769821
1751013956284302600,8.852302490234376,-0.017847971990704536,-0.04416000470519066,0.03724004700779915
1751013956294246700,8.86224658203125,-0.025285648182034492,-0.0524299181997776,-0.006400907412171364
1751013956304190700,8.872190673828126,-0.02388855442404747,-0.05548616126179695,-0.05127676948904991
1751013956314133800,8.8821337890625,-0.01564686931669712,-0.05185361206531525,-0.08578947186470032
1751013956324077600,8.89207763671875,0.0011028150329366326,-0.044731251895427704,-0.10984740406274796
1751013956334021600,8.902021728515624,0.014811436645686626,-0.027644943445920944,-0.11398089677095413
1751013956343964700,8.911964599609375,0.022175876423716545,0.007774033583700657,-0.09410572797060013
1751013956353908500,8.921908447265626,0.007586813066154718,0.03167111054062843,-0.07324837893247604
1751013956363852800,8.931852783203125,0.0031225562561303377,0.020607540383934975,-0.03195766732096672
1751013956373795600,8.941795654296875,0.018502311781048775,0.022846726700663567,0.01444019190967083
1751013956383739600,8.95173974609375,0.03359124809503555,0.026163959875702858,0.05349038913846016
1751013956393683700,8.96168359375,0.038248054683208466,0.02833976224064827,0.07174742221832275
1751013956403626800,8.971626708984376,0.030190126970410347,0.012695289216935635,0.07680636644363403
1751013956413570600,8.981570556640625,0.01395629532635212,0.0029465213883668184,0.07438048720359802
1751013956423514600,8.9915146484375,0.01209634356200695,0.009885653853416443,0.08369143307209015
1751013956433458700,9.001458740234375,0.0075484635308384895,0.022070948034524918,0.08466215431690216
1751013956443401500,9.0114013671875,0.008073372766375542,0.029090773314237595,0.07391470670700073
1751013956453345500,9.021345458984374,0.007954861968755722,0.04054209962487221,0.06108705699443817
1751013956463289900,9.031289794921875,0.007930094376206398,0.03894287347793579,0.04063611105084419
1751013956473232600,9.041232666015626,-0.0021632856223732233,0.012653743848204613,0.021701833233237267
1751013956483176700,9.0511767578125,-0.015335014089941978,-0.009588977321982384,0.007785751484334469
1751013956493120800,9.061120849609376,-0.025297632440924644,-0.017680460587143898,-0.005367068573832512
1751013956503063600,9.0710634765625,-0.03400270640850067,-0.030730215832591057,-0.020535368472337723
1751013956513007600,9.081007568359375,-0.03712473064661026,-0.03937830030918121,-0.03335156664252281
1751013956522951700,9.09095166015625,-0.04115595668554306,-0.040236104279756546,-0.03994927927851677
1751013956532894700,9.100894775390625,-0.03452282398939133,-0.026102440431714058,-0.037518080323934555
1751013956542838500,9.110838623046876,-0.02954004891216755,-0.0012159993639215827,-0.033367011696100235
1751013956552782600,9.120782470703125,-0.024171914905309677,0.021347099915146828,-0.03807707875967026
1751013956562725600,9.1307255859375,-0.026271285489201546,0.04256104305386543,-0.0586840845644474
1751013956572669700,9.140669677734374,-0.02587527222931385,0.036072514951229095,-0.08818445354700089
1751013956582613800,9.15061376953125,-0.0332341194152832,0.023255521431565285,-0.12437441200017929
1751013956592556800,9.160556884765626,-0.02671443484723568,0.016866331920027733,-0.139629527926445
1751013956602500600,9.17050048828125,-0.007132744416594505,0.014091051183640957,-0.1327923983335495
1751013956612444700,9.180444580078126,0.01239009015262127,0.01480664312839508,-0.1033271849155426
1751013956622387700,9.1903876953125,0.03846057504415512,0.021738052368164062,-0.06822539120912552
1751013956632331500,9.20033154296875,0.04547933489084244,0.01637338101863861,-0.0392877496778965
1751013956642275600,9.210275634765624,0.04436640068888664,0.009484848007559776,-0.024821460247039795
1751013956652218600,9.220218505859375,0.043350670486688614,0.012416722252964973,-0.022531408816576004
1751013956662162400,9.230162353515626,0.04619625583291054,0.013018330559134483,-0.02365978993475437
1751013956672106800,9.240106689453125,0.0466841496527195,0.017528926953673363,-0.029389047995209694
1751013956682049500,9.250049560546875,0.04993799701333046,0.023518376052379608,-0.031437549740076065
1751013956691993600,9.25999365234375,0.05711947754025459,0.023547403514385223,-0.03430843725800514
1751013956701937700,9.269937744140625,0.06507274508476257,0.026205504313111305,-0.022641928866505623
1751013956711880700,9.279880615234376,0.06029156967997551,0.016819193959236145,-0.01537735853344202
1751013956721824800,9.28982470703125,0.0414571613073349,-0.005092496518045664,-0.022354042157530785
1751013956731768600,9.2997685546875,0.017679395154118538,-0.02418123558163643,-0.02327629365026951
1751013956741712600,9.309712646484375,-0.007573497481644154,-0.03244901821017265,-0.026098178699612617
1751013956751655700,9.31965576171875,-0.030166424810886383,-0.044370125979185104,-0.023320501670241356
1751013956761599500,9.329599609375,-0.052744172513484955,-0.048280980437994,-0.028733111917972565
1751013956771543800,9.339543701171875,-0.06190118566155434,-0.04802318662405014,-0.026999659836292267
1751013956781486600,9.349486572265626,-0.04348808899521828,-0.038361769169569016,-0.029207153245806694
1751013956791430700,9.3594306640625,-0.017771540209650993,-0.025422802194952965,-0.02425900101661682
1751013956801374700,9.369374755859376,0.004129763692617416,-0.012953882105648518,-0.018382469192147255
1751013956811317800,9.37931787109375,0.016878582537174225,-0.007792941760271788,-0.01871163584291935
1751013956821261600,9.389261474609375,0.020488230511546135,-0.004093278665095568,-0.026489663869142532
1751013956831205600,9.39920556640625,0.015854330733418465,-0.0012937636347487569,-0.03597051650285721
1751013956841148700,9.409148681640625,0.0028666264843195677,-0.005886651109904051,-0.04977314919233322
1751013956851092000,9.419092041015626,-0.0073071811348199844,-0.006027265917509794,-0.05684810131788254
1751013956861035800,9.429035888671875,-0.015196530148386955,-0.00364666641689837,-0.05973150581121445
1751013956870978800,9.438978759765625,-0.013337909244000912,-0.0029949909076094627,-0.060029514133930206
1751013956880923000,9.4489228515625,-0.0181124247610569,-0.01858620159327984,-0.06344687938690186
1751013956890866700,9.45886669921875,-0.018372615799307823,-0.025602566078305244,-0.060613811016082764
1751013956900809700,9.468809814453126,-0.01739789918065071,-0.03389032185077667,-0.05179688334465027
1751013956910753800,9.47875390625,-0.014937936328351498,-0.03961052745580673,-0.03910266235470772
1751013956920697600,9.488697509765625,-0.014214621856808662,-0.04123745113611221,-0.023315176367759705
1751013956930640600,9.498640625,-0.010034791193902493,-0.0319635272026062,-0.012491823174059391
1751013956940584700,9.508584716796875,-0.006651777308434248,-0.023378560319542885,-0.008131962269544601
1751013956950528800,9.51852880859375,-0.0054847802966833115,-0.00814767461270094,-0.0011179950088262558
1751013956960472800,9.528472900390625,-0.0000804274677648209,0.007270163390785456,-0.00250470289029181
1751013956970415900,9.538415771484376,0.008310394361615181,0.012860937044024467,-0.007800931576639414
1751013956980359700,9.548359619140625,0.02112206257879734,0.00881985668092966,-0.01266705896705389
1751013956990303700,9.5583037109375,0.03067854978144169,0.012805543839931488,-0.024631842970848083
1751013957000246800,9.568246826171874,0.03725389391183853,0.021082915365695953,-0.03431722894310951
1751013957010190800,9.57819091796875,0.041737593710422516,0.0039292280562222,-0.034926291555166245
1751013957020134700,9.588134765625,0.030437534675002098,-0.02387816831469536,-0.02695412002503872
1751013957030077700,9.59807763671875,0.009641707874834538,-0.03695082664489746,-0.004620318301022053
1751013957040021800,9.608021728515626,-0.0020548950415104628,-0.03576279059052467,0.018519621342420578
1751013957049965800,9.6179658203125,-0.006929545197635889,-0.031328096985816956,0.03573296219110489
1751013957059908900,9.627908935546875,-0.0019267969764769077,-0.024923192337155342,0.03664270043373108
1751013957069853000,9.63785302734375,0.00284984870813787,-0.024746624752879143,0.03530179709196091
1751013957079796700,9.647796630859375,0.010852381587028503,-0.01986638270318508,0.03021516092121601
1751013957089739800,9.65773974609375,0.017621604725718498,-0.016624249517917633,0.032768331468105316
1751013957099683800,9.667683837890625,0.011888351291418076,-0.015443405136466026,0.0332314558327198
1751013957109627600,9.677627685546875,0.0015614113071933389,-0.01360262744128704,0.03177923336625099
1751013957119570700,9.68757080078125,0.0004593952908180654,0.0033862092532217503,0.024702150374650955
1751013957129514800,9.6975146484375,0.018622687086462975,0.02310531958937645,0.018456771969795227
1751013957139458600,9.70745849609375,0.03387700766324997,0.045708898454904556,0.012620720081031322
1751013957149401600,9.717401611328125,0.03490472212433815,0.0594438873231411,0.004102599807083607
1751013957159346000,9.727345947265626,0.015956062823534012,0.04992574825882912,-0.0071005201898515224
1751013957169289700,9.737289794921875,-0.0052110073156654835,0.03267698734998703,-0.01001907791942358
1751013957179233800,9.74723388671875,-0.020553478971123695,0.01386841107159853,-0.008414523676037788
1751013957189176800,9.7571767578125,-0.028966138139367104,-0.005270129535347223,-0.007532484829425812
1751013957199120600,9.76712060546875,-0.03842834755778313,-0.024472054094076157,-0.007443535141646862
1751013957209064700,9.777064697265626,-0.03752686828374863,-0.03255900740623474,-0.013047358952462673
1751013957219007700,9.7870078125,-0.03383572772145271,-0.022823290899395943,-0.02208985574543476
1751013957228951800,9.796951904296876,-0.018035726621747017,-0.0062975771725177765,-0.031201329082250595
1751013957238895600,9.8068955078125,0.0016996293561533093,0.010394318029284477,-0.025961292907595634
1751013957248838700,9.816838623046875,0.013312876224517822,0.031987227499485016,-0.022649120539426804
1751013957258783000,9.826782958984374,0.024522386491298676,0.0486021563410759,-0.014190121553838253
1751013957268726800,9.836726806640625,0.03146125376224518,0.06125962734222412,-0.008403871208429337
1751013957278669800,9.846669921875,0.03471190854907036,0.0698254182934761,-0.006275472696870565
1751013957288614000,9.85661376953125,0.03847202658653259,0.07161879539489746,-0.015445801429450512
1751013957298557700,9.8665576171875,0.03229641914367676,0.06642402708530426,-0.04035807400941849
1751013957308500700,9.876500732421874,0.03160985931754112,0.06040848419070244,-0.06572867929935455
1751013957318444800,9.88644482421875,0.018796324729919434,0.05408880114555359,-0.07942451536655426
1751013957328388600,9.896388671875,0.010037187486886978,0.03838707134127617,-0.08943800628185272
1751013957338331600,9.90633154296875,0.00041731735109351575,0.01053067110478878,-0.07614883035421371
1751013957348275700,9.916275634765626,-0.014574947766959667,-0.0030242856591939926,-0.05103122442960739
1751013957358219800,9.9262197265625,-0.014460165984928608,-0.008623049594461918,-0.023035278543829918
1751013957368163800,9.936163818359375,-0.005363606382161379,-0.006877613253891468,-0.0049795787781476974
1751013957378107000,9.94610693359375,0.002380866091698408,-0.0075780246406793594,0.0024682176299393177
1751013957388050700,9.95605078125,0.0013225257862359285,-0.008831574581563473,-0.0067878649570047855
1751013957397994800,9.965994873046874,0.004514324478805065,-0.0014945659786462784,-0.021879998967051506
1751013957407937800,9.975937744140625,0.004166515544056892,0.01004837267100811,-0.040226515382528305
1751013957417881600,9.985881591796876,0.005004612263292074,0.013532586395740509,-0.0503649041056633
1751013957427825700,9.99582568359375,0.001710814656689763,0.0034469293896108866,-0.05848514661192894
1751013957437768700,10.005768798828125,-0.007849400863051414,-0.011174890212714672,-0.056722402572631836
1751013957447712800,10.015712646484374,-0.028748556971549988,-0.022538598626852036,-0.051896221935749054
1751013957457656800,10.02565673828125,-0.047211188822984695,-0.028314728289842606,-0.04055781289935112
1751013957467600000,10.035599853515626,-0.05209062993526459,-0.031384021043777466,-0.031152060255408287
1751013957477544000,10.0455439453125,-0.05078568309545517,-0.030895598232746124,-0.023677632212638855
1751013957487487700,10.05548779296875,-0.04115862026810646,-0.027652932330965996,-0.01835850067436695
1751013957497430800,10.0654306640625,-0.02664812281727791,-0.018567558377981186,-0.01937289908528328
1751013957507374800,10.075374755859375,-0.018375545740127563,0.004741491749882698,-0.012854811735451221
1751013957517318700,10.085318603515624,-0.010432933457195759,0.018787536770105362,-0.010675281286239624
1751013957527261700,10.09526171875,-0.01689775660634041,0.01932123303413391,-0.010617224499583244
1751013957537205800,10.105205810546876,-0.019401127472519875,0.006109291687607765,0.0013662016717717052
1751013957547149600,10.115149658203125,-0.0159456767141819,-0.005661880597472191,0.01992497220635414
1751013957557094000,10.125093994140625,-0.00649598240852356,-0.02064455859363079,0.05289330706000328
1751013957567037000,10.135036865234374,-0.020248014479875565,-0.025593243539333344,0.08216091245412827
1751013957576980700,10.144980712890625,-0.025299496948719025,-0.035053059458732605,0.10960159450769424
1751013957586924800,10.1549248046875,-0.027417508885264397,-0.04908924922347069,0.12514540553092957
1751013957596867800,10.164867919921875,-0.028268655762076378,-0.06191343441605568,0.14203037321567535
1751013957606811600,10.174811767578126,-0.03280907869338989,-0.07224783301353455,0.16047756373882294
1751013957616755700,10.184755615234375,-0.032391227781772614,-0.09451771527528763,0.18226994574069977
1751013957626698800,10.19469873046875,-0.04458238184452057,-0.10628729313611984,0.1941516399383545
1751013957636642800,10.204642822265624,-0.06404236704111099,-0.09949596226215363,0.16995947062969208
1751013957646586600,10.214586669921875,-0.08528533577919006,-0.10837707668542862,0.1200941801071167
1751013957656529700,10.22452978515625,-0.10834884643554688,-0.11240803450345993,0.04878911003470421
1751013957666474000,10.234473876953125,-0.11544803529977798,-0.11029055714607239,-0.03495239093899727
1751013957676417800,10.244417724609375,-0.11524536460638046,-0.09161566942930222,-0.0970836728811264
1751013957686360800,10.25436083984375,-0.09373927861452103,-0.056179650127887726,-0.13995231688022614
1751013957696305000,10.264304931640625,-0.058935221284627914,-0.01266972254961729,-0.147846981883049
1751013957706248700,10.274248779296874,-0.024647822603583336,0.03320775553584099,-0.13013003766536713
1751013957716192800,10.28419287109375,0.005093029234558344,0.07482150942087173,-0.09705784171819687
1751013957726135800,10.2941357421875,0.033182453364133835,0.10367739200592041,-0.05548083409667015
1751013957736079600,10.30407958984375,0.04464869573712349,0.1103837639093399,-0.016267387196421623
1751013957746023700,10.314023681640625,0.04235890880227089,0.10277458280324936,0.01025689858943224
1751013957755966700,10.323966796875,0.03858307749032974,0.09037356823682785,0.03135872259736061
1751013957765910800,10.333910888671875,0.034211765974760056,0.08248262852430344,0.04204252362251282
1751013957775854800,10.343854736328124,0.02689845860004425,0.0750577300786972,0.03501790389418602
1751013957785798000,10.3537978515625,0.020120713859796524,0.06408524513244629,0.013825002126395702
1751013957795741700,10.36374169921875,0.004030427895486355,0.05355563759803772,-0.02628832869231701
1751013957805685800,10.373685791015625,-0.014941665343940258,0.04719867184758186,-0.06529085338115692
1751013957815628800,10.38362890625,-0.038900259882211685,0.04303668439388275,-0.1087869331240654
1751013957825572600,10.393572509765624,-0.053470682352781296,0.0226813443005085,-0.1417773813009262
1751013957835516700,10.4035166015625,-0.0622900053858757,0.0006713828770443797,-0.14792580902576447
1751013957845460000,10.4134599609375,-0.06556303054094315,-0.020749486982822418,-0.12975160777568817
1751013957855403800,10.42340380859375,-0.06599899381399155,-0.04306437820196152,-0.08506003022193909
1751013957865347800,10.433347900390626,-0.059964798390865326,-0.05648404732346535,-0.03658118098974228
1751013957875292200,10.443292236328125,-0.05127570405602455,-0.0604630783200264,0.01443912647664547
1751013957885235000,10.45323486328125,-0.041904840618371964,-0.0532485730946064,0.050869572907686234
1751013957895179000,10.463178955078124,-0.035711392760276794,-0.03568955510854721,0.06863179057836533
1751013957905123000,10.473123046875,-0.019396867603063583,-0.012144546955823898,0.0737392008304596
1751013957915066000,10.483066162109376,0.00020106865849811584,0.011448130942881107,0.06610658019781113
1751013957925010000,10.493010009765625,0.023085877299308777,0.037872280925512314,0.05255242437124252
1751013957934954000,10.5029541015625,0.03790637105703354,0.06084710359573364,0.03719370812177658
1751013957944897000,10.51289697265625,0.04405907168984413,0.06889224797487259,0.017769942060112953
1751013957954840800,10.5228408203125,0.045583996921777725,0.06332437694072723,-0.004491953644901514
1751013957964785000,10.532784912109374,0.03544134646654129,0.05068261921405792,-0.026282204315066338
1751013957974728000,10.54272802734375,0.026700586080551147,0.031126493588089943,-0.0453118197619915
1751013957984672000,10.552672119140626,0.018556106835603714,0.014109959825873375,-0.052441369742155075
1751013957994616000,10.562615966796875,-0.00046631949953734875,0.00347489258274436,-0.04487799108028412
1751013958004559000,10.57255908203125,-0.01010962575674057,-0.005338306538760662,-0.024803083389997482
1751013958014503000,10.5825029296875,-0.016892431303858757,0.0005278385360725224,0.0024170849937945604
1751013958024447000,10.592447021484375,-0.013166934251785278,0.010276872664690018,0.028234567493200302
1751013958034391000,10.60239111328125,0.00281948852352798,0.020054135471582413,0.05614875629544258
1751013958044333800,10.612333740234375,0.0234691072255373,0.03259815648198128,0.07360950857400894
1751013958054278000,10.62227783203125,0.04135383293032646,0.04038683697581291,0.07563643902540207
1751013958064222000,10.632221923828125,0.04855262115597725,0.04562687501311302,0.055041149258613586
1751013958074165000,10.6421650390625,0.04923092946410179,0.0410022959113121,0.022699452936649323
1751013958084109000,10.652109130859374,0.045460958033800125,0.037825942039489746,-0.0049135321751236916
1751013958094053000,10.66205322265625,0.039200667291879654,0.03413453325629234,-0.019897807389497757
1751013958103996200,10.67199609375,0.019903134554624557,0.023613451048731804,-0.02075774222612381
1751013958113940000,10.68193994140625,0.005474127363413572,0.007354851812124252,-0.021770009770989418
1751013958123884000,10.691884033203126,-0.010278736241161823,0.005474660079926252,-0.016381902620196342
1751013958133827000,10.7018271484375,-0.01678856648504734,0.005548429675400257,-0.011122159659862518
1751013958143771000,10.71177099609375,-0.010966897010803223,0.008845156989991665,-0.003641073824837804
1751013958153715000,10.72171484375,-0.0023228090722113848,0.01908101700246334,0.004545749630779028
1751013958163658800,10.73165869140625,0.022415293380618095,0.036561738699674606,0.019509518519043922
1751013958173601800,10.741601806640626,0.042262766510248184,0.05397481843829155,0.039866190403699875
1751013958183546000,10.751546142578125,0.05150074139237404,0.06685066968202591,0.04843810573220253
1751013958193490000,10.761489990234375,0.061649516224861145,0.07143503427505493,0.048948634415864944
1751013958203433000,10.771432861328124,0.06966403126716614,0.07284917682409286,0.0489044263958931
1751013958213377000,10.781376953125,0.0742846205830574,0.07449207454919815,0.045401569455862045
1751013958223321000,10.791321044921874,0.07257407158613205,0.06993194669485092,0.03648131340742111
1751013958233263900,10.801263916015625,0.06077626347541809,0.05661241337656975,0.026859045028686523
1751013958243208000,10.8112080078125,0.036259736865758896,0.030050843954086304,-0.0032951291650533676
1751013958253152000,10.821152099609375,0.009517339058220387,-0.016566725447773933,-0.04412884637713432
1751013958263094800,10.8310947265625,-0.010629208758473396,-0.03291826695203781,-0.06492413580417633
1751013958273038800,10.841038818359374,-0.0549284964799881,0.08967209607362747,0.11903877556324005
1751013958282983200,10.850983154296875,-0.07685483247041702,-0.12199248373508453,0.12764371931552887
1751013958292926000,10.860926025390626,-0.09184576570987701,-0.28695908188819885,0.05850725248456001
1751013958302870000,10.8708701171875,-0.07267287373542786,-0.22366638481616974,0.035116441547870636
1751013958312814000,10.88081396484375,-0.032097749412059784,-0.1644374132156372,-0.006690126843750477
1751013958322758000,10.8907578125,-0.007895207032561302,-0.1482027769088745,-0.08930377662181854
1751013958332701000,10.900700927734375,0.010289921425282955,-0.0929403230547905,-0.1624981015920639
1751013958342645000,10.91064501953125,0.0352056585252285,0.0012476909905672073,-0.19603848457336426
1751013958352588800,10.9205888671875,0.06264980137348175,0.09618725627660751,-0.1809072047472
