time,seconds_elapsed,z,y,x
1751013984519283200,0.118283203125,0.038229409605264664,-0.0499555766582489,-0.01236239355057478
1751013984529227300,0.128227294921875,-0.0013795174891129136,-0.06114830821752548,-0.039626505225896835
1751013984539171300,0.13817138671875,-0.0382499173283577,-0.06275606155395508,-0.03296726942062378
1751013984549114000,0.148114013671875,-0.07845140248537064,-0.07868708670139313,0.008695753291249275
1751013984559058400,0.158058349609375,-0.12088141590356827,-0.09819074720144272,0.055034488439559937
1751013984569002500,0.16800244140625,-0.15372352302074432,-0.1289750337600708,0.10096230357885361
1751013984578946300,0.1779462890625,-0.17655639350414276,-0.14793220162391663,0.14495691657066345
1751013984588889300,0.187889404296875,-0.1889917552471161,-0.15006886422634125,0.17489591240882874
1751013984598833400,0.19783349609375,-0.18935874104499817,-0.1437414586544037,0.1781122088432312
1751013984608777200,0.207777099609375,-0.18053275346755981,-0.12948688864707947,0.16105014085769653
1751013984618721300,0.21772119140625,-0.1626802533864975,-0.10929080098867416,0.1303233802318573
1751013984628664300,0.227664306640625,-0.14266154170036316,-0.08878526091575623,0.08614260703325272
1751013984638608100,0.237608154296875,-0.13088850677013397,-0.07735683768987656,0.026738936081528664
1751013984648552400,0.247552490234375,-0.12147263437509537,-0.07131492346525192,-0.03140585869550705
1751013984658496300,0.257496337890625,-0.10384943336248398,-0.051898352801799774,-0.080656498670578
1751013984668439300,0.267439208984375,-0.07575920969247818,-0.024447819218039513,-0.10702898353338242
1751013984678383400,0.27738330078125,-0.05603211000561714,-0.0030828751623630524,-0.10231385380029678
1751013984688327400,0.287327392578125,-0.03941318765282631,0.009406550787389278,-0.07015804946422577
1751013984698271200,0.297271240234375,-0.029647640883922577,0.019639747217297554,-0.02544277533888817
1751013984708214300,0.30721435546875,-0.03364584594964981,0.016941698268055916,-0.0019491675775498152
1751013984718158300,0.317158447265625,-0.05553676187992096,0.0010189254535362124,-0.009393502026796341
1751013984728102100,0.32710205078125,-0.08320967108011246,-0.024166056886315346,-0.03712952509522438
1751013984738046500,0.33704638671875,-0.11673886328935623,-0.04916541650891304,-0.07450032979249954
1751013984747989500,0.346989501953125,-0.1358281373977661,-0.06454303860664368,-0.09694518893957138
1751013984757933300,0.356933349609375,-0.1328137069940567,-0.06781952828168869,-0.09744000434875488
1751013984767877400,0.36687744140625,-0.10722951591014862,-0.06731485575437546,-0.08711493015289307
1751013984777821200,0.3768212890625,-0.08527760952711105,-0.07994383573532104,-0.06314834207296371
1751013984787764200,0.38676416015625,-0.06793271005153656,-0.06661418080329895,-0.02755386382341385
1751013984797708300,0.396708251953125,-0.05354924499988556,-0.03991785645484924,0.008823052980005741
1751013984807652400,0.40665234375,-0.05035771429538727,-0.006278402172029018,0.037939127534627914
1751013984817596400,0.416596435546875,-0.05019472539424896,0.018211761489510536,0.05156625434756279
1751013984827539200,0.426539306640625,-0.056714944541454315,0.019299928098917007,0.038421157747507095
1751013984837483500,0.4364833984375,-0.06741872429847717,0.0019883159548044205,0.009041165933012962
1751013984847427300,0.44642724609375,-0.08293163776397705,-0.03513588383793831,-0.010418286547064781
1751013984857371400,0.456371337890625,-0.09645010530948639,-0.04776912182569504,-0.01146623957902193
1751013984867314400,0.466314453125,-0.10801061987876892,-0.054980695247650146,0.0020562265999615192
1751013984877256700,0.476256591796875,-0.10860610753297806,-0.04502633213996887,0.018673818558454514
1751013984887200500,0.486200439453125,-0.10058173537254333,-0.026697658002376556,0.02629605308175087
1751013984897143600,0.4961435546875,-0.07432349771261215,0.013981329277157784,0.02214951068162918
1751013984907087600,0.506087646484375,-0.041802842170000076,0.05414605885744095,0.002438656520098448
1751013984917031400,0.516031494140625,-0.002055960241705179,0.08629866689443588,-0.024234233424067497
1751013984926975500,0.5259755859375,0.038551121950149536,0.11091959476470947,-0.048661813139915466
1751013984936918500,0.53591845703125,0.06258668005466461,0.12800642848014832,-0.0636277124285698
1751013984946862300,0.5458623046875,0.0674232468008995,0.12907302379608154,-0.07704285532236099
1751013984956806700,0.555806640625,0.06253102421760559,0.1174139752984047,-0.09272514283657074
1751013984966750700,0.565750732421875,0.04639333114027977,0.09558085352182388,-0.10926151275634766
1751013984976693500,0.575693603515625,0.0239412859082222,0.07022515684366226,-0.1252543181180954
1751013984986637600,0.585637451171875,-0.006894657853990793,0.04770706966519356,-0.13810834288597107
1751013984996581600,0.59558154296875,-0.04092346504330635,0.018750784918665886,-0.14989708364009857
1751013985006525400,0.605525390625,-0.07519568502902985,-0.0056799896992743015,-0.14865392446517944
1751013985016468500,0.615468505859375,-0.0928974524140358,-0.019584087654948235,-0.12665541470050812
1751013985026412500,0.62541259765625,-0.09579763561487198,-0.020500214770436287,-0.09222020953893661
1751013985036356600,0.635356689453125,-0.08991444110870361,-0.030585872009396553,-0.06778783351182938
1751013985046300700,0.64530078125,-0.07986021041870117,-0.04686124995350838,-0.049194175750017166
1751013985056243700,0.65524365234375,-0.06268148869276047,-0.05426856502890587,-0.040037963539361954
1751013985066187500,0.6651875,-0.0528259314596653,-0.05868914723396301,-0.0396462120115757
1751013985076131600,0.675131591796875,-0.04511315003037453,-0.04585190862417221,-0.034929756075143814
1751013985086075600,0.68507568359375,-0.05049779638648033,-0.02117532677948475,-0.032825857400894165
1751013985096018400,0.695018310546875,-0.05531252548098564,0.005781456362456083,-0.04380606859922409
1751013985105962500,0.70496240234375,-0.05775171145796776,0.020421119406819344,-0.056778062134981155
1751013985115906600,0.714906494140625,-0.06493265926837921,0.026673955842852592,-0.08222856372594833
1751013985125850600,0.7248505859375,-0.08138034492731094,0.023607058450579643,-0.11113477498292923
1751013985135793700,0.734793701171875,-0.1105819046497345,0.02088264562189579,-0.1516619622707367
1751013985145737700,0.74473779296875,-0.13291943073272705,0.020138558000326157,-0.1840990036725998
1751013985155681500,0.754681640625,-0.13646969199180603,0.02773895300924778,-0.18016044795513153
1751013985165625600,0.76462548828125,-0.11948298662900925,0.031505994498729706,-0.1452472060918808
1751013985175568600,0.774568603515625,-0.08889365196228027,0.054356448352336884,-0.10146164149045944
1751013985185512400,0.784512451171875,-0.047088149935007095,0.07214583456516266,-0.07032635807991028
1751013985195456500,0.79445654296875,-0.020652281120419502,0.07751263678073883,-0.06414489448070526
1751013985205399600,0.804399658203125,-0.03002394549548626,0.05943163484334946,-0.08974266797304153
1751013985215343400,0.81434326171875,-0.047200802713632584,0.03211692348122597,-0.1098194420337677
1751013985225287700,0.82428759765625,-0.0650852620601654,0.017851168289780617,-0.10162729024887085
1751013985235231700,0.834231689453125,-0.08450529724359512,0.015235411934554577,-0.07038335502147675
1751013985245174500,0.844174560546875,-0.09834147989749908,0.013349360786378384,-0.03563842177391052
1751013985255118600,0.85411865234375,-0.10650034248828888,0.0075788237154483795,0.009309079498052597
1751013985265062700,0.864062744140625,-0.11571461707353592,-0.004870122764259577,0.03642192482948303
1751013985275006500,0.87400634765625,-0.1150919646024704,-0.010875551030039787,0.0435757078230381
1751013985284949500,0.883949462890625,-0.1100655198097229,-0.020623253658413887,0.043410591781139374
1751013985294893600,0.8938935546875,-0.09948770701885223,-0.02749793790280819,0.03380456939339638
1751013985304837400,0.90383740234375,-0.09413129091262817,-0.022124476730823517,0.026161562651395798
1751013985314781700,0.91378173828125,-0.0871836394071579,-0.022899722680449486,0.016592824831604958
1751013985324724700,0.923724853515625,-0.08050230145454407,-0.017223728820681572,0.016259662806987762
1751013985334668500,0.93366845703125,-0.08164026588201523,-0.01900857873260975,0.010362093336880207
1751013985344612600,0.943612548828125,-0.08103945851325989,-0.029083583503961563,0.0018964370246976614
1751013985354556700,0.953556640625,-0.06775614619255066,-0.03652045875787735,0.01050430629402399
1751013985364499500,0.96349951171875,-0.05005970597267151,-0.031081220135092735,0.0326511524617672
1751013985374443500,0.973443603515625,-0.03320988640189171,-0.016998158767819405,0.055030763149261475
1751013985384387600,0.9833876953125,-0.021877335384488106,-0.012953083030879498,0.06482426822185516
1751013985394331400,0.993331298828125,-0.005308479070663452,-0.007136472500860691,0.07058309018611908
1751013985404274400,1.0032744140625,-0.001689509372226894,-0.0030218889005482197,0.06672629714012146
1751013985414218800,1.01321875,-0.007441937457770109,-0.0012476909905672073,0.05108661949634552
1751013985424162600,1.02316259765625,-0.01386814471334219,-0.012967463582754135,0.03431536257266998
1751013985434106600,1.033106689453125,-0.017976338043808937,-0.02731577679514885,0.01648603193461895
1751013985444049700,1.043049560546875,-0.0162466149777174,-0.055334094911813736,0.020309265702962875
1751013985453993500,1.052993408203125,-0.005908489227294922,-0.07495227456092834,0.022464828565716743
1751013985463937500,1.0629375,0.014800784178078175,-0.08388238400220871,0.04134025052189827
1751013985473881600,1.072881591796875,0.038065358996391296,-0.07432669401168823,0.06892607361078262
1751013985483824400,1.082824462890625,0.044744301587343216,-0.056051019579172134,0.09593531489372253
1751013985493768400,1.0927685546875,0.04878857731819153,-0.03967444226145744,0.11268527060747147
1751013985503712800,1.102712646484375,0.0461946576833725,-0.028919799253344536,0.11285917460918427
1751013985513655600,1.112655517578125,0.04361831769347191,-0.024770859628915787,0.09988424926996231
1751013985523599600,1.122599609375,0.03905019536614418,-0.03243783488869667,0.0787893533706665
1751013985533543700,1.132543701171875,0.030368026345968246,-0.036256276071071625,0.06314274668693542
1751013985543487500,1.142487548828125,0.02875441685318947,-0.043841756880283356,0.04754461720585823
1751013985553430500,1.152430419921875,0.028734974563121796,-0.05204961821436882,0.037999048829078674
1751013985563374600,1.16237451171875,0.031324099749326706,-0.051712993532419205,0.03555746003985405
1751013985573318400,1.172318359375,0.041788991540670395,-0.04030933976173401,0.02978852204978466
1751013985583262700,1.1822626953125,0.04380660131573677,-0.030479611828923225,0.02708354964852333
1751013985593205500,1.19220556640625,0.0390336848795414,-0.027533622458577156,0.018694059923291206
1751013985603149600,1.202149658203125,0.03713378682732582,-0.029946979135274887,0.01534513384103775
1751013985613093600,1.21209375,0.03809891641139984,-0.034140925854444504,0.013877199962735176
1751013985623037700,1.22203759765625,0.03671939671039581,-0.04265851527452469,0.022772956639528275
1751013985632980500,1.23198046875,0.030733678489923477,-0.05157344415783882,0.030473753809928894
1751013985642924500,1.241924560546875,0.027581559494137764,-0.05692213773727417,0.03495984897017479
1751013985652868600,1.25186865234375,0.025188177824020386,-0.054366569966077805,0.03671753406524658
1751013985662812400,1.2618125,0.0212435033172369,-0.05113109573721886,0.030957650393247604
1751013985672755500,1.27175537109375,0.012134693562984467,-0.04597415030002594,0.021206218749284744
1751013985682699800,1.28169970703125,0.007965780794620514,-0.040158871561288834,0.006269081030040979
1751013985692643600,1.2916435546875,-0.0020511667244136333,-0.03513561561703682,-0.005892243701964617
1751013985702587600,1.301587646484375,-0.012339490465819836,-0.04194558411836624,-0.028073180466890335
1751013985712530700,1.31153076171875,-0.01895345188677311,-0.05193110927939415,-0.045819684863090515
1751013985722474500,1.321474609375,-0.018702315166592598,-0.06210464984178543,-0.04675978049635887
1751013985732418600,1.33141845703125,-0.020566793158650398,-0.06641364097595215,-0.04312616586685181
1751013985742361600,1.341361572265625,-0.021132981404662132,-0.07493336498737335,-0.03157204017043114
1751013985752305400,1.351305419921875,-0.022046180441975594,-0.07289498299360275,-0.01750682108104229
1751013985762249500,1.36124951171875,-0.025476597249507904,-0.06651537865400314,-0.004229898564517498
1751013985772193800,1.37119384765625,-0.027934694662690163,-0.053226470947265625,0.0016711335629224777
1751013985782136600,1.381136474609375,-0.024211063981056213,-0.03224315866827965,0.0009456885163672268
1751013985792080600,1.39108056640625,-0.023631826043128967,-0.013276390731334686,-0.010085657238960266
1751013985802024700,1.401024658203125,-0.023848874494433403,0.006651244591921568,-0.026647057384252548
1751013985811968500,1.410968505859375,-0.014505705796182156,0.04128272458910942,-0.055742889642715454
1751013985821911600,1.42091162109375,-0.005358013790100813,0.0770588293671608,-0.09231608361005783
1751013985831855600,1.430855712890625,0.007979363203048706,0.11367436498403549,-0.14217205345630646
1751013985841799400,1.44079931640625,0.04440528154373169,0.1630733460187912,-0.19165784120559692
1751013985851743500,1.450743408203125,0.08938074856996536,0.21024005115032196,-0.23774012923240662
1751013985861686500,1.4606865234375,0.12337865680456161,0.22990696132183075,-0.2675400972366333
1751013985871630600,1.470630615234375,0.13095562160015106,0.2038351595401764,-0.2808782756328583
1751013985881575200,1.4805751953125,0.11209937185049057,0.15286198258399963,-0.26755768060684204
1751013985891519000,1.49051904296875,0.07366622984409332,0.10384596884250641,-0.2146550416946411
1751013985901462000,1.5004619140625,0.02449761889874935,0.05423234403133392,-0.13336338102817535
1751013985911406000,1.510406005859375,-0.026574086397886276,0.013998373411595821,-0.03705815225839615
1751013985921350000,1.520349853515625,-0.07446544617414474,-0.031500402837991714,0.056286707520484924
1751013985931294000,1.5302939453125,-0.11239045858383179,-0.06865469366312027,0.1299675852060318
1751013985941237000,1.540237060546875,-0.13250531256198883,-0.09411957114934921,0.17010462284088135
1751013985951181000,1.55018115234375,-0.1282983124256134,-0.10260733217000961,0.16899141669273376
1751013985961125000,1.560125,-0.110908143222332,-0.09352569282054901,0.13684040307998657
1751013985971069200,1.570069091796875,-0.08776234090328217,-0.07850546389818192,0.08492154628038406
1751013985981012200,1.58001220703125,-0.0604790560901165,-0.059835903346538544,0.029938191175460815
1751013985990956000,1.5899560546875,-0.0413823276758194,-0.034576352685689926,-0.01792147569358349
1751013986000900000,1.599900146484375,-0.026380473747849464,-0.014198643155395985,-0.05780497565865517
1751013986010843100,1.609843017578125,-0.017240505665540695,0.0017097494564950466,-0.08896476030349731
1751013986020787000,1.619786865234375,-0.01690228469669819,0.007321296259760857,-0.10326726734638214
1751013986030731000,1.62973095703125,-0.01894439570605755,0.016716130077838898,-0.07974329590797424
1751013986040675000,1.639675048828125,-0.021467741578817368,0.02376232109963894,-0.03512736037373543
1751013986050618000,1.6496181640625,-0.030721161514520645,0.027690749615430832,0.03198855742812157
1751013986060562200,1.659562255859375,-0.036305010318756104,0.03519473969936371,0.10618849098682404
1751013986070506000,1.669506103515625,-0.040818534791469574,0.030944067984819412,0.1640629768371582
1751013986080450000,1.679449951171875,-0.04887779429554939,0.018802981823682785,0.19764304161071777
1751013986090393000,1.68939306640625,-0.057563960552215576,-0.0004876247840002179,0.19910351932048798
1751013986100337200,1.699337158203125,-0.06827706098556519,-0.01008059736341238,0.15831799805164337
1751013986110281000,1.709281005859375,-0.06765041500329971,-0.020797690376639366,0.09005691856145859
1751013986120225000,1.71922509765625,-0.05523156374692917,-0.020025106146931648,0.023738352581858635
1751013986130168000,1.72916796875,-0.034813106060028076,-0.010342651978135109,-0.04213546961545944
1751013986140112100,1.739112060546875,-0.01974068209528923,-0.0073535204865038395,-0.09231235086917877
1751013986150056200,1.74905615234375,-0.006881075445562601,-0.002231196267530322,-0.11370952427387238
1751013986160000000,1.759,-0.0011800467036664486,0.012237224727869034,-0.10455117374658585
1751013986169943000,1.768943115234375,0.000910268456209451,0.02467898093163967,-0.0703418105840683
1751013986179887000,1.77888720703125,-0.013596502132713795,0.03189561516046524,-0.030600786209106445
1751013986189831000,1.788830810546875,-0.024293622002005577,0.03003699518740177,0.006419549696147442
1751013986199774000,1.79877392578125,-0.0448811873793602,0.025723205879330635,0.02617754228413105
1751013986209718000,1.808718017578125,-0.059547483921051025,0.02137080207467079,0.029321936890482903
1751013986219662000,1.818662109375,-0.06386766582727432,0.013568006455898285,0.01732519455254078
1751013986229606100,1.828606201171875,-0.06227189674973488,0.0011118697002530098,0.013043896295130253
1751013986239549200,1.838549072265625,-0.056163135915994644,-0.008888832293450832,0.0007691209320910275
1751013986249493200,1.8484931640625,-0.05059073865413666,-0.017409350723028183,-0.010490191169083118
1751013986259437000,1.85843701171875,-0.037041641771793365,-0.01918701082468033,-0.012721121311187744
1751013986269381000,1.868381103515625,-0.021746041253209114,-0.017831195145845413,-0.0025156219489872456
1751013986279324200,1.87832421875,-0.014994129538536072,-0.014196778647601604,0.008778044953942299
1751013986289268000,1.88826806640625,-0.021516211330890656,-0.009061671793460846,0.01356481108814478
1751013986299212000,1.8982119140625,-0.025115739554166794,-0.012824718840420246,0.016569122672080994
1751013986309156000,1.908156005859375,-0.027726436033844948,-0.01690068654716015,0.014131531119346619
1751013986319099100,1.91809912109375,-0.025122396647930145,-0.023064572364091873,0.010187922976911068
1751013986329043200,1.928043212890625,-0.027879567816853523,-0.022114623337984085,0.005419266410171986
1751013986338987000,1.937987060546875,-0.023574301972985268,-0.009848369285464287,0.0016410398529842496
1751013986348931000,1.94793115234375,-0.018255703151226044,0.0060019660741090775,-0.001856223214417696
1751013986358874000,1.9578740234375,-0.011447331868112087,0.02407843805849552,-0.010202836245298386
1751013986368818000,1.96781787109375,-0.009705358184874058,0.029103823006153107,-0.0180000402033329
1751013986378762000,1.977761962890625,-0.01452834252268076,0.016870593652129173,-0.0264262817800045
1751013986388706000,1.9877060546875,-0.02419002540409565,0.005814746022224426,-0.03484373539686203
1751013986398649000,1.997649169921875,-0.024749821051955223,-0.00905741099268198,-0.02822764404118061
1751013986408593200,2.00759326171875,-0.027786090970039368,-0.011297661811113358,-0.01305454969406128
1751013986418537200,2.017537109375,-0.03350895643234253,-0.01073626708239317,-0.004255465231835842
1751013986428480300,2.027480224609375,-0.0429711677134037,-0.010422280989587307,0.0033073797821998596
1751013986438424000,2.037424072265625,-0.04583806172013283,-0.014147244393825531,0.00031798143754713237
1751013986448368000,2.0473681640625,-0.040956754237413406,-0.013464143499732018,0.0067899953573942184
1751013986458312000,2.05731201171875,-0.02774161659181118,-0.001928128651343286,-0.002130262553691864
1751013986468255000,2.0672548828125,-0.01715235598385334,0.0030072415247559547,-0.007417702581733465
1751013986478199000,2.077198974609375,-0.010434531606733799,0.004251470323652029,-0.010943993926048279
1751013986488142800,2.087142822265625,-0.00395612558349967,0.002100168727338314,-0.0015033544041216373
1751013986498087200,2.097087158203125,0.0006833671359345317,-0.0006167881074361503,0.008739962242543697
1751013986508030200,2.1070302734375,0.007834221236407757,-0.002493517706170678,0.03127509728074074
1751013986517974000,2.11697412109375,0.013016466051340103,-0.003781422507017851,0.036554548889398575
1751013986527918000,2.12691796875,0.010927482508122921,-0.006127933505922556,0.027301661670207977
1751013986537862100,2.136862060546875,0.014287060126662254,-0.009061938151717186,0.006964965257793665
1751013986547805200,2.14680517578125,0.008989233523607254,-0.014998923055827618,-0.021288510411977768
1751013986557749000,2.1567490234375,0.000910268456209451,-0.03261173889040947,-0.04217221960425377
1751013986567693000,2.166693115234375,-0.0013110742438584566,-0.04545057192444801,-0.044555749744176865
1751013986577636000,2.176635986328125,0.0004814995336346328,-0.040109336376190186,-0.01878034509718418
1751013986587580000,2.186579833984375,0.010065151378512383,-0.027514448389410973,0.010571418330073357
1751013986597524200,2.196524169921875,0.026737337931990623,-0.012357333675026894,0.03260001912713051
1751013986607468000,2.206468017578125,0.04235171899199486,0.00762835843488574,0.04936275631189346
1751013986617411000,2.2164111328125,0.042761046439409256,0.012517389841377735,0.042022284120321274
1751013986627355100,2.226355224609375,0.033426932990550995,0.002531068166717887,0.009582586586475372
1751013986637299000,2.236298828125,0.01960885524749756,-0.014169082045555115,-0.01846449449658394
1751013986647243000,2.246242919921875,0.009621468372642994,-0.02545848861336708,-0.04152214154601097
1751013986657186000,2.25618603515625,-0.0033039175905287266,-0.019471170380711555,-0.043602071702480316
1751013986667130000,2.266130126953125,-0.014734204858541489,-0.0004956142511218786,-0.04328036308288574
1751013986677074000,2.276073974609375,-0.008736499585211277,0.015030615031719208,-0.03858121484518051
1751013986687018200,2.286018310546875,0.0014721954939886928,0.030646326020359993,-0.027463847771286964
1751013986696961300,2.295961181640625,0.006468551699072123,0.05103708431124687,-0.01188142690807581
1751013986706905000,2.305905029296875,0.00700810831040144,0.06301651895046234,-0.008017978630959988
1751013986716849200,2.31584912109375,-0.0073077138513326645,0.07003367692232132,-0.02107199653983116
1751013986726793000,2.32579296875,-0.03857535496354103,0.07288406044244766,-0.0911586731672287
1751013986736736000,2.335736083984375,-0.07280975580215454,0.06436380743980408,-0.2158888876438141
1751013986746680000,2.34568017578125,-0.11614098399877548,0.03670768067240715,-0.35719195008277893
1751013986756624000,2.355623779296875,-0.15538160502910614,0.00589703768491745,-0.46306005120277405
1751013986766567000,2.36556689453125,-0.16583503782749176,-0.0016109461430460215,-0.4967501163482666
1751013986776511000,2.375510986328125,-0.1482701599597931,0.001073786523193121,-0.45585834980010986
1751013986786455000,2.385455078125,-0.1235557571053505,0.0026495789643377066,-0.36726322770118713
1751013986796399000,2.395399169921875,-0.09809727221727371,0.001383778522722423,-0.2484460324048996
1751013986806342100,2.405342041015625,-0.0739903375506401,0.009133577346801758,-0.1189892366528511
1751013986816286200,2.4152861328125,-0.04873664677143097,0.02845960482954979,0.016049273312091827
1751013986826230000,2.42522998046875,-0.036488767713308334,0.04135782644152641,0.13124004006385803
1751013986836174000,2.435174072265625,-0.038905054330825806,0.03178509324789047,0.21511124074459076
1751013986846117000,2.4451171875,-0.0406760573387146,0.018928417935967445,0.27051645517349243
1751013986856061000,2.45506103515625,-0.04586842283606529,0.01495178509503603,0.28768637776374817
1751013986866005200,2.465005126953125,-0.04073517769575119,0.012003932148218155,0.2630252242088318
1751013986875953200,2.474953125,-0.030101709067821503,0.026398051530122757,0.19819457828998566
1751013986885896200,2.484896240234375,-0.007501591928303242,0.044624727219343185,0.11041732132434845
1751013986895840300,2.49484033203125,0.021327659487724304,0.06678568571805954,0.012798353098332882
1751013986905784000,2.5047841796875,0.04639759287238121,0.07766949385404587,-0.06866401433944702
1751013986915727000,2.51472705078125,0.07748041301965714,0.07809160649776459,-0.11679505556821823
1751013986925671200,2.524671142578125,0.09807383269071579,0.07455679029226303,-0.11557666212320328
1751013986935615000,2.534614990234375,0.09568045288324356,0.05692853033542633,-0.0789206475019455
1751013986945559000,2.54455908203125,0.07341136783361435,0.03145299851894379,-0.023816116154193878
1751013986955502000,2.554502197265625,0.04833664000034332,0.001386441639624536,0.044441498816013336
1751013986965446000,2.56444580078125,0.0245458222925663,-0.01721573807299137,0.1194094866514206
1751013986975390200,2.57439013671875,-0.0026373283471912146,-0.03761768341064453,0.16663292050361633
1751013986985334300,2.584334228515625,-0.018670091405510902,-0.055449675768613815,0.17495876550674438
1751013986995277000,2.594277099609375,-0.01906850002706051,-0.05849872902035713,0.15777738392353058
1751013987005221000,2.60422119140625,-0.004526308737695217,-0.039136748760938644,0.10756827145814896
1751013987015165200,2.614165283203125,0.00965795386582613,-0.021829398348927498,0.04261696711182594
1751013987025109000,2.62410888671875,0.017581922933459282,-0.012585566379129887,-0.020963605493307114
1751013987035052000,2.634052001953125,0.025049960240721703,-0.010399644263088703,-0.06241543963551521
1751013987044996000,2.64399609375,0.03476224094629288,-0.0027363980188965797,-0.0750444158911705
1751013987054940200,2.653940185546875,0.032218124717473984,0.0028988507110625505,-0.06610924750566483
1751013987064883000,2.663883056640625,0.029062544927001,0.0018101505702361465,-0.043170373886823654
1751013987074827300,2.6738271484375,0.024504011496901512,0.0070797475054860115,-0.012633769772946835
1751013987084771000,2.68377099609375,0.017830928787589073,0.018572885543107986,0.01437920518219471
1751013987094715100,2.693715087890625,0.006269081030040979,0.015043663792312145,0.03139574080705643
1751013987104658200,2.703658203125,-0.006509564816951752,0.014333665370941162,0.04421300068497658
1751013987114602000,2.71360205078125,-0.011363708414137363,0.015421033836901188,0.052920471876859665
1751013987124546000,2.723546142578125,-0.01401648297905922,0.015056713484227657,0.05681587755680084
1751013987134490000,2.733489990234375,-0.010994594544172287,0.01654568687081337,0.05721908062696457
1751013987144433000,2.743432861328125,-0.0020354539155960083,0.012820457108318806,0.049135852605104446
1751013987154377200,2.753377197265625,0.00908590666949749,0.001975000137463212,0.031377095729112625
1751013987164321300,2.7633212890625,0.013058544136583805,-0.001127848750911653,0.012286493554711342
1751013987174265000,2.77326513671875,0.01828712783753872,0.004496214911341667,-0.0019686087034642696
1751013987184208100,2.7832080078125,0.026097115129232407,0.005953230429440737,-0.0052355085499584675
1751013987194152200,2.793152099609375,0.033125728368759155,0.005280249286442995,-0.0002950782363768667
1751013987204096000,2.803095947265625,0.03963902220129967,0.0010159959783777595,0.012005796656012535
1751013987214039000,2.8130390625,0.03449832275509834,-0.011473696678876877,0.029081186279654503
1751013987223983000,2.822983154296875,0.028424451127648354,-0.028173048049211502,0.031674571335315704
1751013987233927000,2.832927001953125,0.015972575172781944,-0.03779664635658264,0.026181535795331
1751013987243871200,2.842871337890625,0.005677592940628529,-0.035474903881549835,0.01266679260879755
1751013987253814300,2.852814208984375,0.012916863895952702,-0.016056997701525688,0.00626029260456562
1751013987263758000,2.862758056640625,0.01980646140873432,0.002469815546646714,0.0005946838646195829
1751013987273702100,2.8727021484375,0.02237747795879841,0.01302445586770773,-0.009438242763280869
1751013987283646200,2.882646240234375,0.03181705251336098,0.008199074305593967,-0.014041516929864883
1751013987293589000,2.892589111328125,0.032459672540426254,-0.0012471582740545273,-0.01876809448003769
1751013987303533000,2.902532958984375,0.027367442846298218,-0.014912903308868408,-0.009832923300564289
1751013987313477000,2.91247705078125,0.021334050223231316,-0.023330090567469597,-0.0046509443782269955
1751013987323421000,2.9224208984375,0.016586700454354286,-0.024170849472284317,0.0044014062732458115
1751013987333364000,2.932364013671875,0.006780407857149839,-0.02165229804813862,0.002968891989439726
1751013987343308300,2.942308349609375,-0.00780545873567462,-0.015517973341047764,-0.013758955523371696
1751013987353252000,2.952252197265625,-0.00920495018362999,-0.009926666505634785,-0.028964007273316383
1751013987363195100,2.962195068359375,0.002237321576103568,-0.000012250540748937055,-0.03406236320734024
1751013987373139200,2.97213916015625,0.004031226970255375,0.005327653605490923,-0.02329227328300476
1751013987383083000,2.9820830078125,0.004338289611041546,-0.0013214604696258903,-0.013042299076914787
1751013987393027000,2.992027099609375,0.01213069912046194,-0.008262190967798233,-0.005372661165893078
1751013987402970000,3.00197021484375,0.019884757697582245,-0.013765347190201283,0.004273840691894293
1751013987412914000,3.011913818359375,0.019568640738725662,-0.021734589710831642,0.01206678245216608
1751013987422858000,3.02185791015625,0.013854296877980232,-0.028299547731876373,0.020180102437734604
1751013987432802300,3.03180224609375,0.007524495478719473,-0.02268746867775917,0.024591894820332527
1751013987442745000,3.0417451171875,0.010188987478613853,0.010492055676877499,0.02683481015264988
1751013987452689200,3.051689208984375,0.017615744844079018,0.005160939879715443,0.016503609716892242
1751013987462633200,3.06163330078125,0.0037563887890428305,-0.02720232680439949,0.004576642066240311
1751013987472577000,3.071576904296875,-0.01606152392923832,-0.045395445078611374,0.013252422213554382
1751013987482520000,3.08152001953125,-0.02298387885093689,-0.031037012115120888,0.03531324863433838
1751013987492464000,3.091464111328125,-0.028844164684414864,-0.02021845243871212,0.05841777101159096
1751013987502408000,3.101407958984375,-0.028835110366344452,-0.012173575349152088,0.06270679086446762
1751013987512351000,3.11135107421875,-0.010684868320822716,0.0034708979073911905,0.05046876519918442
1751013987522295000,3.121294921875,0.010354902595281601,0.023202523589134216,0.023007048293948174
1751013987532239000,3.131239013671875,0.016634903848171234,0.03618383780121803,0.003722300287336111
1751013987542183200,3.14118310546875,0.02581322193145752,0.04862852394580841,-0.012075304985046387
1751013987552126200,3.151126220703125,0.016171779483556747,0.04367717355489731,-0.022828083485364914
1751013987562070000,3.161070068359375,-0.0020591560751199722,0.030181072652339935,-0.024804681539535522
1751013987572014000,3.17101416015625,-0.016815997660160065,0.014230601489543915,-0.020748421549797058
1751013987581958100,3.180958251953125,-0.027838289737701416,0.0012932310346513987,0.0009454221581108868
1751013987591901200,3.190901123046875,-0.03371082618832588,-0.00481233187019825,0.01577283814549446
1751013987601845000,3.200844970703125,-0.03626932576298714,-0.010727212764322758,0.026970630511641502
1751013987611789300,3.210789306640625,-0.03135978803038597,-0.01576085388660431,0.02803323231637478
1751013987621733000,3.220733154296875,-0.025058215484023094,-0.013451360166072845,0.0235306266695261
1751013987631676200,3.23067626953125,-0.019154252484440804,-0.00492125516757369,0.013969345018267632
1751013987641620200,3.2406201171875,-0.014707840047776699,-0.0029646309558302164,0.006841128226369619
1751013987651564000,3.25056396484375,-0.010153035633265972,-0.004719920456409454,-0.002460494404658675
1751013987661507000,3.260507080078125,-0.010084591805934906,-0.009702161885797977,0.003111903788521886
1751013987671451100,3.270451171875,-0.0190165676176548,-0.02057904377579689,0.0024080302100628614
1751013987681395000,3.28039501953125,-0.03375210613012314,-0.03446769714355469,-0.004064250271767378
1751013987691339000,3.290339111328125,-0.05098888278007507,-0.041069407016038895,-0.016526779159903526
1751013987701282000,3.300281982421875,-0.06744428724050522,-0.042264897376298904,-0.037329528480768204
1751013987711226000,3.31022607421875,-0.07592778652906418,-0.04587135091423988,-0.07158470153808594
1751013987721170200,3.320170166015625,-0.06853804737329483,-0.0476095974445343,-0.10891369730234146
1751013987731114200,3.3301142578125,-0.05381716042757034,-0.05351142957806587,-0.13397803902626038
1751013987741057300,3.340057373046875,-0.03560379892587662,-0.04628920182585716,-0.14076803624629974
1751013987751001000,3.3500009765625,-0.020049074664711952,-0.0403924286365509,-0.13092473149299622
1751013987760945200,3.359945068359375,-0.006070942152291536,-0.031095335260033607,-0.10250453650951385
1751013987770889000,3.369888916015625,0.00020532972121145576,-0.02798343077301979,-0.07355411350727081
1751013987780832000,3.37983203125,0.004099137615412474,-0.027096865698695183,-0.040827855467796326
1751013987790776000,3.389776123046875,0.0039854203350842,-0.028016187250614166,-0.012263324111700058
1751013987800720100,3.39972021484375,0.001972603378817439,-0.030466828495264053,0.010935738682746887
1751013987810663200,3.4096630859375,0.00010253170330543071,-0.045159220695495605,0.027645476162433624
1751013987820607200,3.419607177734375,0.0006327670416794717,-0.05457775667309761,0.034324683248996735
1751013987830551000,3.429551025390625,0.004779309034347534,-0.062189072370529175,0.02948305755853653
1751013987840495000,3.4394951171875,0.0007981493836268783,-0.06855615973472595,0.015478558838367462
1751013987850438100,3.449438232421875,0.015565910376608372,-0.0646413117647171,0.0035337484441697598
1751013987860382200,3.45938232421875,0.027630828320980072,-0.05113668739795685,-0.0018961706664413214
1751013987870326000,3.469325927734375,0.03676946461200714,-0.04044462740421295,-0.009766610339283943
1751013987880265700,3.479265625,0.0456809364259243,-0.031187213957309723,-0.01525671686977148
1751013987890208800,3.489208740234375,0.055268049240112305,-0.022475214675068855,-0.005137770436704159
1751013987900152800,3.49915283203125,0.05259183794260025,-0.01623968966305256,-0.0023579627741128206
1751013987910097000,3.509096923828125,0.03929920122027397,-0.017774470150470734,0.0033334787003695965
1751013987920040000,3.5190400390625,0.03231506422162056,-0.010374610312283039,0.003793406533077359
1751013987929983700,3.528983642578125,0.031690552830696106,0.002373941708356142,0.01236558984965086
1751013987939927800,3.538927734375,0.03452442213892937,0.016531039029359818,0.020301010459661484
1751013987949871900,3.548871826171875,0.03254462778568268,0.021641112864017487,0.03026496060192585
1751013987959815000,3.55881494140625,0.03289563208818436,0.024394555017352104,0.03226898983120918
1751013987969758700,3.5687587890625,0.030945932492613792,0.02148212306201458,0.018573950976133347
1751013987979702800,3.578702880859375,0.0295467060059309,0.012259063310921192,0.00811811350286007
1751013987989646800,3.588646728515625,0.025125326588749886,0.007517571095377207,0.012829778715968132
1751013987999590000,3.59858984375,0.01458853017538786,0.011830028146505356,0.028258269652724266
1751013988009534000,3.608533935546875,0.016143016517162323,0.03464213386178017,0.06924458593130112
1751013988019477800,3.618477783203125,0.049066610634326935,0.0934966579079628,0.08461981266736984
1751013988029421800,3.628421875,0.09440772980451584,0.15638375282287598,0.006889065261930227
1751013988039364900,3.63836474609375,0.16235269606113434,0.1689480096101761,-0.13975444436073303
1751013988049308700,3.64830859375,0.21958349645137787,0.14251267910003662,-0.2645789384841919
1751013988059252700,3.658252685546875,0.20719845592975616,0.10456262528896332,-0.31983551383018494
1751013988069195800,3.66819580078125,0.14667172729969025,0.058526426553726196,-0.2654593586921692
1751013988079139600,3.6781396484375,0.07007309049367905,0.01732785813510418,-0.12578056752681732
1751013988089084000,3.688083984375,-0.02154630422592163,-0.011294732801616192,0.046903591603040695
1751013988099028000,3.698028076171875,-0.08159738779067993,-0.026254506781697273,0.1902511715888977
1751013988108971000,3.707970947265625,-0.09664957970380783,-0.030665233731269836,0.25464028120040894
1751013988118914800,3.717914794921875,-0.08632823079824448,-0.035471972078084946,0.22753089666366577
1751013988128859000,3.72785888671875,-0.06283488869667053,-0.041664090007543564,0.1291382759809494
1751013988138802700,3.737802734375,-0.03147882968187332,-0.03813167288899422,0.0060182115994393826
1751013988148745700,3.747745849609375,0.007120493799448013,-0.019847741350531578,-0.1083240732550621
1751013988158689800,3.757689697265625,0.033354226499795914,0.006995591334998608,-0.18064168095588684
1751013988168633900,3.7676337890625,0.051608067005872726,0.029917152598500252,-0.19797725975513458
1751013988178578000,3.777577880859375,0.053826481103897095,0.04848923906683922,-0.16767501831054688
1751013988188521000,3.78752099609375,0.046185072511434555,0.06653454899787903,-0.09982406347990036
1751013988198464800,3.79746484375,0.0347883403301239,0.07325370609760284,-0.020847758278250694
1751013988208408800,3.807408935546875,0.026698188856244087,0.06807386130094528,0.052083175629377365
1751013988218351900,3.817351806640625,0.018619757145643234,0.06300506740808487,0.10349389910697937
1751013988228295700,3.827295654296875,0.011294999159872532,0.04788736626505852,0.12896624207496643
1751013988238239700,3.83723974609375,0.010911237448453903,0.026798857375979424,0.12305109202861786
1751013988248183800,3.847183837890625,0.00723474333062768,0.014764831401407719,0.1032443642616272
1751013988258126800,3.857126953125,0.010599914006888866,0.0024019049014896154,0.07858562469482422
1751013988268071000,3.86707080078125,0.012431901879608631,0.001755289500579238,0.05643158406019211
1751013988278015000,3.877014892578125,0.022882146760821342,0.0014908375451341271,0.04475468769669533
1751013988287958800,3.886958740234375,0.03130172938108444,0.01744743250310421,0.04959737882018089
1751013988297901800,3.89690185546875,0.04178180173039436,0.03145432844758034,0.060918211936950684
1751013988307846000,3.906845947265625,0.04771852120757103,0.04040122032165527,0.07808174937963486
1751013988317789700,3.916789794921875,0.05708885192871094,0.04255891218781471,0.09473556280136108
1751013988327732700,3.926732666015625,0.07978697121143341,0.05145014077425003,0.11221762001514435
1751013988337676800,3.9366767578125,0.09219357371330261,0.044788509607315063,0.11413456499576569
1751013988347620600,3.94662060546875,0.0788964107632637,0.03851809725165367,0.09731936454772949
1751013988357565000,3.95656494140625,0.052149754017591476,0.013346165418624878,0.0701439306139946
1751013988367508000,3.966508056640625,0.033069003373384476,-0.014905179850757122,0.0399135947227478
1751013988377451800,3.97645166015625,0.01468493603169918,-0.03434279188513756,0.020486366003751755
1751013988387395800,3.986395751953125,-0.009492571465671062,-0.03521737456321716,0.008244347758591175
1751013988397340000,3.99633984375,-0.027356790378689766,-0.022303441539406776,0.007482683751732111
1751013988407283000,4.006282958984375,-0.03423280641436577,-0.004223507363349199,0.02701457403600216
1751013988417226800,4.016226806640625,-0.02587021328508854,0.018323613330721855,0.05059659853577614
1751013988427170800,4.0261708984375,-0.017647437751293182,0.047444481402635574,0.07185528427362442
1751013988437113900,4.03611376953125,-0.015367770567536354,0.06047239899635315,0.07712061703205109
1751013988447057700,4.0460576171875,-0.008246744982898235,0.06811647117137909,0.0666448101401329
1751013988457002000,4.056001953125,-0.001199221471324563,0.07178977131843567,0.047814927995204926
1751013988466945800,4.06594580078125,0.0049249837175011635,0.06563813239336014,0.029701968654990196
1751013988476888800,4.075888916015625,0.008898420259356499,0.06126761808991432,0.020359067246317863
1751013988486833000,4.0858330078125,0.007661648094654083,0.052015531808137894,0.019836820662021637
1751013988496776700,4.095776611328125,0.0007621967233717442,0.042095255106687546,0.013727796263992786
1751013988506720800,4.105720703125,-0.0046453517861664295,0.035534292459487915,0.009352223016321659
1751013988516663800,4.115663818359375,-0.005422994960099459,0.031047398224473,0.007679491303861141
1751013988526608000,4.12560791015625,-0.012676913291215897,0.019652530550956726,0.00740198977291584
1751013988536551700,4.1355517578125,-0.01858513616025448,0.009820939041674137,0.0013108078856021166
1751013988546496000,4.14549609375,-0.019712718203663826,0.013881993480026722,0.0024644893128424883
1751013988556439000,4.15543896484375,-0.012438293546438217,0.014679609797894955,0.009248092770576477
1751013988566382800,4.1653828125,-0.004294081125408411,0.019767578691244125,0.015838084742426872
1751013988576327000,4.175326904296875,0.003611779073253274,0.03062262386083603,0.018073009327054024
1751013988586270000,4.18527001953125,0.020369453355669975,0.04574139043688774,0.032271917909383774
1751013988596213800,4.1952138671875,0.042143724858760834,0.06445249170064926,0.06801127642393112
1751013988606157800,4.20515771484375,0.055695485323667526,0.06226523965597153,0.11805446445941925
1751013988616101600,4.2151015625,0.05366349592804909,0.02539270743727684,0.18073755502700806
1751013988626044700,4.225044677734375,0.0510765016078949,-0.009618538431823254,0.24746039509773254
1751013988635988700,4.23498876953125,0.037705034017562866,-0.051004860550165176,0.29902133345603943
1751013988645932800,4.244932861328125,-0.0038573225028812885,-0.07550328224897385,0.30502569675445557
1751013988655875800,4.254875732421875,-0.038484808057546616,-0.10621777921915054,0.2606648802757263
1751013988665820000,4.26481982421875,-0.05646247789263725,-0.12287558615207672,0.18026910722255707
1751013988675764000,4.274763916015625,-0.055158328264951706,-0.10282917320728302,0.0805656835436821
1751013988685707800,4.284707763671875,-0.02966548316180706,-0.05765663832426071,-0.012747220695018768
1751013988695650800,4.29465087890625,0.0038373488932847977,-0.008290686644613743,-0.08969073742628098
1751013988705595000,4.304594970703125,0.033055953681468964,0.026860376819968224,-0.14472761750221252
1751013988715538700,4.31453857421875,0.049000032246112823,0.040706418454647064,-0.16633358597755432
1751013988725482800,4.324482666015625,0.047141946852207184,0.042222023010253906,-0.16167305409908295
1751013988735425800,4.33442578125,0.037152163684368134,0.04572780802845955,-0.13596662878990173
1751013988745369900,4.344369873046875,0.027405258268117905,0.04761652275919914,-0.09214723855257034
1751013988755314000,4.35431396484375,0.010596984066069126,0.036124713718891144,-0.04332457110285759
1751013988765257000,4.364257080078125,-0.009987653233110905,0.018077271059155464,-0.0019419770687818527
1751013988775200800,4.37420068359375,-0.02285871095955372,-0.0035001926589757204,0.03284583240747452
1751013988785144800,4.384144775390625,-0.03536438196897507,-0.021823007613420486,0.06073498725891113
1751013988795089000,4.3940888671875,-0.039568182080984116,-0.027840418741106987,0.0754297748208046
1751013988805031700,4.40403173828125,-0.038897063583135605,-0.038544993847608566,0.07548410445451736
1751013988814975700,4.413975830078125,-0.02743375487625599,-0.043351735919713974,0.06271690875291824
1751013988824920000,4.423920166015625,-0.015094264410436153,-0.0343148298561573,0.04499117657542229
1751013988834863900,4.43386376953125,0.0016610135789960623,-0.014727813191711903,0.029346702620387077
1751013988844807000,4.443806884765625,0.010559434071183205,0.0028613002505153418,0.0161771047860384
1751013988854751000,4.4537509765625,0.019779296591877937,0.01944160833954811,0.01044305320829153
1751013988864694800,4.46369482421875,0.02941940724849701,0.030782679095864296,0.013265738263726234
1751013988874637800,4.473637939453125,0.02472132444381714,0.03345196694135666,0.010599114932119846
1751013988884582400,4.48358251953125,0.020004333928227425,0.027003388851881027,0.0008362325606867671
1751013988894526200,4.493526123046875,0.008169779554009438,0.010179134085774422,-0.014159495010972023
1751013988904470300,4.50347021484375,-0.0003211772127542645,-0.0009992180857807398,-0.02533731423318386
1751013988914413300,4.513413330078125,-0.004165450111031532,-0.013281716965138912,-0.02875628136098385
1751013988924357400,4.523357421875,-0.010481935925781727,-0.02395273745059967,-0.02929983101785183
1751013988934301400,4.533301513671875,-0.014255101792514324,-0.02359081245958805,-0.023010510951280594
1751013988944245200,4.543245361328125,-0.014332067221403122,-0.022048577666282654,-0.016092151403427124
1751013988954188300,4.553188232421875,-0.0046546729281544685,-0.01955665647983551,-0.009731722995638847
1751013988964132400,4.56313232421875,0.01155518926680088,-0.015619173645973206,-0.005263471510261297
1751013988974076200,4.573076171875,0.026800189167261124,0.005206213798373938,-0.005621133837848902
1751013988984019200,4.583019287109375,0.03911304846405983,0.051546815782785416,-0.02333941124379635
1751013988993963300,4.59296337890625,0.05259902775287628,0.08601398020982742,-0.05818607285618782
1751013989003907300,4.6029072265625,0.06281944364309311,0.11226022988557816,-0.11725658178329468
1751013989013851400,4.612851318359375,0.06274593621492386,0.11431992053985596,-0.1806696504354477
1751013989023794400,4.62279443359375,0.051367584615945816,0.09999050945043564,-0.24060088396072388
1751013989033738500,4.632738525390625,0.046908918768167496,0.07897604256868362,-0.2726890444755554
1751013989043682300,4.642682373046875,0.04824023321270943,0.05546006187796593,-0.2670641839504242
1751013989053626400,4.65262646484375,0.037647511810064316,0.025053421035408974,-0.2197272926568985
1751013989063569400,4.6625693359375,0.012833506800234318,-0.005067463032901287,-0.14721208810806274
1751013989073513200,4.67251318359375,-0.021993182599544525,-0.019029883667826653,-0.061576809734106064
1751013989083457300,4.682457275390625,-0.04214399307966232,-0.015930762514472008,0.030951524153351784
1751013989093400300,4.692400390625,-0.047984834760427475,0.004113518632948399,0.10829158872365952
1751013989103344000,4.70234423828125,-0.05645395442843437,0.017609354108572006,0.1598178893327713
1751013989113288400,4.712288330078125,-0.05109647288918495,0.0222613625228405,0.18274638056755066
1751013989123232300,4.722232177734375,-0.03814259171485901,0.023672040551900864,0.17758889496326447
1751013989133175300,4.73217529296875,-0.018446385860443115,0.02641589380800724,0.15048804879188538
1751013989143119400,4.742119384765625,0.006010221783071756,0.028497155755758286,0.11095874011516571
1751013989153063400,4.7520634765625,0.0166745837777853,0.01986425183713436,0.06425648182630539
1751013989163006200,4.762006103515625,0.029468143358826637,0.010464092716574669,0.025107750669121742
1751013989172950300,4.7719501953125,0.033785928040742874,0.018882345408201218,0.0010985539993271232
1751013989182894300,4.781894287109375,0.035167574882507324,0.03485172241926193,-0.0011664645280689
1751013989192838400,4.79183837890625,0.0241993460804224,0.0410907119512558,-0.006622216198593378
1751013989202781400,4.801781494140625,0.01926557347178459,0.03947470337152481,-0.0018913770327344537
1751013989212725500,4.8117255859375,0.010912302881479263,0.03347247093915939,0.014675082638859749
1751013989222669300,4.82166943359375,0.005591040477156639,0.03473667427897453,0.03533881530165672
1751013989232613400,4.83161328125,-0.0013672668719664216,0.03304077312350273,0.050944406539201736
1751013989242556400,4.841556396484375,-0.00173717993311584,0.020577447488904,0.05976852402091026
1751013989252500200,4.851500244140625,-0.007469634059816599,0.008347677998244762,0.055149804800748825
1751013989262444300,4.8614443359375,-0.008138620294630527,0.00033396040089428425,0.04631343483924866
1751013989272387300,4.87138720703125,-0.004588626325130463,0.007852597162127495,0.039439018815755844
1751013989282331100,4.8813310546875,-0.0012668657582253218,0.013251623138785362,0.026577815413475037
1751013989292275500,4.891275390625,-0.0005605954211205244,0.016445552930235863,0.007002249360084534
1751013989302219300,4.90121923828125,-0.0014468954177573323,0.005695968866348267,-0.010890197940170765
1751013989312162300,4.911162353515625,0.0008607336785644293,-0.0004170510219410062,-0.029978139325976372
1751013989322106400,4.9211064453125,0.004996090196073055,-0.010706174187362194,-0.04842185974121094
1751013989332050400,4.931050537109375,0.008386827073991299,-0.0164231825619936,-0.06394968926906586
1751013989341994200,4.940994140625,0.012229768559336662,-0.02587633766233921,-0.07488489151000977
1751013989351937300,4.950937255859375,0.016713466495275497,-0.03254382684826851,-0.07352162152528763
1751013989361881300,4.96088134765625,0.016861803829669952,-0.034627750515937805,-0.06793724000453949
1751013989371825200,4.9708251953125,0.02353755012154579,-0.03271427005529404,-0.05982391908764839
1751013989381768200,4.980768310546875,0.03141651302576065,-0.02287442237138748,-0.04893718287348747
1751013989391712500,4.99071240234375,0.03586825355887413,-0.011575962416827679,-0.03430444374680519
1751013989401656300,5.00065625,0.03846270218491554,0.00006684534309897572,-0.03136484697461128
1751013989411600400,5.010600341796875,0.04633953422307968,0.009797236882150173,-0.03152836486697197
1751013989421543400,5.02054345703125,0.04878751188516617,0.014022874645888805,-0.030012227594852448
1751013989431487200,5.0304873046875,0.04999898374080658,0.006629673298448324,-0.039024896919727325
1751013989441431300,5.040431396484375,0.05770856887102127,-0.010185525752604008,-0.058100320398807526
1751013989451375400,5.050375244140625,0.07719492167234421,-0.03646639734506607,-0.07238391786813736
1751013989461318100,5.060318115234375,0.09674971550703049,-0.062190137803554535,-0.0733831375837326
1751013989471262200,5.07026220703125,0.11427810788154602,-0.07549741864204407,-0.05591626092791557
1751013989481206500,5.08020654296875,0.12378133088350296,-0.07202093303203583,-0.03253184258937836
1751013989491149300,5.0901494140625,0.12044811993837357,-0.06623201817274094,-0.0012950951931998134
1751013989501093400,5.10009326171875,0.1064193844795227,-0.05398626998066902,0.029803702607750893
1751013989511037400,5.110037353515625,0.08991817384958267,-0.023730630055069923,0.05023520812392235
1751013989520981200,5.119981201171875,0.06954498589038849,0.009460879489779472,0.05034386366605759
1751013989530924300,5.12992431640625,0.0507260262966156,0.032514799386262894,0.030602118000388145
1751013989540868400,5.139868408203125,0.038122352212667465,0.04531368613243103,0.004123106133192778
1751013989550812200,5.149812255859375,0.029027391225099564,0.04110029712319374,-0.027284352108836174
1751013989560755200,5.159755126953125,0.021279189735651016,0.024205736815929413,-0.05162164941430092
1751013989570699300,5.16969921875,0.013785320334136486,0.001847434788942337,-0.06718968600034714
1751013989580643300,5.179643310546875,0.012747220695018768,-0.014679077081382275,-0.0690336599946022
1751013989590587400,5.18958740234375,0.01823093555867672,-0.014937404543161392,-0.059190087020397186
1751013989600530400,5.199530517578125,0.01930898241698742,-0.006592921447008848,-0.04363083466887474
1751013989610474200,5.20947412109375,0.017775269225239754,-0.00023861923546064645,-0.02941754274070263
1751013989620418300,5.219418212890625,0.013014068827033043,0.006658435333520174,-0.025188710540533066
1751013989630362400,5.2293623046875,0.008768191561102867,0.022833677008748055,-0.024622522294521332
1751013989640305400,5.239305419921875,-0.0005219795857556164,0.02375912480056286,-0.034751590341329575
1751013989650249200,5.249249267578125,-0.007495466619729996,0.022120481356978416,-0.04469316825270653
1751013989660193300,5.259193359375,-0.013104616664350033,0.013493438251316547,-0.05188130587339401
1751013989670136300,5.26913623046875,-0.00866139866411686,0.001294029993005097,-0.05776875838637352
1751013989680080400,5.279080322265625,-0.003947603516280651,-0.009317069314420223,-0.06180717423558235
1751013989690024400,5.2890244140625,0.0030748858116567135,-0.015515576116740704,-0.050938814878463745
1751013989699968300,5.29896826171875,0.012455604039132595,-0.01507295947521925,-0.042087532579898834
1751013989709911300,5.308911376953125,0.023503195494413376,-0.015247396193444729,-0.028140291571617126
1751013989719855400,5.31885546875,0.031748343259096146,-0.007278419099748135,-0.004752943757921457
1751013989729799200,5.328799072265625,0.03044312633574009,-0.008708270266652107,0.01191258616745472
1751013989739742200,5.3387421875,0.027361582964658737,-0.013042299076914787,0.026015620678663254
1751013989749686300,5.348686279296875,0.02551840990781784,-0.01501117367297411,0.026070216670632362
1751013989759630000,5.358630126953125,0.016703080385923386,-0.0170879065990448,0.005833654198795557
1751013989769574400,5.368574462890625,0.01360342651605606,-0.016350477933883667,-0.026316292583942413
1751013989779517400,5.378517333984375,0.01242391299456358,-0.01414484716951847,-0.052802760154008865
1751013989789461200,5.388461181640625,0.02022244781255722,-0.013280118815600872,-0.0628785640001297
1751013989799405300,5.3984052734375,0.028797026723623276,-0.01648283563554287,-0.05428880453109741
1751013989809349400,5.408349365234375,0.030179740861058235,-0.02435993403196335,-0.026277409866452217
1751013989819292400,5.41829248046875,0.029148830100893974,-0.03026203252375126,0.008055263198912144
1751013989829236200,5.428236328125,0.031312648206949234,-0.031156854704022408,0.035108186304569244
1751013989839180300,5.43818017578125,0.0341355986893177,-0.02538658306002617,0.05750776827335358
1751013989849123300,5.448123291015625,0.03241866081953049,-0.016870593652129173,0.06870129704475403
1751013989859067400,5.4580673828125,0.019843745976686478,-0.014150706119835377,0.056964483112096786
1751013989869011500,5.468011474609375,0.015657790005207062,-0.010419084690511227,0.0390067882835865
1751013989878955300,5.477955322265625,0.015731824561953545,-0.008871788159012794,0.02155429497361183
1751013989888898300,5.487898193359375,0.01636219583451748,-0.01414564624428749,0.00461685610935092
1751013989898842400,5.49784228515625,0.014451643452048302,-0.022779880091547966,-0.011781292036175728
1751013989908786200,5.5077861328125,0.014162690378725529,-0.027240408584475517,-0.014071078039705753
1751013989918729200,5.517729248046875,0.01685754396021366,-0.019999807700514793,-0.0106505136936903
1751013989928673300,5.52767333984375,0.013902499340474606,-0.015196530148386955,-0.011210310272872448
1751013989938617300,5.537617431640625,0.016656741499900818,-0.003864779369905591,0.001148088718764484
1751013989948561400,5.5475615234375,0.014549115672707558,0.011698734015226364,0.006952714640647173
1751013989958504400,5.55750439453125,0.009947705082595348,0.01324203610420227,0.006244047544896603
1751013989968448500,5.567448486328125,0.007832889445126057,0.016987506300210953,-0.0060147494077682495
1751013989978392300,5.577392333984375,0.00498091010376811,0.014091850258409977,-0.019418971613049507
1751013989988336400,5.58733642578125,0.005793706979602575,0.01503807120025158,-0.026735473424196243
1751013989998279400,5.597279541015625,0.0018703379901126027,0.008822253905236721,-0.026067286729812622
1751013990008223200,5.60722314453125,-0.000892425247002393,-0.0008138620178215206,-0.01918647810816765
1751013990018167300,5.617167236328125,-0.010698184370994568,-0.015152054838836193,-0.007878695614635944
1751013990028110300,5.6271103515625,-0.013007411733269691,-0.019653063267469406,0.004531368613243103
1751013990038054100,5.63705419921875,-0.014425544999539852,-0.01726101152598858,0.01575392857193947
1751013990047998500,5.64699853515625,-0.01744024269282818,-0.007484281435608864,0.013858291320502758
1751013990057942300,5.6569423828125,-0.008296279236674309,0.0029965888243168592,0.014475611969828606
1751013990067885300,5.66688525390625,0.0019262643763795495,0.02545715682208538,0.015780294314026833
1751013990077829400,5.676829345703125,0.009965548291802406,0.03634975105524063,0.016410931944847107
1751013990087773400,5.6867734375,0.010865164920687675,0.02455860562622547,0.011482485570013523
1751013990097717200,5.69671728515625,-0.0007068029372021556,0.007495466619729996,0.002302835462614894
1751013990107660300,5.706660400390625,-0.003552124137058854,-0.00005459480235003866,-0.002019208623096347
1751013990117604400,5.716604248046875,0.0018407768802717328,0.0019022959750145674,0.0009089368977583945
1751013990127548200,5.726548095703125,-0.002043709857389331,0.009162872098386288,0.008379103615880013
1751013990137491200,5.7364912109375,-0.009791377931833267,0.01468600146472454,0.01877874694764614
1751013990147435500,5.746435546875,-0.014190121553838253,0.020438695326447487,0.014510765671730042
1751013990157379300,5.75637939453125,-0.014366422779858112,0.02774401381611824,0.011331483721733093
1751013990167323400,5.766323486328125,-0.008896023035049438,0.026571689173579216,0.004920722916722298
1751013990177266400,5.776266357421875,-0.0070429956540465355,0.02466246858239174,-0.004857073072344065
1751013990187210200,5.786210205078125,-0.012352540157735348,0.02677089348435402,-0.01341407559812069
1751013990197154300,5.796154296875,-0.017113206908106804,0.028750155121088028,-0.02762443758547306
1751013990207097300,5.806097412109375,-0.01859765313565731,0.0407535545527935,-0.03873701021075249
1751013990217041200,5.816041259765625,-0.015402392484247684,0.04665432125329971,-0.047812797129154205
1751013990226985200,5.825985107421875,-0.010149040259420872,0.05043041706085205,-0.051527637988328934
1751013990236929500,5.835929443359375,-0.005525792948901653,0.050756920129060745,-0.05062855780124664
1751013990246872300,5.845872314453125,-0.01053360104560852,0.037271738052368164,-0.05452609062194824
1751013990256816400,5.85581640625,-0.010785802267491817,0.022044315934181213,-0.04837445542216301
1751013990266760400,5.865760498046875,-0.013835388235747814,0.008362325839698315,-0.04529291391372681
1751013990276703200,5.875703125,-0.018370218575000763,0.00006364954606397077,-0.041419077664613724
1751013990286647300,5.885647216796875,-0.01889858953654766,-0.0012460930738598108,-0.03791861981153488
1751013990296591400,5.89559130859375,-0.015924638137221336,0.006667756475508213,-0.03201199322938919
1751013990306535200,5.90553515625,-0.01776115410029888,0.017463678494095802,-0.0273879487067461
1751013990316478200,5.915478271484375,-0.010453972034156322,0.022290125489234924,-0.025300828740000725
1751013990326422300,5.92542236328125,0.004018709994852543,0.018637865781784058,-0.02046879008412361
1751013990336366300,5.935366455078125,0.017791513353586197,0.01648789644241333,-0.01443779468536377
1751013990346310400,5.945310302734375,0.029091838747262955,0.005332979839295149,-0.010231331922113895
1751013990356253400,5.95525341796875,0.024414263665676117,-0.005697300657629967,-0.0015046859625726938
1751013990366197200,5.965197265625,0.011258247308433056,-0.016461530700325966,0.004984372295439243
1751013990376141300,5.975141357421875,-0.0028493159916251898,-0.02726251445710659,0.021446170285344124
1751013990386084400,5.98508447265625,-0.0075577846728265285,-0.030539533123373985,0.035885561257600784
1751013990396028200,5.995028076171875,-0.002373675350099802,-0.024684041738510132,0.05619349703192711
1751013990405972200,6.00497216796875,0.008330633863806725,-0.032095618546009064,0.07357382029294968
1751013990415916300,6.014916259765625,0.0218493714928627,-0.03136138617992401,0.09539230167865753
1751013990425859300,6.024859375,0.030530212447047234,-0.022671757265925407,0.10744896531105042
1751013990435803400,6.034803466796875,0.03380456939339638,-0.005096225067973137,0.10259535163640976
1751013990445747500,6.04474755859375,0.03146950900554657,-0.0046605318784713745,0.07944528758525848
1751013990455691300,6.054691162109375,0.021094899624586105,-0.024746092036366463,0.04719121381640434
1751013990465634300,6.06463427734375,0.000012250540748937055,-0.03680754825472832,0.01859445683658123
1751013990475578400,6.074578369140625,-0.01780136674642563,-0.03369484469294548,0.014604508876800537
1751013990485522200,6.084522216796875,-0.029631927609443665,-0.01648230478167534,0.018184330314397812
1751013990495465200,6.09446533203125,-0.04801146686077118,-0.007792143151164055,0.025483256205916405
1751013990505409300,6.1044091796875,-0.07156020402908325,0.004211256746202707,0.020862670615315437
1751013990515353000,6.11435302734375,-0.08954878896474838,0.028237497434020042,0.010906975716352463
1751013990525297400,6.12429736328125,-0.08566643297672272,0.07188084721565247,-0.008249940350651741
1751013990535240400,6.134240478515625,-0.05936851724982262,0.1324925273656845,-0.03402081876993179
1751013990545184300,6.144184326171875,-0.01775316521525383,0.18018841743469238,-0.05509600788354874
1751013990555128300,6.15412841796875,0.020666396245360374,0.20930156111717224,-0.05632612109184265
1751013990565071400,6.1640712890625,0.05036650225520134,0.20638726651668549,-0.030354710295796394
1751013990575015400,6.174015380859375,0.049000032246112823,0.19770748913288116,0.010999654419720173
1751013990584959200,6.183959228515625,0.042756251990795135,0.1773468255996704,0.05904361233115196
1751013990594903300,6.1939033203125,0.02671150490641594,0.14294517040252686,0.10438259690999985
1751013990604846300,6.203846435546875,0.004174238536506891,0.11420540511608124,0.13903778791427612
1751013990614790400,6.213790283203125,-0.016390424221754074,0.10172636061906815,0.16287733614444733
1751013990624734500,6.223734375,-0.025419872254133224,0.09795479476451874,0.16608138382434845
1751013990634678300,6.23367822265625,-0.010847588069736958,0.09305457770824432,0.14487490057945251
1751013990644621300,6.243621337890625,0.020594224333763123,0.09373234957456589,0.10294635593891144
1751013990654565400,6.2535654296875,0.05745610222220421,0.09660563617944717,0.05308692157268524
1751013990664509200,6.26350927734375,0.08171084523200989,0.0865628570318222,0.00006471481174230576
1751013990674452200,6.2734521484375,0.09921872615814209,0.06215817853808403,-0.04538878798484802
1751013990684396300,6.283396240234375,0.10680767148733139,0.03985314071178436,-0.0744076520204544
1751013990694340400,6.29334033203125,0.1041189432144165,0.023686420172452927,-0.08694528788328171
1751013990704284400,6.303284423828125,0.093255914747715,0.0280380267649889,-0.07969535887241364
1751013990714227500,6.3132275390625,0.08391647040843964,0.03134087845683098,-0.058750662952661514
1751013990724171500,6.323171630859375,0.07657786458730698,0.027510719373822212,-0.028363997116684914
1751013990734115300,6.333115234375,0.06294647604227066,0.017850102856755257,-0.0021579593885689974
1751013990744059400,6.343059326171875,0.04563406482338905,-0.004596616141498089,0.02285604737699032
1751013990754002400,6.35300244140625,0.02852272056043148,-0.018513230606913567,0.05198676884174347
1751013990763946200,6.3629462890625,0.013583719730377197,-0.01564979925751686,0.07287047803401947
1751013990773890300,6.372890380859375,0.011138937436044216,0.0016823188634589314,0.07257194072008133
1751013990783833300,6.382833251953125,0.009916546754539013,0.010068080388009548,0.05478069186210632
1751013990793777200,6.392777099609375,-0.013588513247668743,0.009162605740129948,0.008264853619039059
1751013990803721500,6.402721435546875,-0.07815179228782654,-0.01218422781676054,-0.08527734875679016
1751013990813665300,6.412665283203125,-0.17151156067848206,-0.04555896297097206,-0.21002380549907684
1751013990823608300,6.4226083984375,-0.2566767930984497,-0.08671518415212631,-0.3102196455001831
1751013990833552400,6.432552490234375,-0.3063594102859497,-0.1289377361536026,-0.3360280692577362
1751013990843496400,6.442496337890625,-0.3079721927642822,-0.1301095336675644,-0.2804606854915619
1751013990853439200,6.452439208984375,-0.25811144709587097,-0.08482754230499268,-0.15086515247821808
1751013990863383300,6.46238330078125,-0.17114831507205963,0.0032509206794202328,-0.00603472301736474
1751013990873327400,6.472327392578125,-0.056167133152484894,0.10493520647287369,0.1114298552274704
1751013990883275300,6.482275146484375,0.0248467605561018,0.19160857796669006,0.15176263451576233
1751013990893218300,6.49221826171875,0.058465972542762756,0.2201869636774063,0.11364027857780457
1751013990903162400,6.502162353515625,0.06842885911464691,0.21380549669265747,0.035596609115600586
1751013990913106400,6.5121064453125,0.0682498961687088,0.1952642947435379,-0.04452219232916832
1751013990923050500,6.522050537109375,0.04565217345952988,0.1677144318819046,-0.10487022250890732
1751013990932993500,6.53199365234375,0.006705306936055422,0.13267149031162262,-0.13686063885688782
1751013990942937300,6.541937255859375,-0.024656876921653748,0.11224904656410217,-0.12811163067817688
1751013990952881400,6.55188134765625,-0.04346412047743797,0.1032816469669342,-0.10214181244373322
1751013990962824400,6.561824462890625,-0.046352319419384,0.09092191606760025,-0.0783241018652916
1751013990972768300,6.571768310546875,-0.038833148777484894,0.07362202554941177,-0.05950620397925377
1751013990982712300,6.58171240234375,-0.011668906547129154,0.057917095720767975,-0.03683071956038475
1751013990992656400,6.591656494140625,0.011930961161851883,0.05359691381454468,-0.005830458365380764
1751013991002599400,6.601599365234375,0.028266258537769318,0.05428720638155937,0.03626532852649689
1751013991012543500,6.61154345703125,0.037393178790807724,0.062488146126270294,0.06822406500577927
1751013991022487300,6.6214873046875,0.03771328926086426,0.060317669063806534,0.07932251691818237
1751013991032431400,6.631431396484375,0.03081383928656578,0.059548549354076385,0.069541797041893
1751013991042374400,6.64137451171875,0.014460432343184948,0.04986955597996712,0.05258544534444809
1751013991052318200,6.651318115234375,-0.0107107013463974,0.048468731343746185,0.01847408153116703
1751013991062262300,6.66126220703125,-0.02846493013203144,0.055199071764945984,-0.0024229439441114664
1751013991072205300,6.671205322265625,-0.03651566803455353,0.06255525350570679,-0.020961740985512733
1751013991082149400,6.6811494140625,-0.03906191512942314,0.05116411671042442,-0.03224369138479233
1751013991092093400,6.691093505859375,-0.03434811905026436,0.039014775305986404,-0.042759981006383896
1751013991102037500,6.70103759765625,-0.02533225528895855,0.03521471098065376,-0.04303721711039543
1751013991111980500,6.71098046875,-0.0318404883146286,0.03508554771542549,-0.05723639205098152
1751013991121924400,6.72092431640625,-0.06054536998271942,0.0391540601849556,-0.0913032814860344
1751013991131868400,6.730868408203125,-0.08456815034151077,0.047511857002973557,-0.12869006395339966
1751013991141811500,6.7408115234375,-0.09714891761541367,0.058569569140672684,-0.15104331076145172
1751013991151755300,6.75075537109375,-0.10503534227609634,0.06884138286113739,-0.1445920765399933
1751013991161699300,6.76069921875,-0.10374770313501358,0.06353104114532471,-0.1361200213432312
1751013991171643100,6.77064306640625,-0.08073346316814423,0.04617202281951904,-0.11025939881801605
1751013991181586200,6.780586181640625,-0.047811731696128845,0.03650821000337601,-0.07156553119421005
1751013991191530500,6.790530517578125,-0.004688494838774204,0.03963875398039818,-0.02858663722872734
1751013991201474300,6.800474365234375,0.028503546491265297,0.044492367655038834,0.01170432660728693
1751013991211418400,6.81041845703125,0.03837694972753525,0.048832520842552185,0.023690948262810707
1751013991221361400,6.820361328125,0.030907316133379936,0.05335883051156998,0.015418104827404022
1751013991231305500,6.830305419921875,0.018163025379180908,0.04542314261198044,0.005537510849535465
1751013991241249300,6.840249267578125,0.0000125168571685208,0.04187128320336342,-0.009239571169018745
1751013991251192300,6.8501923828125,-0.014798386953771114,0.029809027910232544,-0.01769590564072132
1751013991261136400,6.860136474609375,-0.03359444439411163,0.004805141594260931,-0.033670876175165176
1751013991271080200,6.870080078125,-0.03965020552277565,-0.01829458586871624,-0.037526603788137436
1751013991281024500,6.8800244140625,-0.035535089671611786,-0.022186528891324997,-0.031188279390335083
1751013991290967600,6.889967529296875,-0.0359840989112854,-0.018264224752783775,-0.03531245142221451
1751013991300911400,6.899911376953125,-0.029045499861240387,-0.012570120394229889,-0.033305760473012924
1751013991310855400,6.90985546875,-0.015912920236587524,0.0002796319022309035,-0.023517310619354248
1751013991320799200,6.91979931640625,-0.011157846078276634,0.03080292046070099,-0.005745237227529287
1751013991330742300,6.9297421875,-0.017107347026467323,0.04946981370449066,0.0007797735743224621
1751013991340686300,6.939686279296875,-0.020187826827168465,0.05433354526758194,-0.0008165251929312944
1751013991350630400,6.94963037109375,-0.01908314786851406,0.04914544150233269,-0.009693373925983906
1751013991360573200,6.9595732421875,-0.022821692749857903,0.0289341788738966,-0.027481958270072937
1751013991370517200,6.969517333984375,-0.02863936871290207,0.004727643448859453,-0.03875724971294403
1751013991380461600,6.979461669921875,-0.02773336134850979,-0.00660437298938632,-0.044066525995731354
1751013991390405400,6.9894052734375,-0.02961328625679016,-0.010369550436735153,-0.039441414177417755
1751013991400348400,6.999348388671875,-0.036140959709882736,-0.005291967187076807,-0.0380813404917717
1751013991410292500,7.00929248046875,-0.033054888248443604,-0.0047028763219714165,-0.037639785557985306
1751013991420236300,7.019236328125,-0.022791065275669098,0.0033278861083090305,-0.03593829274177551
1751013991430180400,7.029180419921875,-0.013834855519235134,0.007190801203250885,-0.03773006796836853
1751013991440123400,7.039123291015625,-0.003456783015280962,0.01176531333476305,-0.03249695524573326
1751013991450067200,7.049067138671875,0.005921804811805487,0.010697918012738228,-0.02984737791121006
1751013991460011300,7.05901123046875,0.009496565908193588,0.005120726302266121,-0.03182477504014969
1751013991469954300,7.068954345703125,0.01053360104560852,-0.0024373249616473913,-0.029385052621364594
1751013991479898400,7.0788984375,0.0049343048594892025,-0.00740385428071022,-0.028015123680233955
1751013991489842400,7.088842529296875,-0.004177700728178024,-0.009671268984675407,-0.030819697305560112
1751013991499786500,7.098786376953125,-0.012971192598342896,-0.01450171135365963,-0.03570100665092468
1751013991509729300,7.108729248046875,-0.01824105530977249,-0.018512431532144547,-0.040827590972185135
1751013991519673300,7.11867333984375,-0.02461027167737484,-0.013591175898909569,-0.04928179457783699
1751013991529617400,7.128617431640625,-0.034395258873701096,0.00401471508666873,-0.061829011887311935
1751013991539561200,7.138561279296875,-0.0510978065431118,0.019470104947686195,-0.08066555112600327
1751013991549504300,7.148504150390625,-0.07115300744771957,0.046783484518527985,-0.10300414264202118
1751013991559448600,7.158448486328125,-0.08963347971439362,0.07197672128677368,-0.11465547233819962
1751013991569392400,7.168392333984375,-0.10489285737276077,0.09073948860168457,-0.10631658881902695
1751013991579335400,7.17833544921875,-0.10455863177776337,0.10798771679401398,-0.08091402053833008
1751013991589279500,7.188279541015625,-0.0926993116736412,0.13121260702610016,-0.04776006564497948
1751013991599223300,7.198223388671875,-0.06714734435081482,0.15200763940811157,-0.004944957327097654
1751013991609167400,7.20816748046875,-0.04695499315857887,0.15864689648151398,0.026640398427844048
1751013991619110400,7.2181103515625,-0.010411894880235195,0.1550455093383789,0.049424540251493454
1751013991629054200,7.22805419921875,0.022402243688702583,0.1404375433921814,0.060557086020708084
1751013991638998300,7.237998291015625,0.05025997385382652,0.12707273662090302,0.049481265246868134
1751013991648941300,7.24794140625,0.06876441836357117,0.10558288544416428,0.0305176954716444
1751013991658885400,7.257885498046875,0.07497117668390274,0.08240752667188644,0.006840861868113279
1751013991668829400,7.267829345703125,0.0690525695681572,0.05446137860417366,-0.006392918061465025
1751013991678773500,7.2777734375,0.04640451818704605,0.02575543150305748,-0.02256656251847744
1751013991688716300,7.28771630859375,0.025078454986214638,-0.0003635214816313237,-0.02472452074289322
1751013991698660400,7.297660400390625,0.015080149285495281,-0.013192500919103622,-0.022116487845778465
1751013991708604400,7.3076044921875,0.014549913816154003,-0.015895076096057892,-0.00896499864757061
1751013991718548200,7.31754833984375,0.018202438950538635,-0.009790845215320587,0.00800253264605999
1751013991728491300,7.3274912109375,0.02869263105094433,-0.0013494236627593637,0.02690245397388935
1751013991738435300,7.337435302734375,0.03910825401544571,0.01372353546321392,0.04511421546339989
1751013991748379400,7.34737939453125,0.04764421656727791,0.02172207273542881,0.05013267695903778
1751013991758322400,7.357322509765625,0.057921890169382095,0.024531709030270576,0.045817822217941284
1751013991768266500,7.3672666015625,0.0717596709728241,0.025242771953344345,0.04235997423529625
1751013991778210300,7.377210205078125,0.0705719068646431,0.02328747883439064,0.034025344997644424
1751013991788154400,7.387154296875,0.07120759785175323,0.017580591142177582,0.038360703736543655
1751013991798097400,7.397097412109375,0.07735098153352737,0.01555552426725626,0.05301554873585701
1751013991808041200,7.407041259765625,0.0769544392824173,0.01197889819741249,0.07677920162677765
1751013991817985300,7.4169853515625,0.06833724677562714,0.012680375017225742,0.08736713230609894
1751013991827929300,7.426929443359375,0.05961725860834122,0.008230232633650303,0.07892384380102158
1751013991837872400,7.436872314453125,0.05431783199310303,0.009767143055796623,0.0633038729429245
1751013991847816400,7.44681640625,0.05541105940937996,0.015809856355190277,0.036797430366277695
1751013991857760500,7.456760498046875,0.05421929806470871,0.023035012185573578,0.012683038599789143
1751013991867703600,7.46670361328125,0.060375191271305084,0.03087162971496582,-0.0017291904659941792
1751013991877647400,7.4766474609375,0.06329774856567383,0.02895015850663185,-0.014620753936469555
1751013991887587000,7.486587158203125,0.060083575546741486,0.0208877045661211,-0.030375216156244278
1751013991897531100,7.49653125,0.05878502130508423,0.013049222528934479,-0.04285319149494171
1751013991907474000,7.506473876953125,0.05351382493972778,0.0005864280392415822,-0.052982524037361145
1751013991917418000,7.51641796875,0.04426652938127518,-0.007676029112190008,-0.05463821068406105
1751013991927362000,7.526362060546875,0.04668547958135605,0.0010636665392667055,-0.04315199702978134
1751013991937306000,7.53630615234375,0.04830388352274895,0.006369482260197401,-0.022589731961488724
1751013991947249200,7.546249267578125,0.05404805392026901,0.010666226036846638,0.006188387516885996
1751013991957193200,7.556193115234375,0.05835491791367531,0.005803028121590614,0.020719127729535103
1751013991967137000,7.566136962890625,0.07075300067663193,-0.0054333810694515705,0.023145532235503197
1751013991977080000,7.576080078125,0.07971213757991791,-0.01762213744223118,0.01732492819428444
1751013991987024100,7.586024169921875,0.08330260962247849,-0.021213144063949585,0.007159642409533262
1751013991996968000,7.595968017578125,0.08998049050569534,-0.01296293642371893,-0.0039015309885144234
1751013992006912000,7.605912109375,0.09420399367809296,0.0070555126294493675,-0.009332515299320221
1751013992016855000,7.61585498046875,0.08424536883831024,0.018553709611296654,-0.014881744049489498
1751013992026798800,7.625798828125,0.069534070789814,0.017116136848926544,-0.02581881359219551
1751013992036743200,7.6357431640625,0.055933840572834015,0.005120459944009781,-0.0359974168241024
1751013992046686200,7.645686279296875,0.04520130157470703,-0.02353515289723873,-0.0479707196354866
1751013992056630000,7.655630126953125,0.026093652471899986,-0.05431916564702988,-0.0540778823196888
1751013992066574000,7.665573974609375,0.01775982230901718,-0.07116072624921799,-0.05628005042672157
1751013992076518100,7.67551806640625,0.022853650152683258,-0.06371240317821503,-0.04656297340989113
1751013992086461200,7.685461181640625,0.03283544257283211,-0.04080122709274292,-0.024396685883402824
1751013992096405000,7.695405029296875,0.04014262557029724,-0.021866416558623314,-0.0015337144723162055
1751013992106349000,7.70534912109375,0.04496560990810394,0.001398425898514688,0.02178918570280075
1751013992116292900,7.71529296875,0.04881574213504791,0.023926638066768646,0.0405476912856102
1751013992126236000,7.72523583984375,0.04203932732343674,0.031670842319726944,0.05609309673309326
1751013992136180200,7.73518017578125,0.039751674979925156,0.03207244724035263,0.06725014001131058
1751013992146124000,7.7451240234375,0.03735003620386124,0.03327566385269165,0.07745058089494705
1751013992156067000,7.755067138671875,0.03730103373527527,0.03235820680856705,0.08335081487894058
1751013992166011100,7.76501123046875,0.03241972625255585,0.022644326090812683,0.07992332428693771
1751013992175955000,7.774954833984375,0.02424701675772667,0.017610685899853706,0.05338093265891075
1751013992185899000,7.78489892578125,0.02322915568947792,0.009219064377248287,0.02694746106863022
1751013992195842000,7.794842041015625,0.030777620151638985,0.007860852405428886,0.013796239160001278
1751013992205786000,7.8047861328125,0.023674435913562775,0.004890629090368748,0.005154015496373177
1751013992215730000,7.81472998046875,0.00757935643196106,0.010806575417518616,-0.003468234557658434
1751013992225674200,7.82467431640625,-0.0033936661202460527,0.01215466670691967,-0.0038163098506629467
1751013992235617300,7.8346171875,-0.008641957305371761,0.027175161987543106,0.003549727378413081
1751013992245561000,7.84456103515625,-0.01571664586663246,0.03348072990775108,0.017427725717425346
1751013992255505200,7.854505126953125,-0.014314490370452404,0.03472282737493515,0.020232833921909332
1751013992265448200,7.8644482421875,-0.0037611823063343763,0.02810966596007347,0.02804335206747055
1751013992275392000,7.87439208984375,-0.00040986048406921327,0.01480424590408802,0.0312226340174675
1751013992285336000,7.884336181640625,-0.00009108010999625549,0.003719104453921318,0.027521904557943344
1751013992295279900,7.89427978515625,-0.0026192190125584602,-0.007906125858426094,0.02556528151035309
1751013992305223000,7.904222900390625,-0.011292868293821812,-0.015173892490565777,0.025532525032758713
1751013992315167200,7.914167236328125,-0.014958443120121956,-0.01116184052079916,0.026310699060559273
1751013992325111000,7.924111083984375,-0.02137133479118347,-0.0020639498252421618,0.02111700363457203
1751013992335054000,7.93405419921875,-0.02731204777956009,0.0086603332310915,0.003866909770295024
1751013992344998100,7.943998046875,-0.03105778433382511,0.011740812100470066,-0.020352942869067192
1751013992354942200,7.953942138671875,-0.02341318130493164,0.011297129094600677,-0.033300966024398804
1751013992364886000,7.963885986328125,-0.012207929976284504,0.015517174266278744,-0.029135247692465782
1751013992374829000,7.9738291015625,-0.010495251044631004,0.01534779742360115,-0.016596820205450058
1751013992384773000,7.983773193359375,-0.013822871260344982,0.011316570453345776,-0.012577311135828495
1751013992394717000,7.993717041015625,-0.029139243066310883,0.01417307648807764,-0.015060708858072758
1751013992404661200,8.0036611328125,-0.04363243281841278,0.0312226340174675,-0.01991538517177105
1751013992414604300,8.013604248046875,-0.05249090492725372,0.04833078011870384,-0.023694144561886787
1751013992424548000,8.023548095703125,-0.05576526001095772,0.051187820732593536,-0.02756797894835472
1751013992434492200,8.0334921875,-0.057492319494485855,0.042634811252355576,-0.03735855594277382
1751013992444435200,8.043435302734375,-0.051179565489292145,0.023017168045043945,-0.049852244555950165
1751013992454379000,8.05337890625,-0.043584227561950684,0.007815845310688019,-0.04406199976801872
1751013992464323000,8.063322998046875,-0.03539953753352165,-0.0020298613235354424,-0.02931367978453636
1751013992474267000,8.073266845703126,-0.035224564373493195,0.0011622034944593906,-0.007631820626556873
1751013992484210000,8.0832099609375,-0.03892875835299492,0.009327721782028675,0.011235610581934452
1751013992494154000,8.093154052734375,-0.03814791887998581,0.009840380400419235,0.027522703632712364
1751013992504098300,8.103098388671874,-0.04345027357339859,0.011884355917572975,0.027636421844363213
1751013992514041000,8.113041015625,-0.0487331859767437,0.009309878572821617,0.016153136268258095
1751013992523985200,8.122985107421876,-0.04994066059589386,0.002554770326241851,0.004443484358489513
1751013992533929200,8.13292919921875,-0.039689090102910995,0.0057076867669820786,0.006086388137191534
1751013992543873000,8.142873046875,-0.0297914519906044,0.014315023086965084,0.020123910158872604
1751013992553816000,8.152816162109374,-0.02040966786444187,0.018331335857510567,0.03434279188513756
1751013992563760000,8.162760009765625,-0.017786454409360886,0.024638233706355095,0.040165796875953674
1751013992573704000,8.172703857421874,-0.01318371295928955,0.029461219906806946,0.04152986779808998
1751013992583648000,8.18264794921875,-0.01775609329342842,0.034814704209566116,0.0419815368950367
1751013992593591000,8.192591064453126,-0.023846477270126343,0.028422320261597633,0.04358183220028877
1751013992603535000,8.20253515625,-0.029816750437021255,0.03371615335345268,0.0395953468978405
1751013992613479200,8.212479248046876,-0.026316292583942413,0.03681447356939316,0.03952184319496155
1751013992623422200,8.222422119140624,-0.026859311386942863,0.039204925298690796,0.03009771555662155
1751013992633366000,8.232365966796875,-0.02954351156949997,0.0383407324552536,0.020057864487171173
1751013992643310000,8.24231005859375,-0.02546008676290512,0.03910505771636963,0.014509966596961021
1751013992653254100,8.252254150390625,-0.023148728534579277,0.035883430391550064,0.0144724166020751
1751013992663197000,8.262197021484376,-0.019342271611094475,0.027893949300050735,0.011812451295554638
1751013992673141000,8.27214111328125,-0.015393070876598358,0.022733541205525398,0.009861418977379799
1751013992683085000,8.2820849609375,-0.011554124765098095,0.019061308354139328,0.008863266557455063
1751013992693028000,8.292028076171874,-0.009762083180248737,0.021397434175014496,0.011481153778731823
1751013992702972200,8.30197216796875,-0.01607217639684677,0.023578830063343048,0.019281286746263504
1751013992712916200,8.311916259765624,-0.020382503047585487,0.02220730111002922,0.01859099417924881
1751013992722860000,8.321860107421875,-0.025920813903212547,0.010848652571439743,0.013232980854809284
1751013992732803000,8.331802978515626,-0.03147856518626213,-0.0024019049014896154,0.0008303736103698611
1751013992742747100,8.3417470703125,-0.026522420346736908,-0.014933675527572632,-0.007291468791663647
1751013992752691000,8.35169091796875,-0.023077355697751045,-0.026758909225463867,-0.004824582487344742
1751013992762635000,8.361635009765624,-0.018324146047234535,-0.029864154756069183,-0.0008990831556729972
1751013992772578000,8.371578125,-0.007092264015227556,-0.02895149029791355,0.012899287045001984
1751013992782521900,8.38152197265625,-0.0007571366732008755,-0.023566313087940216,0.02816958539187908
1751013992792466200,8.391466064453125,0.0031401331070810556,-0.01576857641339302,0.04965117573738098
1751013992802409200,8.4014091796875,-0.003817907767370343,-0.015409049578011036,0.07486012578010559
1751013992812353000,8.41135302734375,-0.02628939412534237,-0.010536530055105686,0.08961430191993713
1751013992822297000,8.421297119140625,-0.046069756150245667,-0.0032205607276409864,0.108741395175457
1751013992832241200,8.4312412109375,-0.05409998819231987,0.00612154183909297,0.12569373846054077
1751013992842184200,8.44118408203125,-0.053091179579496384,0.007458715233951807,0.12974734604358673
1751013992852128000,8.4511279296875,-0.04175703227519989,0.0054517569951713085,0.12032827734947205
1751013992862072000,8.461072021484375,-0.029105421155691147,0.006872819736599922,0.10300175100564957
1751013992872015000,8.47101513671875,-0.014148309826850891,0.01673237420618534,0.08145570755004883
1751013992881963300,8.48096337890625,-0.002894589677453041,0.02328907698392868,0.055510398000478745
1751013992891907300,8.4909072265625,0.015864450484514236,0.03496251255273819,0.034395523369312286
1751013992901851100,8.50085107421875,0.022041119635105133,0.025676334276795387,0.029844980686903
1751013992911794200,8.510794189453126,-0.001198688754811883,0.008414257317781448,0.01697259210050106
1751013992921738200,8.52073828125,-0.016690297052264214,-0.006031793542206287,0.017413077875971794
1751013992931682000,8.53068212890625,-0.0278026033192873,-0.015388543717563152,0.025777801871299744
1751013992941626400,8.54062646484375,-0.039560992270708084,-0.018761703744530678,0.04025820642709732
1751013992951569200,8.550569091796875,-0.04361831769347191,-0.013424462638795376,0.0674019455909729
1751013992961513200,8.56051318359375,-0.039197470992803574,-0.0037875475827604532,0.07870812714099884
1751013992971457300,8.570457275390625,-0.0294878501445055,-0.002156361471861601,0.0854102373123169
1751013992981400300,8.580400390625,-0.011577294208109379,0.0009334379574283957,0.08756100386381149
1751013992991344000,8.59034423828125,0.002689260058104992,0.011661715805530548,0.08826248347759247
1751013993001288200,8.6002880859375,0.010557569563388824,0.017311612144112587,0.07373467087745667
1751013993011232300,8.610232177734375,0.021555092185735703,0.020686635747551918,0.053040314465761185
1751013993021175000,8.620175048828125,0.026799656450748444,0.017970211803913116,0.0346144363284111
1751013993031119000,8.630119140625,0.01822800561785698,0.01011149026453495,0.01715448498725891
1751013993041063400,8.6400634765625,0.006554305553436279,0.003914314322173595,-0.0014674017438665032
1751013993051006000,8.650005859375,-0.011839881539344788,-0.006350839976221323,-0.014198909513652325
1751013993060950300,8.6599501953125,-0.018758773803710938,-0.021472269669175148,-0.015536349266767502
1751013993070894300,8.669894287109376,-0.02419295348227024,-0.02479349635541439,-0.00785472709685564
1751013993080838100,8.679838134765625,-0.029832730069756508,-0.029507558792829514,-0.018994996324181557
1751013993090781200,8.68978125,-0.02315698377788067,-0.030047381296753883,-0.036317527294158936
1751013993100725200,8.699725341796874,-0.0067511131055653095,-0.014388260431587696,-0.04622635245323181
1751013993110669000,8.7096689453125,0.01264255866408348,-0.0005347627447918057,-0.05823773890733719
1751013993120612000,8.719612060546876,0.01968422159552574,0.0033987262286245823,-0.06743816286325455
1751013993130556200,8.72955615234375,0.021385716274380684,-0.003870371961966157,-0.0796934962272644
1751013993140500200,8.739500244140626,0.018996328115463257,-0.016813866794109344,-0.07761570066213608
1751013993150444300,8.7494443359375,0.011902199126780033,-0.03545333072543144,-0.08127248287200928
1751013993160387300,8.75938720703125,0.004257861990481615,-0.05410158634185791,-0.0690283328294754
1751013993170331100,8.7693310546875,-0.00020000340009573847,-0.06059197336435318,-0.053146842867136
1751013993180275200,8.779275146484375,-0.006841394584625959,-0.06343862414360046,-0.03568582609295845
1751013993190219300,8.78921923828125,-0.0046512107364833355,-0.06085110083222389,-0.018613630905747414
1751013993200162000,8.799162109375,-0.0024104269687086344,-0.05218756943941116,-0.0036932716611772776
1751013993210106000,8.809106201171875,0.0007600661483593285,-0.051480233669281006,-0.0023102923296391964
1751013993220050200,8.81905029296875,0.0033270870335400105,-0.05646567419171333,-0.0010399643797427416
1751013993229993200,8.8289931640625,0.008376706391572952,-0.05517910048365593,-0.00492098880931735
1751013993239937300,8.838937255859374,0.0038575888611376286,-0.05199901759624481,-0.012997291050851345
1751013993249881300,8.84888134765625,-0.002889529801905155,-0.04954518377780914,-0.02623826265335083
1751013993259825200,8.8588251953125,-0.003564907470718026,-0.04234878718852997,-0.038538869470357895
1751013993269768200,8.868768310546875,0.002287389012053609,-0.03208443149924278,-0.041492316871881485
1751013993279712300,8.878712158203125,0.002871153876185417,-0.01919206976890564,-0.044083040207624435
1751013993289656000,8.888656005859374,0.005241101142019033,-0.009858489967882633,-0.03121890500187874
1751013993299599000,8.89859912109375,0.0015022892039269209,0.0012024171883240342,-0.016989368945360184
1751013993309543200,8.908543212890624,-0.00034221619716845453,0.0043561323545873165,-0.007412642706185579
1751013993319487000,8.918487060546875,-0.00574816670268774,0.008591357618570328,-0.0010306433541700244
1751013993329431300,8.928431396484376,-0.013501161709427834,0.012837501242756844,-0.000764593540225178
1751013993339374300,8.938374267578125,-0.020538032054901123,0.018576348200440407,-0.009229983203113079
1751013993349318100,8.948318115234375,-0.02159104496240616,0.025677932426333427,-0.015629027038812637
1751013993359262200,8.95826220703125,-0.021710354834794998,0.034689802676439285,-0.020229903981089592
1751013993369205200,8.968205322265625,-0.021396102383732796,0.03822168707847595,-0.03219069167971611
1751013993379149300,8.9781494140625,-0.015144065022468567,0.04098045453429222,-0.03921504691243172
1751013993389093000,8.988093017578125,-0.0041273669339716434,0.03905259445309639,-0.038478948175907135
1751013993399037200,8.998037109375,0.0026908579748123884,0.03959614410996437,-0.02919277362525463
1751013993408980200,9.007980224609375,0.006673615425825119,0.037517283111810684,-0.0024652881547808647
1751013993418924000,9.017924072265625,0.0075876121409237385,0.0441616028547287,0.02225417271256447
1751013993428868400,9.027868408203124,0.00923184771090746,0.05161792039871216,0.05655835196375847
1751013993438811400,9.037811279296875,0.005143895745277405,0.05656846985220909,0.07125074416399002
1751013993448755200,9.047755126953126,-0.005078648217022419,0.05203443765640259,0.06475929170846939
1751013993458699300,9.05769921875,-0.011927765794098377,0.042457178235054016,0.03969654440879822
1751013993468643000,9.06764306640625,-0.01830337382853031,0.03208443149924278,0.0036884781438857317
1751013993478586000,9.077586181640624,-0.015922773629426956,0.026882480829954147,-0.028541097417473793
1751013993488530200,9.0875302734375,-0.013935523107647896,0.01967623271048069,-0.04573899134993553
1751013993498474200,9.09747412109375,-0.007635549176484346,0.02371971122920513,-0.047679103910923004
1751013993508417000,9.1074169921875,-0.001088700257241726,0.035289812833070755,-0.048346757888793945
1751013993518361000,9.117361083984376,0.01079538930207491,0.045644182711839676,-0.02954750508069992
1751013993528305400,9.127305419921875,0.012339490465819836,0.051056526601314545,-0.009858223609626293
1751013993538249200,9.137249267578126,0.013787717558443546,0.05010657757520676,0.02298814058303833
1751013993548192300,9.147192138671874,0.006770021747797728,0.04021133482456207,0.041793785989284515
1751013993558136300,9.15713623046875,0.0008679241873323917,0.024264059960842133,0.05020058527588844
1751013993568080100,9.167080078125,-0.0027598338201642036,0.009209743700921535,0.050389137119054794
1751013993578024200,9.177024169921875,-0.009319998323917389,0.0038069887086749077,0.040102411061525345
1751013993587967200,9.18696728515625,-0.01715448498725891,0.00023169501218944788,0.014623683877289295
1751013993597911000,9.1969111328125,-0.024922393262386322,-0.0032346753869205713,-0.013767477124929428
1751013993607855000,9.206855224609376,-0.02539723552763462,0.0004932174342684448,-0.04569451883435249
1751013993617798100,9.216798095703124,-0.026200179010629654,0.006888266187161207,-0.06445275992155075
1751013993627742200,9.2267421875,-0.018939336761832237,0.01446868758648634,-0.057254236191511154
1751013993637686300,9.236686279296874,-0.012072907760739326,0.018145980313420296,-0.04068244993686676
1751013993647630300,9.24663037109375,-0.013335779309272766,0.013944311067461967,-0.016515061259269714
1751013993657573000,9.256572998046876,-0.019340941682457924,0.006878412328660488,0.01074132788926363
1751013993667517200,9.26651708984375,-0.021683191880583763,0.006202768534421921,0.023509852588176727
1751013993677461200,9.276461181640625,-0.02623293548822403,0.011435880325734615,0.0243103988468647
1751013993687404000,9.286404052734374,-0.03271853178739548,0.012922989204525948,0.00962972454726696
1751013993697348000,9.29634814453125,-0.03604641929268837,0.021876269951462746,-0.015606123954057693
1751013993707292200,9.306292236328124,-0.026265159249305725,0.03490152582526207,-0.04331977665424347
1751013993717236200,9.316236328125,-0.004310326185077429,0.05232924968004227,-0.06861421465873718
1751013993727179300,9.32617919921875,0.007445133291184902,0.060203418135643005,-0.0795973539352417
1751013993737123300,9.336123291015625,0.010265421122312546,0.0543266199529171,-0.08173906803131104
1751013993747067100,9.346067138671875,0.007765777874737978,0.04221749305725098,-0.07158523797988892
1751013993757010200,9.35601025390625,0.004573446698486805,0.027704598382115364,-0.04885515570640564
1751013993766954200,9.365954345703125,-0.0011491540353745222,0.01901417039334774,-0.02094469591975212
1751013993776898000,9.37589794921875,-0.0037771612405776978,0.018502844497561455,0.003734284546226263
1751013993786842000,9.385842041015625,-0.0005193164106458426,0.0205681249499321,0.02185096964240074
1751013993796785200,9.39578515625,-0.004924184642732143,0.0289956983178854,0.017543040215969086
1751013993806729000,9.40572900390625,-0.0037446708884090185,0.031955536454916,-0.0017619474092498422
1751013993816673300,9.41567333984375,0.017162209376692772,0.038175616413354874,-0.024582574144005775
1751013993826616300,9.4256162109375,0.034923095256090164,0.044566668570041656,-0.04384308680891991
1751013993836560100,9.43556005859375,0.056183911859989166,0.04982055351138115,-0.048237305134534836
1751013993846504200,9.445504150390626,0.057309363037347794,0.035463716834783554,-0.028984779492020607
1751013993856448300,9.4554482421875,0.036005403846502304,0.010373811237514019,0.020045081153512
1751013993866391300,9.465391357421876,0.0127557422965765,0.005938316695392132,0.10611791163682938
1751013993876335000,9.475335205078125,0.007019826211035252,0.009985522367060184,0.19338516891002655
1751013993886275000,9.485275146484375,0.031146202236413956,0.03947923332452774,0.2383936643600464
1751013993896218000,9.495218017578125,0.06810501962900162,0.0639219880104065,0.19667445123195648
1751013993906162000,9.505161865234374,0.09055546671152115,0.017182182520627975,0.07550673931837082
1751013993916106000,9.51510595703125,0.08895277231931686,-0.06650818884372711,-0.03881903365254402
1751013993926050000,9.525050048828126,0.06768743693828583,-0.08962362259626389,-0.09462424367666245
1751013993935992800,9.534992919921875,0.038367629051208496,-0.0359332337975502,-0.08741213381290436
1751013993945937000,9.54493701171875,0.03148921579122543,0.02942526713013649,-0.05326854810118675
1751013993955881000,9.554880859375,0.04926688224077225,0.0653286725282669,-0.025432655587792397
1751013993965824000,9.564823974609375,0.0598236508667469,0.06715107709169388,-0.019146796315908432
1751013993975767800,9.574767822265626,0.06366952508687973,0.06601230800151825,-0.0249042846262455
1751013993985712000,9.584712158203125,0.06204818934202194,0.07152718305587769,-0.03585467115044594
1751013993995656000,9.594656005859376,0.0587964728474617,0.07115434110164642,-0.048288434743881226
1751013994005599000,9.604598876953125,0.054487209767103195,0.05487869307398796,-0.06102447211742401
1751013994015543000,9.61454296875,0.04129790514707565,0.027295803651213646,-0.06107720360159874
1751013994025486800,9.62448681640625,0.03321174904704094,0.016202138736844063,-0.04313149303197861
1751013994035430000,9.634429931640625,0.020417923107743263,0.020732708275318146,-0.016982445493340492
1751013994045374000,9.6443740234375,0.019576897844672203,0.034274082630872726,0.0018977685831487179
1751013994055317800,9.65431787109375,0.023424632847309113,0.04165956377983093,-0.0013915016315877438
1751013994065261800,9.66426171875,0.03337926045060158,0.04631343483924866,-0.022360699251294136
1751013994075204900,9.674204833984374,0.03454865515232086,0.045225270092487335,-0.03580513596534729
1751013994085149000,9.68414892578125,0.033303629606962204,0.03256699815392494,-0.041958101093769073
1751013994095093000,9.694093017578124,0.029695844277739525,0.007818774320185184,-0.03425384312868118
1751013994105036000,9.7040361328125,0.01691187173128128,-0.011293933726847172,-0.016465259715914726
1751013994114980000,9.71397998046875,0.005002215504646301,-0.025356754660606384,0.015600531361997128
1751013994124924000,9.723923828125,0.0019025622168555856,-0.025199895724654198,0.04325053468346596
1751013994134867000,9.733866943359375,0.0020791299175471067,-0.016525980085134506,0.05180700495839119
1751013994144811000,9.74381103515625,0.015018630772829056,-0.016205068677663803,0.04158898815512657
1751013994154754800,9.7537548828125,0.02870621345937252,-0.009916280396282673,0.008401740342378616
1751013994164699000,9.763698974609374,0.041252098977565765,-0.0067993164993822575,-0.029950708150863647
1751013994174642000,9.773641845703125,0.048465535044670105,-0.0014793860027566552,-0.061562430113554
1751013994184586000,9.7835859375,0.047323305159807205,0.005739378277212381,-0.0912441611289978
1751013994194530000,9.793530029296875,0.04513765126466751,0.006163087207823992,-0.11077205091714859
1751013994204473000,9.80347314453125,0.03958602622151375,0.0046301716938614845,-0.10253383219242096
1751013994214417000,9.8134169921875,0.02750725857913494,0.011513111181557178,-0.0772005096077919
1751013994224361000,9.82336083984375,0.021345768123865128,0.02544410713016987,-0.041125599294900894
1751013994234305000,9.833304931640624,0.012941098771989346,0.028376780450344086,-0.007843275554478168
1751013994244247800,9.843247802734375,0.012206599116325378,0.018508436158299446,0.016697220504283905
1751013994254191900,9.85319189453125,0.013498498126864433,0.007496532052755356,0.043287817388772964
1751013994264136000,9.863135986328125,0.021009411662817,0.018326276913285255,0.06274647265672684
1751013994274078700,9.87307861328125,0.027579430490732193,0.021088773384690285,0.06058318540453911
1751013994284023000,9.88302294921875,0.030169885605573654,0.020326044410467148,0.04074636474251747
1751013994293967000,9.892967041015625,0.031372569501399994,0.017418671399354935,0.006376939360052347
1751013994303911000,9.902910888671874,0.019111109897494316,0.011009241454303265,-0.027345869690179825
1751013994313854000,9.91285400390625,0.013577061705291271,0.013745639473199844,-0.0546581856906414
1751013994323798000,9.922798095703126,0.0062701464630663395,0.015549665316939354,-0.06270679086446762
1751013994333741800,9.932741943359375,0.0011771172285079956,0.015662582591176033,-0.05584941804409027
1751013994343684900,9.942684814453125,0.0015217302134260535,0.02796958200633526,-0.04029708728194237
1751013994353629000,9.95262890625,0.00936021190136671,0.04434056580066681,-0.013919011689722538
1751013994363572700,9.96257275390625,0.010615626350045204,0.06065988540649414,0.003631752682849765
1751013994373517000,9.97251708984375,0.01125079020857811,0.06813644617795944,0.006079730577766895
1751013994383460000,9.982460205078125,0.004916728008538485,0.05348479747772217,-0.008949286304414272
1751013994393404000,9.99240380859375,-0.0010077401529997587,0.03946245461702347,-0.03079892508685589
1751013994403348000,10.002347900390625,-0.005301021970808506,0.01938008889555931,-0.04691823944449425
1751013994413291000,10.012291015625,-0.005754558369517326,0.004508731886744499,-0.05639616400003433
1751013994423234800,10.02223486328125,-0.005501558072865009,-0.010068080388009548,-0.06210092082619667
1751013994433179000,10.032178955078125,0.0007123955874703825,-0.022532472386956215,-0.06871435046195984
1751013994443123000,10.042123046875,0.013647901825606823,-0.01685088500380516,-0.07915341109037399
1751013994453066000,10.05206591796875,0.030297718942165375,0.00842650793492794,-0.0824567899107933
1751013994463009800,10.062009765625,0.03710901737213135,0.03648743778467178,-0.0773717537522316
1751013994472954000,10.0719541015625,0.031081486493349075,0.055509064346551895,-0.08640173077583313
1751013994482897200,10.081897216796875,0.03268018364906311,0.05175107717514038,-0.10633043199777603
1751013994492841000,10.091841064453124,0.04315013438463211,0.029264410957694054,-0.12460637837648392
1751013994502785000,10.101784912109375,0.06030808016657829,0.011349859647452831,-0.11596707999706268
1751013994512728000,10.11172802734375,0.06816200911998749,0.000464188982732594,-0.09807010740041733
1751013994522671900,10.121671875,0.0732095018029213,-0.0018876485992223024,-0.06631989777088165
1751013994532616000,10.131615966796875,0.0739290863275528,0.01672971062362194,-0.04062279313802719
1751013994542559700,10.141559814453124,0.08227862417697906,0.046545397490262985,-0.024937041103839874
1751013994552502800,10.151502685546875,0.10317645221948624,0.07330750674009323,-0.02840767242014408
1751013994562446800,10.16144677734375,0.12447907775640488,0.0855090394616127,-0.03889333829283714
1751013994572391000,10.171390869140625,0.13638180494308472,0.08883879333734512,-0.045764558017253876
1751013994582334000,10.181333984375,0.15779069066047668,0.09193072468042374,-0.05211646482348442
1751013994592278000,10.191278076171875,0.16850778460502625,0.09867198020219803,-0.06112487241625786
1751013994602222000,10.20122216796875,0.17858412861824036,0.10713284462690353,-0.07342947274446487
1751013994612166000,10.211165771484374,0.17938093841075897,0.1057666465640068,-0.09014001488685608
1751013994622109000,10.22110888671875,0.18226061761379242,0.10057587921619415,-0.11859002709388733
1751013994632053000,10.231052978515624,0.1833873987197876,0.15302976965904236,-0.09754706174135208
1751013994641996800,10.240996826171875,0.15005500614643097,0.23293285071849823,0.0012873720843344927
1751013994651939800,10.25093994140625,0.09374672919511795,0.09588605165481567,-0.0011116034584119916
1751013994661884000,10.2608837890625,0.09282927215099335,-0.01074186060577631,-0.04231629893183708
1751013994671828000,10.270827880859375,0.13269253075122833,0.051719654351472855,-0.045161619782447815
1751013994681772000,10.28077197265625,0.1499418318271637,0.09332595020532608,-0.055443018674850464
1751013994691715000,10.290715087890625,0.14549647271633148,0.0950881689786911,-0.08552315831184387
1751013994701659000,10.300658935546876,0.1600586473941803,0.11916261166334152,-0.10734749585390091
1751013994711603000,10.31060302734375,0.16722866892814636,0.16124801337718964,-0.11083437502384186
1751013994721546000,10.3205458984375,0.1661231964826584,0.18014021217823029,-0.0970301404595375
1751013994731489800,10.33048974609375,0.15277543663978577,0.16701136529445648,-0.08488879352807999
1751013994741433900,10.340433837890625,0.14389406144618988,0.13599379360675812,-0.08678442984819412
1751013994751377000,10.350376953125,0.14457182586193085,0.11637907475233078,-0.0924130231142044
1751013994761320700,10.36032080078125,0.14360669255256653,0.10155671834945679,-0.08527442067861557
1751013994771265000,10.37026513671875,0.13833977282047272,0.06318376213312149,-0.051175568252801895
1751013994781209000,10.380208984375,0.11857618391513824,0.022539397701621056,0.015955263748764992
1751013994791152000,10.390152099609375,0.09195202589035034,0.0003328951424919069,0.11325544863939285
