time,seconds_elapsed,z,y,x
1751013527680608800,0.11560888671875,-0.9858856201171875,-0.21966552734375,-0.0270538330078125
1751013527690551800,0.1255517578125,-0.9910430908203125,-0.2203216552734375,-0.026458740234375
1751013527700494800,0.135494873046875,-0.9873199462890625,-0.2170562744140625,-0.0188446044921875
1751013527710438700,0.145438720703125,-0.9829559326171875,-0.2114715576171875,-0.0132293701171875
1751013527720381700,0.155381591796875,-0.9897613525390625,-0.2093353271484375,-0.008880615234375
1751013527730325800,0.16532568359375,-0.9943084716796875,-0.213775634765625,-0.0107574462890625
1751013527740268800,0.175268798828125,-0.9907684326171875,-0.2166748046875,-0.012054443359375
1751013527750211800,0.1852119140625,-0.98779296875,-0.216156005859375,-0.0093536376953125
1751013527760155600,0.19515576171875,-0.9889373779296875,-0.216796875,-0.0085601806640625
1751013527770098700,0.2050986328125,-0.9920654296875,-0.2216949462890625,-0.01226806640625
1751013527780041700,0.215041748046875,-0.992645263671875,-0.2285614013671875,-0.014556884765625
1751013527789985500,0.224985595703125,-0.9880218505859375,-0.233001708984375,-0.017333984375
1751013527799928600,0.234928466796875,-0.9891815185546875,-0.2360076904296875,-0.020172119140625
1751013527809873000,0.244872802734375,-0.995819091796875,-0.240478515625,-0.02056884765625
1751013527819816000,0.25481591796875,-1.001434326171875,-0.2408294677734375,-0.0171051025390625
1751013527829759000,0.264759033203125,-1.0061492919921875,-0.2376861572265625,-0.0123443603515625
1751013527839702800,0.274702880859375,-1.00958251953125,-0.235687255859375,-0.0088348388671875
1751013527849645800,0.284645751953125,-1.00738525390625,-0.2348175048828125,-0.0055389404296875
1751013527859588900,0.2945888671875,-1.0029296875,-0.2336273193359375,0.0003662109375
1751013527869533000,0.304532958984375,-1.0011444091796875,-0.2340087890625,0.003662109375
1751013527879475700,0.314475830078125,-0.99481201171875,-0.234588623046875,0.0052947998046875
1751013527889418800,0.324418701171875,-0.991119384765625,-0.2346649169921875,0.006988525390625
1751013527899362800,0.33436279296875,-0.992828369140625,-0.2389678955078125,0.0056304931640625
1751013527909305900,0.344305908203125,-0.9914398193359375,-0.2436370849609375,0.000091552734375
1751013527919249700,0.354249755859375,-0.9854278564453125,-0.245025634765625,-0.004638671875
1751013527929192700,0.364192626953125,-0.977569580078125,-0.2448272705078125,-0.006500244140625
1751013527939135700,0.3741357421875,-0.9756622314453125,-0.2462158203125,-0.00872802734375
1751013527949079800,0.384079833984375,-0.980010986328125,-0.2458648681640625,-0.008819580078125
1751013527959022800,0.39402294921875,-0.9893646240234375,-0.2469635009765625,-0.009124755859375
1751013527968966000,0.4039658203125,-0.994415283203125,-0.250335693359375,-0.009124755859375
1751013527978909700,0.41390966796875,-0.9954681396484375,-0.249298095703125,-0.0080413818359375
1751013527988852700,0.423852783203125,-1.000579833984375,-0.2459716796875,-0.0088653564453125
1751013527998796800,0.433796875,-1.00872802734375,-0.24542236328125,-0.0088043212890625
1751013528008739600,0.443739501953125,-1.0154266357421875,-0.24444580078125,-0.0036468505859375
1751013528018682600,0.4536826171875,-1.017578125,-0.240142822265625,0.0032196044921875
1751013528028626700,0.463626708984375,-1.0135040283203125,-0.2349090576171875,0.0090484619140625
1751013528038569700,0.47356982421875,-1.012451171875,-0.228118896484375,0.01593017578125
1751013528048512800,0.4835126953125,-1.0056915283203125,-0.2226715087890625,0.031341552734375
1751013528058456600,0.49345654296875,-0.9923095703125,-0.220367431640625,0.0419464111328125
1751013528068399600,0.503399658203125,-0.9827728271484375,-0.2172698974609375,0.0487060546875
1751013528078342700,0.5133427734375,-0.974273681640625,-0.2158203125,0.0546112060546875
1751013528088287000,0.523286865234375,-0.9698944091796875,-0.21759033203125,0.05157470703125
1751013528098229800,0.533229736328125,-0.9672698974609375,-0.2195587158203125,0.0473175048828125
1751013528108173800,0.543173828125,-0.9647979736328125,-0.222259521484375,0.0385894775390625
1751013528118116900,0.553116943359375,-0.9657440185546875,-0.2244110107421875,0.0310821533203125
1751013528128060000,0.563059814453125,-0.970062255859375,-0.2261810302734375,0.0334930419921875
1751013528138003700,0.573003662109375,-0.9794464111328125,-0.2249755859375,0.039093017578125
1751013528147946800,0.58294677734375,-0.988739013671875,-0.2251129150390625,0.0369415283203125
1751013528157889800,0.592889892578125,-0.984588623046875,-0.2273406982421875,0.0326385498046875
1751013528167833900,0.602833740234375,-0.98077392578125,-0.2290802001953125,0.0223388671875
1751013528177777000,0.61277685546875,-0.98052978515625,-0.2326812744140625,0.0170135498046875
1751013528187720700,0.622720703125,-0.979949951171875,-0.2304229736328125,0.0137786865234375
1751013528197663700,0.632663818359375,-0.9728851318359375,-0.22894287109375,0.018463134765625
1751013528207606800,0.642606689453125,-0.9696502685546875,-0.226531982421875,0.0209197998046875
1751013528217550800,0.65255078125,-0.9717559814453125,-0.227752685546875,0.0202789306640625
1751013528227494000,0.662493896484375,-0.971649169921875,-0.2331390380859375,0.0182037353515625
1751013528237436700,0.672436767578125,-0.9690704345703125,-0.233428955078125,0.0135650634765625
1751013528247380700,0.682380615234375,-0.9660797119140625,-0.2313385009765625,0.0123291015625
1751013528257323800,0.69232373046875,-0.9681854248046875,-0.2294921875,0.010406494140625
1751013528267266800,0.702266845703125,-0.97222900390625,-0.230682373046875,0.0093536376953125
1751013528277210600,0.712210693359375,-0.982757568359375,-0.2321319580078125,0.0074462890625
1751013528287153700,0.722153564453125,-0.9898834228515625,-0.2340240478515625,0.0058746337890625
1751013528297097700,0.73209765625,-0.989654541015625,-0.23431396484375,0.00592041015625
1751013528307040800,0.742040771484375,-0.98431396484375,-0.2339324951171875,0.0110015869140625
1751013528316983800,0.75198388671875,-0.977996826171875,-0.2347564697265625,0.0121002197265625
1751013528326927600,0.761927734375,-0.97406005859375,-0.23724365234375,0.00994873046875
1751013528336870700,0.77187060546875,-0.97332763671875,-0.2415771484375,0.0092926025390625
1751013528346813700,0.781813720703125,-0.97528076171875,-0.2449798583984375,0.0128936767578125
1751013528356757800,0.7917578125,-0.9765167236328125,-0.2467041015625,0.0157470703125
1751013528366700500,0.801700439453125,-0.97564697265625,-0.2471466064453125,0.01690673828125
1751013528376644900,0.811644775390625,-0.9737091064453125,-0.2448883056640625,0.0206298828125
1751013528386588000,0.821587890625,-0.9722747802734375,-0.2372589111328125,0.0145416259765625
1751013528396531000,0.831531005859375,-0.976654052734375,-0.2311859130859375,0.00067138671875
1751013528406474800,0.841474853515625,-0.98291015625,-0.2268829345703125,-0.0106048583984375
1751013528416417800,0.851417724609375,-0.990264892578125,-0.223724365234375,-0.021697998046875
1751013528426360800,0.86136083984375,-1.003082275390625,-0.2209014892578125,-0.029296875
1751013528436304600,0.8713046875,-1.0162811279296875,-0.2173309326171875,-0.024688720703125
1751013528446247700,0.88124755859375,-1.03411865234375,-0.213623046875,-0.014923095703125
1751013528456190500,0.8911904296875,-1.0446624755859375,-0.217376708984375,-0.0252532958984375
1751013528466134500,0.901134521484375,-1.0294189453125,-0.2183074951171875,-0.0223388671875
1751013528476077600,0.91107763671875,-1.01861572265625,-0.216583251953125,-0.0192718505859375
1751013528486021600,0.921021728515625,-1.0131683349609375,-0.219512939453125,-0.032470703125
1751013528495964400,0.93096435546875,-1.002532958984375,-0.2220458984375,-0.029022216796875
1751013528505907500,0.940907470703125,-0.992279052734375,-0.2250823974609375,-0.0237884521484375
1751013528515851800,0.950851806640625,-0.98492431640625,-0.2299957275390625,-0.023681640625
1751013528525794800,0.960794921875,-0.979766845703125,-0.234527587890625,-0.0287322998046875
1751013528535737900,0.97073779296875,-0.9792938232421875,-0.2388153076171875,-0.0302734375
1751013528545681700,0.980681640625,-0.985076904296875,-0.241912841796875,-0.0274810791015625
1751013528555624700,0.990624755859375,-0.988250732421875,-0.2423858642578125,-0.02545166015625
1751013528565567700,1.000567626953125,-0.98138427734375,-0.2412109375,-0.0274200439453125
1751013528575511800,1.01051171875,-0.972381591796875,-0.2396697998046875,-0.0297393798828125
1751013528585454600,1.02045458984375,-0.973663330078125,-0.2393646240234375,-0.0295257568359375
1751013528595398700,1.030398681640625,-0.9809722900390625,-0.2392425537109375,-0.025604248046875
1751013528605341700,1.040341796875,-0.9897308349609375,-0.2395172119140625,-0.0205535888671875
1751013528615284700,1.05028466796875,-0.9945220947265625,-0.2371826171875,-0.0166168212890625
1751013528625228500,1.060228515625,-0.994659423828125,-0.2337188720703125,-0.0121917724609375
1751013528635171600,1.070171630859375,-0.993408203125,-0.228851318359375,-0.0123291015625
1751013528645114600,1.080114501953125,-0.993896484375,-0.23095703125,-0.01519775390625
1751013528655058700,1.09005859375,-0.9951171875,-0.2337188720703125,-0.0122528076171875
1751013528665001700,1.100001708984375,-0.995086669921875,-0.232666015625,-0.010833740234375
1751013528674945500,1.109945556640625,-0.987030029296875,-0.227783203125,-0.0149993896484375
1751013528684888600,1.119888671875,-0.9816131591796875,-0.225250244140625,-0.015533447265625
1751013528694831600,1.12983154296875,-0.9860382080078125,-0.2238922119140625,-0.0079498291015625
1751013528704775700,1.139775634765625,-0.986907958984375,-0.2225341796875,-0.001129150390625
1751013528714718500,1.149718505859375,-0.9831085205078125,-0.2209625244140625,-0.0005950927734375
1751013528724661500,1.15966162109375,-0.9848480224609375,-0.2237701416015625,-0.005828857421875
1751013528734605600,1.16960546875,-0.9834747314453125,-0.2276458740234375,-0.00408935546875
1751013528744548600,1.179548583984375,-0.979827880859375,-0.2303314208984375,0.0010986328125
1751013528754491600,1.18949169921875,-0.978302001953125,-0.2309112548828125,0.00726318359375
1751013528764435500,1.199435546875,-0.979766845703125,-0.2313385009765625,0.010650634765625
1751013528774378500,1.20937841796875,-0.98101806640625,-0.2331695556640625,0.0126800537109375
1751013528784322800,1.21932275390625,-0.980438232421875,-0.2345123291015625,0.0125732421875
1751013528794265900,1.229265869140625,-0.9830322265625,-0.2368927001953125,0.0088653564453125
1751013528804208600,1.239208740234375,-0.9843292236328125,-0.2374420166015625,0.0084381103515625
1751013528814152700,1.249152587890625,-0.9857940673828125,-0.2393951416015625,0.0077362060546875
1751013528824095700,1.259095703125,-0.98602294921875,-0.238494873046875,0.0088043212890625
1751013528834038800,1.269038818359375,-0.9854736328125,-0.235565185546875,0.0093994140625
1751013528843982600,1.278982666015625,-0.9858551025390625,-0.2364044189453125,0.0097198486328125
1751013528853925600,1.288925537109375,-0.988922119140625,-0.238250732421875,0.013519287109375
1751013528863869700,1.29886962890625,-0.9914093017578125,-0.23919677734375,0.0145721435546875
1751013528873812700,1.308812744140625,-0.9891357421875,-0.2410888671875,0.0121612548828125
1751013528883755800,1.318755859375,-0.9892120361328125,-0.24298095703125,0.013580322265625
1751013528893699600,1.328699462890625,-0.993499755859375,-0.2423248291015625,0.010650634765625
1751013528903642600,1.338642578125,-0.993011474609375,-0.2411041259765625,0.007781982421875
1751013528913585700,1.348585693359375,-0.991729736328125,-0.240936279296875,0.0047149658203125
1751013528923529700,1.35852978515625,-0.98974609375,-0.241455078125,0.00146484375
1751013528933472500,1.368472412109375,-0.9877166748046875,-0.2408294677734375,0.0037689208984375
1751013528943415600,1.37841552734375,-0.9878387451171875,-0.2419281005859375,0.00518798828125
1751013528953359600,1.388359619140625,-0.983856201171875,-0.2403411865234375,0.0050506591796875
1751013528963302700,1.398302734375,-0.980804443359375,-0.2411041259765625,0.003753662109375
1751013528973246500,1.40824658203125,-0.982696533203125,-0.243011474609375,0.004913330078125
1751013528983189500,1.418189453125,-0.9848175048828125,-0.2438507080078125,0.005950927734375
1751013528993132500,1.428132568359375,-0.9840850830078125,-0.2451934814453125,0.00604248046875
1751013529003076600,1.43807666015625,-0.9827728271484375,-0.2457733154296875,0.009521484375
1751013529013019600,1.44801953125,-0.9840850830078125,-0.2458953857421875,0.010284423828125
1751013529022962700,1.457962646484375,-0.9842529296875,-0.2457275390625,0.0085906982421875
1751013529032906500,1.467906494140625,-0.9823455810546875,-0.2464599609375,0.0052032470703125
1751013529042849500,1.477849609375,-0.97857666015625,-0.2489471435546875,0.0040283203125
1751013529052792600,1.48779248046875,-0.9725341796875,-0.249969482421875,0.008514404296875
1751013529062736600,1.497736572265625,-0.971771240234375,-0.2503814697265625,0.014251708984375
1751013529072679700,1.5076796875,-0.972625732421875,-0.246856689453125,0.0160980224609375
1751013529082623700,1.517623779296875,-0.9715423583984375,-0.24200439453125,0.0134735107421875
1751013529092566800,1.52756689453125,-0.9745635986328125,-0.241119384765625,0.0132293701171875
1751013529102509800,1.537509765625,-0.9801788330078125,-0.244049072265625,0.011688232421875
1751013529112453600,1.54745361328125,-0.983612060546875,-0.24688720703125,0.0128936767578125
1751013529122396700,1.557396728515625,-0.9856109619140625,-0.24542236328125,0.012969970703125
1751013529132339700,1.567339599609375,-0.9885101318359375,-0.2412567138671875,0.0152587890625
1751013529142283800,1.57728369140625,-0.992919921875,-0.2384490966796875,0.012237548828125
1751013529152226600,1.5872265625,-0.9942626953125,-0.236297607421875,0.0049285888671875
1751013529162169600,1.597169677734375,-1.0029449462890625,-0.2359619140625,0.002593994140625
1751013529172113700,1.60711376953125,-1.017242431640625,-0.2433319091796875,0.0090484619140625
1751013529182056700,1.617056640625,-1.01611328125,-0.2444915771484375,0.012298583984375
1751013529192000500,1.62700048828125,-1.0163726806640625,-0.238739013671875,0.0146636962890625
1751013529201943600,1.636943603515625,-1.02001953125,-0.238037109375,0.0194854736328125
1751013529211886600,1.646886474609375,-1.0170135498046875,-0.240447998046875,0.02099609375
1751013529221830700,1.65683056640625,-1.00604248046875,-0.237274169921875,0.019378662109375
1751013529231773700,1.666773681640625,-0.9942169189453125,-0.232452392578125,0.0207672119140625
1751013529241716700,1.676716796875,-0.9876556396484375,-0.23297119140625,0.0167999267578125
1751013529251660500,1.68666064453125,-0.9829254150390625,-0.2345123291015625,0.014068603515625
1751013529261603600,1.696603515625,-0.9810943603515625,-0.231414794921875,0.0116729736328125
1751013529271547600,1.706547607421875,-0.9801788330078125,-0.231353759765625,0.00537109375
1751013529281490700,1.71649072265625,-0.9834747314453125,-0.23486328125,0.0015869140625
1751013529291433500,1.72643359375,-0.9825897216796875,-0.238677978515625,-0.0093841552734375
1751013529301377500,1.73637744140625,-0.9774627685546875,-0.2407379150390625,-0.0136871337890625
1751013529311320600,1.746320556640625,-0.9780731201171875,-0.241729736328125,-0.0131378173828125
1751013529321263600,1.756263671875,-0.9833984375,-0.2467193603515625,-0.0111083984375
1751013529331207700,1.766207763671875,-0.9830322265625,-0.24951171875,-0.010589599609375
1751013529341150500,1.776150390625,-0.9820556640625,-0.2470703125,-0.011444091796875
1751013529351093500,1.786093505859375,-0.980194091796875,-0.246063232421875,-0.0152435302734375
1751013529361037800,1.796037841796875,-0.97723388671875,-0.247711181640625,-0.015594482421875
1751013529370980900,1.80598095703125,-0.9756927490234375,-0.2469940185546875,-0.0065460205078125
1751013529380924700,1.815924560546875,-0.9708251953125,-0.2423095703125,-0.003814697265625
1751013529390867700,1.82586767578125,-0.9638671875,-0.2376251220703125,-0.0048370361328125
1751013529400810800,1.835810791015625,-0.9606781005859375,-0.2345428466796875,-0.007080078125
1751013529410754600,1.845754638671875,-0.9597625732421875,-0.23345947265625,-0.0166778564453125
1751013529420697600,1.855697509765625,-0.962127685546875,-0.23602294921875,-0.02398681640625
1751013529430640600,1.865640625,-0.96746826171875,-0.2381439208984375,-0.0215301513671875
1751013529440585000,1.8755849609375,-0.9756622314453125,-0.2382354736328125,-0.0242767333984375
1751013529450528000,1.885528076171875,-0.9754180908203125,-0.2384490966796875,-0.030731201171875
1751013529460471000,1.895470947265625,-0.9705810546875,-0.238800048828125,-0.03778076171875
1751013529470414800,1.905414794921875,-0.971099853515625,-0.23541259765625,-0.042022705078125
1751013529480358000,1.91535791015625,-0.9734649658203125,-0.232025146484375,-0.0402984619140625
1751013529490302000,1.925302001953125,-0.9766845703125,-0.2285919189453125,-0.0366668701171875
1751013529500244700,1.93524462890625,-0.978546142578125,-0.224365234375,-0.0331573486328125
1751013529510187800,1.945187744140625,-0.9788818359375,-0.2220458984375,-0.0325469970703125
1751013529520131800,1.9551318359375,-0.97998046875,-0.2235565185546875,-0.0382843017578125
1751013529530075000,1.965074951171875,-0.9837188720703125,-0.22479248046875,-0.03997802734375
1751013529540018000,1.975017822265625,-0.9878692626953125,-0.22265625,-0.0394287109375
1751013529549961700,1.984961669921875,-0.990814208984375,-0.2201690673828125,-0.0422821044921875
1751013529559904800,1.99490478515625,-0.9912872314453125,-0.221405029296875,-0.04205322265625
1751013529569847800,2.004847900390625,-0.990203857421875,-0.2226715087890625,-0.0453033447265625
1751013529579792000,2.0147919921875,-0.9942779541015625,-0.224609375,-0.0455169677734375
1751013529589735000,2.02473486328125,-0.99896240234375,-0.227447509765625,-0.04351806640625
1751013529599679000,2.034678955078125,-0.9943084716796875,-0.226776123046875,-0.0443267822265625
1751013529609622000,2.0446220703125,-0.986328125,-0.2198638916015625,-0.040771484375
1751013529619565000,2.05456494140625,-0.986968994140625,-0.2165985107421875,-0.0368194580078125
1751013529629508900,2.0645087890625,-0.988433837890625,-0.2187652587890625,-0.0297698974609375
1751013529639452000,2.074451904296875,-0.988067626953125,-0.2213592529296875,-0.0240020751953125
1751013529649395000,2.08439501953125,-0.980133056640625,-0.220458984375,-0.020599365234375
1751013529659339000,2.094339111328125,-0.9674224853515625,-0.21966552734375,-0.019622802734375
1751013529669282000,2.104281982421875,-0.96697998046875,-0.2213897705078125,-0.02203369140625
1751013529679225000,2.11422509765625,-0.9729461669921875,-0.2252197265625,-0.0224456787109375
1751013529689169000,2.1241689453125,-0.9743194580078125,-0.2265167236328125,-0.0210113525390625
1751013529699112000,2.13411181640625,-0.97857666015625,-0.229278564453125,-0.020965576171875
1751013529709055000,2.144054931640625,-0.9859161376953125,-0.231658935546875,-0.01995849609375
1751013529718998800,2.153998779296875,-0.9907379150390625,-0.2326812744140625,-0.0187225341796875
1751013529728941800,2.16394189453125,-0.9918365478515625,-0.2308502197265625,-0.018341064453125
1751013529738886000,2.173885986328125,-0.9861907958984375,-0.22918701171875,-0.0212249755859375
1751013529748829000,2.183828857421875,-0.982391357421875,-0.227142333984375,-0.0252227783203125
1751013529758772000,2.19377197265625,-0.979339599609375,-0.2266082763671875,-0.0257720947265625
1751013529768715800,2.2037158203125,-0.974578857421875,-0.2292938232421875,-0.02789306640625
1751013529778658800,2.213658935546875,-0.9722747802734375,-0.2283477783203125,-0.03131103515625
1751013529788601900,2.223601806640625,-0.97076416015625,-0.2310333251953125,-0.02642822265625
1751013529798546000,2.2335458984375,-0.9793701171875,-0.234405517578125,-0.0274810791015625
1751013529808489000,2.243489013671875,-0.983612060546875,-0.2341461181640625,-0.0301666259765625
1751013529818431700,2.253431640625,-0.98455810546875,-0.2348175048828125,-0.0325469970703125
1751013529828375800,2.263375732421875,-0.9916839599609375,-0.2332305908203125,-0.032745361328125
1751013529838318800,2.27331884765625,-1.0080413818359375,-0.2313232421875,-0.032135009765625
1751013529848263000,2.283262939453125,-1.0178070068359375,-0.236114501953125,-0.031280517578125
1751013529858205700,2.293205810546875,-1.0181884765625,-0.2393798828125,-0.0350341796875
1751013529868148700,2.303148681640625,-1.016082763671875,-0.238250732421875,-0.038177490234375
1751013529878093000,2.313093017578125,-1.0085601806640625,-0.2339324951171875,-0.0434722900390625
1751013529888035800,2.323035888671875,-1.0046234130859375,-0.2296295166015625,-0.0447235107421875
1751013529897979000,2.332978759765625,-1.0025634765625,-0.22418212890625,-0.044677734375
1751013529907923000,2.3429228515625,-1.00384521484375,-0.221466064453125,-0.046356201171875
1751013529917866000,2.352865966796875,-1.0043792724609375,-0.2178955078125,-0.0492401123046875
1751013529927809000,2.36280908203125,-1.01483154296875,-0.2169342041015625,-0.0466766357421875
1751013529937753000,2.372753173828125,-1.0378265380859375,-0.2212677001953125,-0.0372772216796875
1751013529947695900,2.38269580078125,-1.0444183349609375,-0.223876953125,-0.03045654296875
1751013529957640000,2.392639892578125,-1.0281524658203125,-0.2201385498046875,-0.0330657958984375
1751013529967583000,2.4025830078125,-1.0131988525390625,-0.214508056640625,-0.0361175537109375
1751013529977526000,2.412526123046875,-1,-0.21240234375,-0.03656005859375
1751013529987469800,2.4224697265625,-0.9839630126953125,-0.2131500244140625,-0.0357818603515625
1751013529997412900,2.432412841796875,-0.966644287109375,-0.2158355712890625,-0.0286102294921875
1751013530007356000,2.44235595703125,-0.957061767578125,-0.2155609130859375,-0.0173187255859375
1751013530017300000,2.452300048828125,-0.956634521484375,-0.2156829833984375,-0.00726318359375
1751013530027243000,2.462242919921875,-0.95367431640625,-0.21588134765625,0.0038604736328125
1751013530037185800,2.472185791015625,-0.9543914794921875,-0.217987060546875,0.0110931396484375
1751013530047129900,2.4821298828125,-0.9600830078125,-0.217193603515625,0.01849365234375
1751013530057073000,2.492072998046875,-0.9644317626953125,-0.210540771484375,0.0195465087890625
1751013530067016000,2.502015869140625,-0.9657135009765625,-0.2022552490234375,0.0272216796875
1751013530076959700,2.511959716796875,-0.971160888671875,-0.1995391845703125,0.0277862548828125
1751013530086902800,2.52190283203125,-0.9680633544921875,-0.2004547119140625,0.0240936279296875
1751013530096846800,2.531846923828125,-0.9634246826171875,-0.199493408203125,0.0220184326171875
1751013530106790000,2.541789794921875,-0.9652252197265625,-0.1961517333984375,0.0171661376953125
1751013530116733000,2.55173291015625,-0.973785400390625,-0.1907958984375,0.0122833251953125
1751013530126676700,2.5616767578125,-0.9921875,-0.19158935546875,0.010101318359375
1751013530136619800,2.571619873046875,-1.0070037841796875,-0.195098876953125,0.0084381103515625
1751013530146562800,2.581562744140625,-1.01495361328125,-0.1933746337890625,0.011749267578125
1751013530156507000,2.5915068359375,-1.010894775390625,-0.1872100830078125,0.012542724609375
1751013530166449700,2.60144970703125,-1.0074462890625,-0.180419921875,0.0118865966796875
1751013530176392700,2.611392822265625,-1.007049560546875,-0.18017578125,0.0108184814453125
1751013530186337000,2.6213369140625,-1.0069427490234375,-0.179962158203125,0.007659912109375
1751013530196280000,2.631280029296875,-1.0085296630859375,-0.1791839599609375,0.0071258544921875
1751013530206222800,2.641222900390625,-1.0069580078125,-0.177459716796875,0.0092315673828125
1751013530216167000,2.6511669921875,-1.012664794921875,-0.1814422607421875,0.0058746337890625
1751013530226110000,2.66110986328125,-1.0171356201171875,-0.1922454833984375,0
1751013530236054000,2.671053955078125,-1.0108795166015625,-0.1994171142578125,-0.001007080078125
1751013530245997000,2.6809970703125,-1.0007781982421875,-0.2017364501953125,-0.0013427734375
1751013530255939800,2.69093994140625,-0.990447998046875,-0.200408935546875,-0.0013580322265625
1751013530265884000,2.7008837890625,-0.983551025390625,-0.201568603515625,-0.00164794921875
1751013530275827000,2.710826904296875,-0.9806060791015625,-0.2023773193359375,-0.001312255859375
1751013530285770000,2.72077001953125,-0.980865478515625,-0.2014007568359375,-0.0003662109375
1751013530295713800,2.7307138671875,-0.986572265625,-0.20294189453125,-0.000885009765625
1751013530305656800,2.74065673828125,-0.9919586181640625,-0.2057342529296875,-0.004241943359375
1751013530315600000,2.750599853515625,-0.998138427734375,-0.210235595703125,-0.0084381103515625
1751013530325544000,2.7605439453125,-0.9975128173828125,-0.21368408203125,-0.0124969482421875
1751013530335487000,2.770487060546875,-0.9971923828125,-0.2123870849609375,-0.01275634765625
1751013530345430800,2.7804306640625,-0.996124267578125,-0.2138519287109375,-0.010223388671875
1751013530355373800,2.790373779296875,-0.9857330322265625,-0.2168121337890625,-0.0101470947265625
1751013530365316900,2.80031689453125,-0.976531982421875,-0.21917724609375,-0.009613037109375
1751013530375261000,2.810260986328125,-0.9789276123046875,-0.2211151123046875,-0.008331298828125
1751013530385203700,2.82020361328125,-0.9807586669921875,-0.22344970703125,-0.00445556640625
1751013530395146800,2.830146728515625,-0.9803924560546875,-0.22564697265625,-0.000762939453125
1751013530405090800,2.8400908203125,-0.980865478515625,-0.2257537841796875,0.0009765625
1751013530415033900,2.850033935546875,-0.9808349609375,-0.2232208251953125,-0.00042724609375
1751013530424977000,2.859976806640625,-0.9835205078125,-0.2212066650390625,-0.0013275146484375
1751013530434921500,2.86992138671875,-0.991912841796875,-0.2215118408203125,0.0053863525390625
1751013530444864500,2.879864501953125,-0.99383544921875,-0.221466064453125,0.0074462890625
1751013530454807600,2.8898076171875,-0.986480712890625,-0.22265625,0.003448486328125
1751013530464751400,2.89975146484375,-0.976104736328125,-0.2241668701171875,-0.002716064453125
1751013530474694400,2.9096943359375,-0.96881103515625,-0.225616455078125,-0.000701904296875
1751013530484638500,2.919638427734375,-0.9661865234375,-0.227325439453125,0.0016326904296875
1751013530494581500,2.92958154296875,-0.9650726318359375,-0.2279815673828125,0.006103515625
1751013530504524500,2.939524658203125,-0.9692230224609375,-0.225738525390625,0.0108795166015625
1751013530514468400,2.94946826171875,-0.97808837890625,-0.221099853515625,0.0118560791015625
1751013530524411400,2.959411376953125,-0.9830780029296875,-0.2211456298828125,0.013427734375
1751013530534354400,2.9693544921875,-0.9905853271484375,-0.2209625244140625,0.014373779296875
1751013530544298500,2.979298583984375,-0.996917724609375,-0.2179718017578125,0.008941650390625
1751013530554241500,2.989241455078125,-1.0020904541015625,-0.2156982421875,0.0039215087890625
1751013530564184300,2.999184326171875,-1.003326416015625,-0.2141265869140625,-0.0034027099609375
1751013530574128600,3.009128662109375,-1.002960205078125,-0.212493896484375,-0.0082244873046875
1751013530584071400,3.019071533203125,-1.002227783203125,-0.2122955322265625,-0.011505126953125
1751013530594014500,3.029014404296875,-1.0036773681640625,-0.2122650146484375,-0.0130767822265625
1751013530603958500,3.03895849609375,-1.0020599365234375,-0.2158966064453125,-0.015655517578125
1751013530613901600,3.048901611328125,-0.996490478515625,-0.2175750732421875,-0.0174102783203125
1751013530623845600,3.058845703125,-0.9949188232421875,-0.21826171875,-0.0186767578125
1751013530633788700,3.06878857421875,-1.00238037109375,-0.2171783447265625,-0.01593017578125
1751013530643731700,3.078731689453125,-0.998992919921875,-0.216094970703125,-0.0158233642578125
1751013530653675500,3.088675537109375,-0.9909515380859375,-0.21466064453125,-0.01727294921875
1751013530663618600,3.09861865234375,-0.98883056640625,-0.215118408203125,-0.018951416015625
1751013530673561600,3.1085615234375,-0.9904327392578125,-0.2170562744140625,-0.0190582275390625
1751013530683505400,3.11850537109375,-0.989654541015625,-0.2164764404296875,-0.017791748046875
1751013530693448400,3.128448486328125,-0.9852294921875,-0.219146728515625,-0.0162353515625
1751013530703391500,3.1383916015625,-0.9818572998046875,-0.2176361083984375,-0.022674560546875
1751013530713335600,3.14833544921875,-0.9826202392578125,-0.2170257568359375,-0.02447509765625
1751013530723278600,3.158278564453125,-0.9862213134765625,-0.21978759765625,-0.0215606689453125
1751013530733221600,3.1682216796875,-0.984405517578125,-0.2190093994140625,-0.01666259765625
1751013530743165400,3.17816552734375,-0.9852752685546875,-0.2151947021484375,-0.0123291015625
1751013530753108500,3.1881083984375,-0.98248291015625,-0.2108917236328125,-0.0112457275390625
1751013530763052500,3.198052490234375,-0.9735260009765625,-0.209228515625,-0.01220703125
1751013530772995600,3.20799560546875,-0.9728240966796875,-0.209564208984375,-0.0117034912109375
1751013530782938400,3.2179384765625,-0.9798583984375,-0.209075927734375,-0.00982666015625
1751013530792882400,3.22788232421875,-0.9855194091796875,-0.2108001708984375,-0.005889892578125
1751013530802825500,3.237825439453125,-0.9880218505859375,-0.2123260498046875,-0.0030059814453125
1751013530812768500,3.2477685546875,-0.987945556640625,-0.2105865478515625,-0.0036773681640625
1751013530822712300,3.25771240234375,-0.9874725341796875,-0.21044921875,-0.0077667236328125
1751013530832655400,3.2676552734375,-0.9880523681640625,-0.2130889892578125,-0.0110321044921875
1751013530842598400,3.277598388671875,-0.9889984130859375,-0.2129974365234375,-0.014434814453125
1751013530852542500,3.28754248046875,-0.98602294921875,-0.2098846435546875,-0.013946533203125
1751013530862485500,3.297485595703125,-0.9869232177734375,-0.208099365234375,-0.015655517578125
1751013530872428500,3.307428466796875,-0.990478515625,-0.2111968994140625,-0.0202484130859375
1751013530882372600,3.31737255859375,-0.9970855712890625,-0.21429443359375,-0.0195159912109375
1751013530892315600,3.327315673828125,-1.0062408447265625,-0.2145843505859375,-0.01605224609375
1751013530902258700,3.3372587890625,-1.0060882568359375,-0.2146148681640625,-0.02020263671875
1751013530912202500,3.347202392578125,-1.00177001953125,-0.214874267578125,-0.028106689453125
1751013530922145500,3.3571455078125,-0.998046875,-0.2169189453125,-0.0357818603515625
1751013530932089600,3.367089599609375,-0.9996185302734375,-0.2173919677734375,-0.03729248046875
1751013530942032600,3.37703271484375,-1.0014495849609375,-0.2184295654296875,-0.0353851318359375
1751013530951975700,3.3869755859375,-1.000213623046875,-0.2208709716796875,-0.0330352783203125
1751013530961919500,3.39691943359375,-0.9994964599609375,-0.222869873046875,-0.035675048828125
1751013530971862500,3.406862548828125,-0.9988861083984375,-0.2215118408203125,-0.034423828125
1751013530981805600,3.4168056640625,-1.0001373291015625,-0.2174224853515625,-0.031463623046875
1751013530991749600,3.42674951171875,-0.9980316162109375,-0.2151641845703125,-0.025299072265625
1751013531001692400,3.4366923828125,-0.993499755859375,-0.2112884521484375,-0.017791748046875
1751013531011635500,3.446635498046875,-0.9851226806640625,-0.2062530517578125,-0.0163726806640625
1751013531021579500,3.45657958984375,-0.977020263671875,-0.2036895751953125,-0.019256591796875
1751013531031522600,3.4665224609375,-0.9749908447265625,-0.204132080078125,-0.023681640625
1751013531041465600,3.476465576171875,-0.9747467041015625,-0.2072601318359375,-0.0272064208984375
1751013531051409400,3.486409423828125,-0.9739532470703125,-0.2110443115234375,-0.0279998779296875
1751013531061352400,3.4963525390625,-0.9788970947265625,-0.2126312255859375,-0.0247955322265625
1751013531071295500,3.50629541015625,-0.9855499267578125,-0.21484375,-0.0227813720703125
1751013531081239600,3.516239501953125,-0.9872894287109375,-0.2158966064453125,-0.0261383056640625
1751013531091182600,3.5261826171875,-0.9822235107421875,-0.2129974365234375,-0.029815673828125
1751013531101126400,3.53612646484375,-0.986541748046875,-0.20831298828125,-0.0322265625
1751013531111069400,3.5460693359375,-1.00042724609375,-0.207366943359375,-0.0297393798828125
1751013531121012500,3.556012451171875,-1.0037689208984375,-0.207733154296875,-0.03076171875
1751013531130956300,3.565956298828125,-0.9923248291015625,-0.20526123046875,-0.032928466796875
1751013531140899300,3.5758994140625,-0.9889984130859375,-0.2015838623046875,-0.035919189453125
1751013531150842400,3.58584228515625,-0.996612548828125,-0.20208740234375,-0.0356903076171875
1751013531160786700,3.59578662109375,-1.0035858154296875,-0.206085205078125,-0.0362548828125
1751013531170729500,3.6057294921875,-1.0030670166015625,-0.206512451171875,-0.0348968505859375
1751013531180672500,3.615672607421875,-0.999359130859375,-0.20745849609375,-0.0325927734375
1751013531190616600,3.625616455078125,-0.99859619140625,-0.208526611328125,-0.030242919921875
1751013531200559600,3.6355595703125,-1.0040435791015625,-0.21038818359375,-0.0288848876953125
1751013531210502700,3.645502685546875,-1.0045013427734375,-0.208984375,-0.0279388427734375
1751013531220446500,3.655446533203125,-1.00152587890625,-0.2057952880859375,-0.02569580078125
1751013531230389500,3.665389404296875,-0.9981842041015625,-0.2047271728515625,-0.0236968994140625
1751013531240333600,3.67533349609375,-0.9986419677734375,-0.2044219970703125,-0.02349853515625
1751013531250276600,3.685276611328125,-0.998931884765625,-0.202301025390625,-0.0244903564453125
1751013531260219600,3.6952197265625,-0.9966888427734375,-0.2014007568359375,-0.0245208740234375
1751013531270163500,3.70516357421875,-0.9974822998046875,-0.2014007568359375,-0.02349853515625
1751013531280106500,3.7151064453125,-0.9993133544921875,-0.2023773193359375,-0.02423095703125
1751013531290049500,3.725049560546875,-0.99932861328125,-0.2035369873046875,-0.023681640625
1751013531299993600,3.73499365234375,-1.000152587890625,-0.204559326171875,-0.023468017578125
1751013531309936600,3.7449365234375,-1.0004730224609375,-0.2063751220703125,-0.020843505859375
1751013531319879400,3.75487939453125,-0.9938507080078125,-0.2032470703125,-0.0181121826171875
1751013531329823500,3.764823486328125,-0.9902801513671875,-0.1978302001953125,-0.0163726806640625
1751013531339766500,3.7747666015625,-0.99188232421875,-0.1962738037109375,-0.014251708984375
1751013531349709600,3.78470947265625,-0.99151611328125,-0.197021484375,-0.0093841552734375
1751013531359653400,3.7946533203125,-0.9885711669921875,-0.19732666015625,-0.00421142578125
1751013531369596400,3.804596435546875,-0.98883056640625,-0.1966552734375,-0.0003662109375
1751013531379539500,3.81453955078125,-0.98785400390625,-0.19732666015625,0.0043182373046875
1751013531389483500,3.8244833984375,-0.9858245849609375,-0.1964874267578125,0.00439453125
1751013531399426600,3.834426513671875,-0.985504150390625,-0.1952667236328125,0.002349853515625
1751013531409370400,3.844370361328125,-0.9904937744140625,-0.1928558349609375,-0.0008697509765625
1751013531419313400,3.8543134765625,-0.9907073974609375,-0.194091796875,-0.0027923583984375
1751013531429256400,3.86425634765625,-0.9906158447265625,-0.19482421875,-0.006561279296875
1751013531439200300,3.8742001953125,-1.00091552734375,-0.19305419921875,0.001617431640625
1751013531449143300,3.884143310546875,-0.9961090087890625,-0.195770263671875,0.00140380859375
1751013531459086000,3.894086181640625,-0.9839019775390625,-0.19659423828125,-0.0076904296875
1751013531469030100,3.904030029296875,-0.982574462890625,-0.1956329345703125,-0.0178680419921875
1751013531478973200,3.91397314453125,-0.9902801513671875,-0.198516845703125,-0.0232391357421875
1751013531488916200,3.923916259765625,-0.992156982421875,-0.2037506103515625,-0.021331787109375
1751013531498860000,3.933860107421875,-0.991790771484375,-0.208770751953125,-0.0204925537109375
1751013531508803000,3.943802978515625,-0.9938507080078125,-0.214111328125,-0.0235595703125
1751013531518746000,3.95374609375,-0.99566650390625,-0.2182769775390625,-0.026214599609375
1751013531528690200,3.963690185546875,-0.9953460693359375,-0.2200927734375,-0.0289764404296875
1751013531538633200,3.97363330078125,-0.99560546875,-0.2203826904296875,-0.02874755859375
1751013531548576000,3.983575927734375,-0.9949188232421875,-0.219085693359375,-0.0261688232421875
1751013531558520000,3.99352001953125,-0.993682861328125,-0.217620849609375,-0.0273284912109375
1751013531568463000,4.003463134765625,-0.992218017578125,-0.2161865234375,-0.0279541015625
1751013531578407200,4.0134072265625,-0.990234375,-0.2141876220703125,-0.0285491943359375
1751013531588350000,4.023349853515625,-0.9883575439453125,-0.213134765625,-0.0291290283203125
1751013531598293000,4.03329296875,-0.9888916015625,-0.2124176025390625,-0.0280914306640625
1751013531608237000,4.043237060546875,-0.9923858642578125,-0.2120208740234375,-0.0255126953125
1751013531618180000,4.05318017578125,-0.9990081787109375,-0.2133636474609375,-0.025238037109375
1751013531628123100,4.063123046875,-1.0036773681640625,-0.211578369140625,-0.02532958984375
1751013531638067200,4.073067138671875,-1.0055694580078125,-0.2084503173828125,-0.024169921875
1751013531648010200,4.08301025390625,-1.0071868896484375,-0.207916259765625,-0.024200439453125
1751013531657953000,4.092953125,-1.0060577392578125,-0.2072906494140625,-0.0233917236328125
1751013531667897300,4.1028974609375,-1.0036163330078125,-0.204742431640625,-0.0223236083984375
1751013531677840100,4.112840087890625,-1.002838134765625,-0.20361328125,-0.020416259765625
1751013531687783200,4.122783203125,-1.00054931640625,-0.2036590576171875,-0.01922607421875
1751013531697727200,4.132727294921875,-0.9990081787109375,-0.20269775390625,-0.018890380859375
1751013531707670300,4.142670166015625,-1.0027618408203125,-0.2029266357421875,-0.0198974609375
1751013531717613300,4.15261328125,-1.005645751953125,-0.206268310546875,-0.0186920166015625
1751013531727557000,4.16255712890625,-1.00537109375,-0.2086639404296875,-0.015716552734375
1751013531737500200,4.172500244140625,-1.007476806640625,-0.2078094482421875,-0.0143890380859375
1751013531747443200,4.182443115234375,-1.0061492919921875,-0.2056732177734375,-0.01641845703125
1751013531757387300,4.19238720703125,-1.0050201416015625,-0.2036895751953125,-0.0181884765625
1751013531767330000,4.202330078125,-1.00244140625,-0.203216552734375,-0.0172119140625
1751013531777274000,4.212274169921875,-1.0001220703125,-0.2017669677734375,-0.0166015625
1751013531787217200,4.222217041015625,-0.9985198974609375,-0.2020263671875,-0.0133209228515625
1751013531797160200,4.23216015625,-0.994140625,-0.20355224609375,-0.011199951171875
1751013531807104000,4.24210400390625,-0.9890289306640625,-0.2044677734375,-0.0100860595703125
1751013531817047000,4.252047119140625,-0.9857635498046875,-0.2052764892578125,-0.0104217529296875
1751013531826990000,4.261989990234375,-0.979217529296875,-0.20849609375,-0.0090484619140625
1751013531836934100,4.27193408203125,-0.973968505859375,-0.2094268798828125,-0.006256103515625
1751013531846877200,4.281877197265625,-0.969482421875,-0.20953369140625,-0.0043487548828125
1751013531856820200,4.2918203125,-0.96728515625,-0.2086181640625,-0.00250244140625
1751013531866764000,4.301763916015625,-0.9706878662109375,-0.2085113525390625,-0.0013275146484375
1751013531876707000,4.31170703125,-0.977752685546875,-0.210906982421875,-0.003204345703125
1751013531886650000,4.321650146484375,-0.981048583984375,-0.21240234375,-0.0052947998046875
1751013531896594000,4.331593994140625,-0.9845428466796875,-0.210113525390625,-0.0078125
1751013531906537000,4.341536865234375,-0.9886016845703125,-0.209075927734375,-0.007537841796875
1751013531916480000,4.35147998046875,-0.989471435546875,-0.2126007080078125,-0.010345458984375
1751013531926424000,4.361424072265625,-0.9823455810546875,-0.211181640625,-0.01336669921875
1751013531936367000,4.3713671875,-0.97943115234375,-0.20556640625,-0.012298583984375
1751013531946310100,4.38131005859375,-0.981475830078125,-0.203369140625,-0.0108642578125
1751013531956254200,4.391254150390625,-0.98541259765625,-0.206451416015625,-0.0078887939453125
1751013531966197200,4.401197265625,-0.991912841796875,-0.208282470703125,-0.00494384765625
1751013531976141300,4.411141357421875,-0.9910888671875,-0.211669921875,-0.003875732421875
1751013531986084000,4.421083984375,-0.9867095947265625,-0.214813232421875,-0.0025177001953125
1751013531996027100,4.431027099609375,-0.98968505859375,-0.2143707275390625,-0.00408935546875
1751013532005971200,4.44097119140625,-0.9953460693359375,-0.2131500244140625,-0.006683349609375
1751013532015914200,4.450914306640625,-1.000244140625,-0.21209716796875,-0.007354736328125
1751013532025857300,4.460857177734375,-1.001861572265625,-0.2104339599609375,-0.0045318603515625
1751013532035801000,4.470801025390625,-1.0007171630859375,-0.2070465087890625,-0.0031890869140625
1751013532045744000,4.480744140625,-0.99798583984375,-0.20526123046875,-0.001739501953125
1751013532055687200,4.490687255859375,-0.9963836669921875,-0.2049102783203125,-0.00177001953125
1751013532065631200,4.50063134765625,-0.9963531494140625,-0.20599365234375,-0.003936767578125
1751013532075574300,4.51057421875,-0.9963836669921875,-0.2100067138671875,-0.00433349609375
1751013532085517000,4.52051708984375,-0.992828369140625,-0.2123870849609375,-0.00604248046875
1751013532095461000,4.530461181640625,-0.9923095703125,-0.2152099609375,-0.0079498291015625
1751013532105404200,4.540404052734375,-0.9930267333984375,-0.2167205810546875,-0.008331298828125
1751013532115347200,4.55034716796875,-0.9945831298828125,-0.2176971435546875,-0.0080413818359375
1751013532125291000,4.560291015625,-0.9940338134765625,-0.21630859375,-0.0106048583984375
1751013532135234000,4.570234130859375,-0.994110107421875,-0.2155303955078125,-0.0103607177734375
1751013532145178000,4.58017822265625,-0.9918060302734375,-0.2165069580078125,-0.01116943359375
1751013532155121200,4.59012109375,-0.99383544921875,-0.2150115966796875,-0.0093231201171875
1751013532165064200,4.600064208984375,-0.998931884765625,-0.2104339599609375,-0.007843017578125
1751013532175008000,4.610008056640625,-0.996795654296875,-0.207275390625,-0.0086669921875
1751013532184951000,4.619950927734375,-0.99346923828125,-0.206634521484375,-0.008392333984375
1751013532194894000,4.62989404296875,-0.9940643310546875,-0.204345703125,-0.0113677978515625
1751013532204838100,4.639838134765625,-0.993316650390625,-0.203948974609375,-0.014129638671875
1751013532214781000,4.649781005859375,-0.9905242919921875,-0.2057342529296875,-0.013702392578125
1751013532224724000,4.659723876953125,-0.986541748046875,-0.20892333984375,-0.01324462890625
1751013532234668300,4.669668212890625,-0.981231689453125,-0.2104339599609375,-0.0145263671875
1751013532244611000,4.679611083984375,-0.9801025390625,-0.21197509765625,-0.0128021240234375
1751013532254554000,4.68955419921875,-0.978851318359375,-0.212982177734375,-0.0097808837890625
1751013532264498200,4.699498291015625,-0.9799652099609375,-0.2128448486328125,-0.0084228515625
1751013532274441200,4.709441162109375,-0.9822540283203125,-0.2129364013671875,-0.0092926025390625
1751013532284384300,4.71938427734375,-0.9820709228515625,-0.2122650146484375,-0.012786865234375
1751013532294328300,4.729328369140625,-0.980072021484375,-0.21063232421875,-0.0165557861328125
1751013532304271000,4.73927099609375,-0.982574462890625,-0.209442138671875,-0.0174713134765625
1751013532314214100,4.749214111328125,-0.9868316650390625,-0.208221435546875,-0.0201416015625
1751013532324158200,4.759158203125,-0.98944091796875,-0.208984375,-0.022186279296875
1751013532334101200,4.769101318359375,-0.9898223876953125,-0.2100372314453125,-0.01922607421875
1751013532344045000,4.779045166015625,-0.9889678955078125,-0.2117767333984375,-0.0138702392578125
1751013532353988000,4.788988037109375,-0.9817962646484375,-0.212005615234375,-0.013336181640625
1751013532363931100,4.79893115234375,-0.9739990234375,-0.208953857421875,-0.0127105712890625
1751013532373875200,4.808875244140625,-0.968231201171875,-0.2075958251953125,-0.0121307373046875
1751013532383818200,4.818818359375,-0.9698028564453125,-0.2085723876953125,-0.0098419189453125
1751013532393761300,4.82876123046875,-0.9745330810546875,-0.21112060546875,-0.0079193115234375
1751013532403705000,4.838705078125,-0.97552490234375,-0.2140045166015625,-0.0099029541015625
1751013532413648100,4.848648193359375,-0.9764404296875,-0.215728759765625,-0.01251220703125
1751013532423591200,4.858591064453125,-0.9791259765625,-0.2161102294921875,-0.012451171875
1751013532433535000,4.868534912109375,-0.9786834716796875,-0.2173614501953125,-0.013458251953125
1751013532443478500,4.878478515625,-0.975677490234375,-0.217681884765625,-0.0133056640625
1751013532453421600,4.888421630859375,-0.973358154296875,-0.2158050537109375,-0.0132904052734375
1751013532463365600,4.89836572265625,-0.9714202880859375,-0.2123870849609375,-0.01611328125
1751013532473308700,4.90830859375,-0.974700927734375,-0.2136993408203125,-0.0200347900390625
1751013532483251500,4.91825146484375,-0.9777679443359375,-0.21661376953125,-0.018585205078125
1751013532493195500,4.928195556640625,-0.9803466796875,-0.218048095703125,-0.01788330078125
1751013532503138600,4.938138671875,-0.983123779296875,-0.2146453857421875,-0.017852783203125
1751013532513081600,4.94808154296875,-0.9877777099609375,-0.20819091796875,-0.022979736328125
1751013532523025700,4.958025634765625,-1.0024566650390625,-0.204986572265625,-0.02667236328125
1751013532532968700,4.96796875,-1.0172576904296875,-0.2032012939453125,-0.02740478515625
1751013532542912800,4.977912841796875,-1.028778076171875,-0.2015228271484375,-0.028594970703125
1751013532552855800,4.987855712890625,-1.021484375,-0.198211669921875,-0.027435302734375
1751013532562798800,4.997798828125,-1.0149688720703125,-0.1934661865234375,-0.027618408203125
1751013532572742700,5.00774267578125,-1.01336669921875,-0.1911468505859375,-0.0285797119140625
1751013532582685700,5.017685791015625,-1.01409912109375,-0.1920013427734375,-0.02978515625
1751013532592628700,5.027628662109375,-1.013458251953125,-0.1923980712890625,-0.026885986328125
1751013532602572800,5.03757275390625,-1.0137939453125,-0.1927947998046875,-0.0221710205078125
1751013532612515600,5.047515625,-1.0170135498046875,-0.1967926025390625,-0.0196685791015625
1751013532622458600,5.057458740234375,-1.0123138427734375,-0.20025634765625,-0.016357421875
1751013532632402700,5.067402587890625,-1.00604248046875,-0.1981201171875,-0.0181427001953125
1751013532642345700,5.077345703125,-1.000274658203125,-0.19891357421875,-0.0219573974609375
1751013532652288800,5.087288818359375,-0.990966796875,-0.2014007568359375,-0.0224456787109375
1751013532662232600,5.097232666015625,-0.984375,-0.2024993896484375,-0.0200958251953125
1751013532672175600,5.107175537109375,-0.981353759765625,-0.205047607421875,-0.018768310546875
1751013532682118700,5.11711865234375,-0.9771575927734375,-0.206390380859375,-0.017791748046875
1751013532692062700,5.127062744140625,-0.9774627685546875,-0.2066497802734375,-0.0186614990234375
1751013532702005500,5.137005615234375,-0.982421875,-0.2073516845703125,-0.018707275390625
1751013532711949600,5.146949462890625,-0.982269287109375,-0.2082061767578125,-0.0195159912109375
1751013532721892600,5.156892578125,-0.9835052490234375,-0.2083892822265625,-0.0196380615234375
1751013532731835600,5.166835693359375,-0.9872894287109375,-0.2076263427734375,-0.0201873779296875
1751013532741779500,5.176779541015625,-0.9893646240234375,-0.2041473388671875,-0.0248565673828125
1751013532751722500,5.186722412109375,-0.9905853271484375,-0.2001953125,-0.0275726318359375
1751013532761665500,5.19666552734375,-1.0007476806640625,-0.19696044921875,-0.027618408203125
1751013532771609600,5.206609619140625,-1.0081787109375,-0.19488525390625,-0.0308074951171875
1751013532781552600,5.216552734375,-1.012847900390625,-0.1920623779296875,-0.037994384765625
1751013532791495700,5.22649560546875,-1.018646240234375,-0.19140625,-0.0404815673828125
1751013532801439500,5.236439453125,-1.0225677490234375,-0.193115234375,-0.0434417724609375
1751013532811382500,5.246382568359375,-1.0220489501953125,-0.1935272216796875,-0.046661376953125
1751013532821325600,5.25632568359375,-1.0201568603515625,-0.1941680908203125,-0.0492706298828125
1751013532831269600,5.26626953125,-1.01861572265625,-0.1955108642578125,-0.04864501953125
1751013532841212700,5.276212646484375,-1.014556884765625,-0.1979217529296875,-0.04754638671875
1751013532851155700,5.28615576171875,-1.0093536376953125,-0.1993408203125,-0.0423583984375
1751013532861099800,5.296099853515625,-1.0032958984375,-0.200439453125,-0.0374298095703125
1751013532871042800,5.306042724609375,-0.9974212646484375,-0.198577880859375,-0.0341033935546875
1751013532880986600,5.315986572265625,-0.9908599853515625,-0.199371337890625,-0.0300445556640625
1751013532890929700,5.3259296875,-0.985992431640625,-0.1996917724609375,-0.0248870849609375
1751013532900872700,5.335872802734375,-0.9838409423828125,-0.1983642578125,-0.019287109375
1751013532910816800,5.345816650390625,-0.9861907958984375,-0.1980438232421875,-0.0151824951171875
1751013532920759600,5.355759521484375,-0.98870849609375,-0.1962890625,-0.0128631591796875
1751013532930702600,5.36570263671875,-0.9864501953125,-0.1973419189453125,-0.01513671875
1751013532940646700,5.375646728515625,-0.982208251953125,-0.1980133056640625,-0.016815185546875
1751013532950589700,5.385589599609375,-0.9803619384765625,-0.1970367431640625,-0.0191497802734375
1751013532960532700,5.39553271484375,-0.9795074462890625,-0.19805908203125,-0.01263427734375
1751013532970476500,5.4054765625,-0.9814605712890625,-0.197509765625,-0.009368896484375
1751013532980419600,5.415419677734375,-0.98388671875,-0.1964111328125,-0.0075531005859375
1751013532990362600,5.425362548828125,-0.9838409423828125,-0.19635009765625,-0.0078582763671875
1751013533000306700,5.435306640625,-0.98138427734375,-0.1967010498046875,-0.0129241943359375
1751013533010249700,5.445249755859375,-0.9739532470703125,-0.1974639892578125,-0.017730712890625
1751013533020192500,5.455192626953125,-0.97296142578125,-0.1976470947265625,-0.0184326171875
1751013533030136600,5.465136474609375,-0.9803009033203125,-0.1993560791015625,-0.0189971923828125
1751013533040079600,5.47507958984375,-0.986297607421875,-0.2041778564453125,-0.019287109375
1751013533050023700,5.485023681640625,-0.9892730712890625,-0.2022247314453125,-0.0165557861328125
1751013533059966500,5.494966552734375,-0.991424560546875,-0.1981658935546875,-0.0193634033203125
1751013533069909500,5.504909423828125,-0.9893035888671875,-0.196380615234375,-0.024749755859375
1751013533079853600,5.514853515625,-0.99224853515625,-0.196014404296875,-0.02838134765625
1751013533089796600,5.524796630859375,-0.9994049072265625,-0.1970672607421875,-0.028594970703125
1751013533099739600,5.53473974609375,-0.9932403564453125,-0.198822021484375,-0.025909423828125
1751013533109683700,5.54468359375,-0.9841461181640625,-0.1961669921875,-0.0207672119140625
1751013533119626500,5.55462646484375,-0.984832763671875,-0.1980133056640625,-0.0165557861328125
1751013533129569500,5.564569580078125,-0.9880218505859375,-0.2034149169921875,-0.0174713134765625
1751013533139513900,5.574513916015625,-0.9877471923828125,-0.2061004638671875,-0.016387939453125
1751013533149456600,5.58445654296875,-0.985107421875,-0.2103271484375,-0.016876220703125
1751013533159399700,5.594399658203125,-0.9805145263671875,-0.2188720703125,-0.02044677734375
1751013533169343700,5.60434375,-0.9699554443359375,-0.2258453369140625,-0.017425537109375
1751013533179286800,5.614286865234375,-0.9674530029296875,-0.2216339111328125,-0.01617431640625
1751013533189229800,5.624229736328125,-0.9791259765625,-0.21734619140625,-0.0208282470703125
1751013533199173600,5.634173583984375,-0.992889404296875,-0.21917724609375,-0.027923583984375
1751013533209116700,5.64411669921875,-1.0115203857421875,-0.219970703125,-0.03216552734375
1751013533219060700,5.654060791015625,-1.0263671875,-0.214630126953125,-0.0367584228515625
1751013533229003800,5.664003662109375,-1.0313720703125,-0.210693359375,-0.04510498046875
1751013533238946600,5.673946533203125,-1.0336456298828125,-0.2078094482421875,-0.0518798828125
1751013533248890600,5.683890625,-1.0330963134765625,-0.2010040283203125,-0.0591278076171875
1751013533258833700,5.693833740234375,-1.0277862548828125,-0.1952362060546875,-0.0647430419921875
1751013533268776700,5.703776611328125,-1.026092529296875,-0.1929931640625,-0.06829833984375
1751013533278720500,5.713720458984375,-1.025146484375,-0.1943511962890625,-0.0589141845703125
1751013533288663600,5.72366357421875,-1.018585205078125,-0.194183349609375,-0.0490264892578125
1751013533298606600,5.733606689453125,-1.011016845703125,-0.1949615478515625,-0.0507049560546875
1751013533308550700,5.743550537109375,-1.00823974609375,-0.2004241943359375,-0.050689697265625
1751013533318493700,5.75349365234375,-1.0026397705078125,-0.2055206298828125,-0.0489349365234375
1751013533328436700,5.763436767578125,-0.98809814453125,-0.206024169921875,-0.0503692626953125
1751013533338380500,5.773380615234375,-0.9763641357421875,-0.2077789306640625,-0.0470733642578125
1751013533348323600,5.783323486328125,-0.970855712890625,-0.206573486328125,-0.0423126220703125
1751013533358267600,5.793267578125,-0.9615936279296875,-0.207489013671875,-0.0415802001953125
1751013533368210400,5.80321044921875,-0.95263671875,-0.206451416015625,-0.046356201171875
1751013533378153500,5.813153564453125,-0.9475860595703125,-0.2043914794921875,-0.0487060546875
1751013533388097500,5.82309765625,-0.9490203857421875,-0.2006072998046875,-0.0482025146484375
1751013533398040600,5.83304052734375,-0.9545745849609375,-0.1998291015625,-0.047821044921875
1751013533407983600,5.842983642578125,-0.9635162353515625,-0.20257568359375,-0.0470428466796875
1751013533417927700,5.852927734375,-0.9669036865234375,-0.2043304443359375,-0.0449981689453125
1751013533427870700,5.86287060546875,-0.9630584716796875,-0.2054595947265625,-0.044219970703125
1751013533437813800,5.872813720703125,-0.9627838134765625,-0.2046356201171875,-0.0482330322265625
1751013533447757600,5.882757568359375,-0.9667816162109375,-0.202880859375,-0.0530242919921875
1751013533457700600,5.89270068359375,-0.9736175537109375,-0.20166015625,-0.0575103759765625
1751013533467644400,5.90264453125,-0.9822845458984375,-0.2025146484375,-0.062103271484375
1751013533477587500,5.91258740234375,-0.988128662109375,-0.1999664306640625,-0.0626220703125
1751013533487530500,5.922530517578125,-0.9918975830078125,-0.196319580078125,-0.0598602294921875
1751013533497474300,5.932474365234375,-0.9923248291015625,-0.195556640625,-0.05902099609375
1751013533507417300,5.942417236328125,-0.9903411865234375,-0.193695068359375,-0.06024169921875
1751013533517360400,5.9523603515625,-0.9897918701171875,-0.19219970703125,-0.0605621337890625
1751013533527304400,5.962304443359375,-0.9918670654296875,-0.19281005859375,-0.0609588623046875
1751013533537247500,5.97224755859375,-0.9973602294921875,-0.194976806640625,-0.060943603515625
1751013533547190500,5.9821904296875,-0.9992523193359375,-0.195465087890625,-0.0594635009765625
1751013533557134600,5.992134521484375,-1.0047607421875,-0.196136474609375,-0.060943603515625
1751013533567077400,6.002077392578125,-1.0092010498046875,-0.19781494140625,-0.064300537109375
1751013533577020400,6.0120205078125,-1.0028839111328125,-0.19720458984375,-0.0663604736328125
1751013533586964500,6.021964599609375,-0.9984130859375,-0.1969451904296875,-0.0669097900390625
1751013533596907500,6.031907470703125,-1.0018463134765625,-0.198822021484375,-0.066864013671875
1751013533606851600,6.0418515625,-1.0052642822265625,-0.20220947265625,-0.0628662109375
1751013533616794600,6.051794677734375,-1.008331298828125,-0.204132080078125,-0.0604095458984375
1751013533626737700,6.061737548828125,-1.0107879638671875,-0.204437255859375,-0.06317138671875
1751013533636681500,6.071681396484375,-1.008209228515625,-0.2071533203125,-0.06591796875
1751013533646624500,6.08162451171875,-1.0079345703125,-0.209686279296875,-0.0674591064453125
1751013533656567600,6.091567626953125,-1.0064849853515625,-0.209197998046875,-0.0669097900390625
1751013533666511600,6.10151171875,-1.0016937255859375,-0.2080841064453125,-0.0647735595703125
1751013533676454700,6.11145458984375,-0.99847412109375,-0.206085205078125,-0.062835693359375
1751013533686398500,6.1213984375,-0.998260498046875,-0.2047576904296875,-0.0601959228515625
1751013533696341500,6.131341552734375,-1.001007080078125,-0.204254150390625,-0.0553131103515625
1751013533706284500,6.141284423828125,-1.0011444091796875,-0.203765869140625,-0.0550537109375
1751013533716228600,6.151228515625,-0.9980010986328125,-0.2041015625,-0.056549072265625
1751013533726171400,6.16117138671875,-0.9945526123046875,-0.204254150390625,-0.05322265625
1751013533736114400,6.171114501953125,-0.996185302734375,-0.2036895751953125,-0.0454254150390625
1751013533746058500,6.18105859375,-1.000335693359375,-0.2027587890625,-0.039520263671875
1751013533756001500,6.19100146484375,-1.0037689208984375,-0.2030181884765625,-0.0379791259765625
1751013533765944600,6.200944580078125,-1.0045928955078125,-0.1996917724609375,-0.0356597900390625
1751013533775888400,6.210888427734375,-1.0016326904296875,-0.19622802734375,-0.034271240234375
1751013533785831400,6.22083154296875,-0.999267578125,-0.19451904296875,-0.0370635986328125
1751013533795775500,6.230775390625,-0.9985809326171875,-0.195892333984375,-0.0399627685546875
1751013533805718500,6.240718505859375,-0.9984893798828125,-0.1973419189453125,-0.0387115478515625
1751013533815661300,6.250661376953125,-1.002044677734375,-0.1970977783203125,-0.0352783203125
1751013533825605600,6.260605712890625,-1.0046539306640625,-0.197113037109375,-0.0324554443359375
1751013533835548400,6.27054833984375,-1.0018157958984375,-0.1981964111328125,-0.0323333740234375
1751013533845491500,6.280491455078125,-0.998077392578125,-0.200103759765625,-0.033538818359375
1751013533855435500,6.290435546875,-0.9947509765625,-0.20013427734375,-0.0326385498046875
1751013533865378600,6.300378662109375,-0.9954986572265625,-0.197723388671875,-0.0303955078125
1751013533875321600,6.310321533203125,-0.990875244140625,-0.19805908203125,-0.027099609375
1751013533885265700,6.320265625,-0.982269287109375,-0.19873046875,-0.025390625
1751013533895208700,6.330208740234375,-0.9782867431640625,-0.19610595703125,-0.026763916015625
1751013533905152500,6.340152587890625,-0.985443115234375,-0.1959686279296875,-0.0289459228515625
1751013533915095600,6.350095458984375,-0.9926605224609375,-0.19927978515625,-0.0308380126953125
1751013533925038600,6.36003857421875,-0.9994049072265625,-0.2020263671875,-0.028778076171875
1751013533934982700,6.369982666015625,-1.0002899169921875,-0.2012786865234375,-0.02642822265625
1751013533944925400,6.379925537109375,-0.9998779296875,-0.201568603515625,-0.02825927734375
1751013533954868500,6.389868408203125,-0.9962310791015625,-0.2025604248046875,-0.033050537109375
1751013533964812500,6.3998125,-0.9956207275390625,-0.203125,-0.0334014892578125
1751013533974755600,6.409755615234375,-0.9894561767578125,-0.199981689453125,-0.017333984375
1751013533984699400,6.419699462890625,-0.9892425537109375,-0.1947021484375,-0.0172882080078125
1751013533994642400,6.429642333984375,-0.9838714599609375,-0.19598388671875,-0.0211639404296875
1751013534004585500,6.43958544921875,-0.9836578369140625,-0.2006378173828125,-0.024566650390625
1751013534014529500,6.449529541015625,-0.986480712890625,-0.202362060546875,-0.0258941650390625
1751013534024472600,6.45947265625,-0.9879302978515625,-0.2042083740234375,-0.023162841796875
1751013534034415400,6.469415283203125,-0.9930267333984375,-0.20648193359375,-0.0178070068359375
1751013534044359400,6.479359375,-0.99627685546875,-0.2047576904296875,-0.01617431640625
1751013534054302500,6.489302490234375,-0.9981689453125,-0.1997528076171875,-0.018890380859375
1751013534064246500,6.49924658203125,-0.9972686767578125,-0.19671630859375,-0.02154541015625
1751013534074189300,6.509189208984375,-0.996795654296875,-0.1951904296875,-0.0207672119140625
1751013534084132400,6.51913232421875,-0.996185302734375,-0.194549560546875,-0.0195159912109375
1751013534094076700,6.52907666015625,-0.99615478515625,-0.1927337646484375,-0.018310546875
1751013534104019500,6.53901953125,-0.9976654052734375,-0.193084716796875,-0.0165252685546875
1751013534113962500,6.54896240234375,-0.9958343505859375,-0.19403076171875,-0.015380859375
1751013534123906600,6.558906494140625,-0.996063232421875,-0.19622802734375,-0.0160675048828125
1751013534133849600,6.568849609375,-0.9980010986328125,-0.198516845703125,-0.0172882080078125
1751013534143792600,6.578792724609375,-0.9961395263671875,-0.2023162841796875,-0.018280029296875
1751013534153736700,6.58873681640625,-0.9932403564453125,-0.204376220703125,-0.0173187255859375
1751013534163679500,6.598679443359375,-0.9907989501953125,-0.205322265625,-0.01776123046875
1751013534173623600,6.60862353515625,-0.99169921875,-0.205535888671875,-0.0166778564453125
1751013534183566600,6.618566650390625,-0.9959716796875,-0.2060699462890625,-0.0164794921875
1751013534193509600,6.628509521484375,-1.0000762939453125,-0.2068634033203125,-0.014739990234375
1751013534203453400,6.638453369140625,-1.0013580322265625,-0.2064056396484375,-0.018798828125
1751013534213396500,6.648396484375,-1,-0.205047607421875,-0.0200958251953125
1751013534223339500,6.658339599609375,-0.9975738525390625,-0.2035369873046875,-0.021820068359375
1751013534233283600,6.66828369140625,-0.99560546875,-0.203704833984375,-0.02105712890625
1751013534243226600,6.6782265625,-0.9940032958984375,-0.2034759521484375,-0.0178985595703125
1751013534253170400,6.68817041015625,-0.99237060546875,-0.2035064697265625,-0.0139923095703125
1751013534263113500,6.698113525390625,-0.989044189453125,-0.20281982421875,-0.0115814208984375
1751013534273056500,6.708056396484375,-0.9862518310546875,-0.2020416259765625,-0.008636474609375
1751013534283000600,6.71800048828125,-0.9840545654296875,-0.20263671875,-0.004486083984375
1751013534292943400,6.727943359375,-0.9876251220703125,-0.201751708984375,-0.003631591796875
1751013534302886400,6.737886474609375,-0.991729736328125,-0.19964599609375,-0.0048065185546875
1751013534312830500,6.74783056640625,-0.9923858642578125,-0.19879150390625,-0.0058746337890625
1751013534322773500,6.7577734375,-0.9926605224609375,-0.2003173828125,-0.0086212158203125
1751013534332717300,6.76771728515625,-0.993072509765625,-0.2009124755859375,-0.01104736328125
1751013534342660400,6.777660400390625,-0.9911956787109375,-0.201263427734375,-0.0150909423828125
1751013534352603400,6.787603271484375,-0.9882659912109375,-0.2018585205078125,-0.015960693359375
1751013534362547500,6.79754736328125,-0.98358154296875,-0.20294189453125,-0.013885498046875
1751013534372490500,6.807490478515625,-0.98236083984375,-0.205902099609375,-0.00982666015625
1751013534382433500,6.81743359375,-0.9870758056640625,-0.206756591796875,-0.0095062255859375
1751013534392377600,6.827377685546875,-0.9898529052734375,-0.2071990966796875,-0.0070037841796875
1751013534402320600,6.837320556640625,-0.9902496337890625,-0.2047271728515625,-0.0056610107421875
1751013534412264700,6.8472646484375,-0.9923095703125,-0.20477294921875,-0.008941650390625
1751013534422207500,6.85720751953125,-0.994110107421875,-0.2067108154296875,-0.0109100341796875
1751013534432150500,6.867150634765625,-0.9949798583984375,-0.207000732421875,-0.0103912353515625
1751013534442093800,6.87709375,-0.991851806640625,-0.20697021484375,-0.0127716064453125
1751013534452036900,6.887036865234375,-0.9862823486328125,-0.20806884765625,-0.013671875
1751013534461980000,6.89697998046875,-0.981842041015625,-0.2104339599609375,-0.009765625
1751013534471923700,6.906923828125,-0.9811248779296875,-0.2108001708984375,-0.0058441162109375
1751013534481866800,6.91686669921875,-0.984527587890625,-0.2127838134765625,-0.003173828125
1751013534491810800,6.926810791015625,-0.987152099609375,-0.21453857421875,-0.00311279296875
1751013534501753900,6.93675390625,-0.987548828125,-0.2153472900390625,-0.0045623779296875
1751013534511697000,6.94669677734375,-0.98876953125,-0.212127685546875,-0.0006256103515625
1751013534521640700,6.956640625,-0.993865966796875,-0.2094879150390625,-0.00006103515625
1751013534531583700,6.966583740234375,-0.9990386962890625,-0.21026611328125,-0.0016632080078125
1751013534541528000,6.976528076171875,-1.00006103515625,-0.210723876953125,-0.004058837890625
1751013534551471000,6.98647119140625,-0.998870849609375,-0.2093353271484375,-0.008544921875
1751013534561414000,6.996413818359375,-1.000732421875,-0.2071990966796875,-0.0103302001953125
1751013534571358000,7.00635791015625,-1.00238037109375,-0.206085205078125,-0.00811767578125
1751013534581301000,7.016301025390625,-1.0020904541015625,-0.2057952880859375,-0.0050506591796875
1751013534591244000,7.026244140625,-0.9980316162109375,-0.2056884765625,-0.0048980712890625
1751013534601187800,7.036187744140625,-0.993743896484375,-0.2043914794921875,-0.005462646484375
1751013534611131000,7.046130859375,-0.993438720703125,-0.2042999267578125,-0.004638671875
1751013534621074000,7.056073974609375,-0.9942779541015625,-0.2073516845703125,-0.0027923583984375
1751013534631018000,7.06601806640625,-0.9981231689453125,-0.208892822265625,-0.0057373046875
1751013534640961000,7.0759609375,-0.998016357421875,-0.209075927734375,-0.0053558349609375
1751013534650904800,7.08590478515625,-0.9969482421875,-0.208251953125,-0.0055999755859375
1751013534660847900,7.095847900390625,-0.9950714111328125,-0.207305908203125,-0.0063934326171875
1751013534670791000,7.105791015625,-0.9935455322265625,-0.2042388916015625,-0.0066986083984375
1751013534680735000,7.11573486328125,-0.994110107421875,-0.2064208984375,-0.008575439453125
1751013534690677800,7.125677734375,-0.993743896484375,-0.2079925537109375,-0.00946044921875
1751013534700621800,7.135621826171875,-0.9914093017578125,-0.209075927734375,-0.0108642578125
1751013534710564900,7.14556494140625,-0.9856719970703125,-0.212646484375,-0.00921630859375
1751013534720508000,7.1555078125,-0.9806060791015625,-0.216339111328125,-0.00689697265625
1751013534730451700,7.16545166015625,-0.98065185546875,-0.216156005859375,-0.0067596435546875
1751013534740394800,7.175394775390625,-0.98468017578125,-0.216400146484375,-0.0022735595703125
1751013534750337800,7.185337890625,-0.987396240234375,-0.21728515625,0.0005950927734375
1751013534760281900,7.19528173828125,-0.98675537109375,-0.2139892578125,-0.0036773681640625
1751013534770225000,7.205224853515625,-0.9827880859375,-0.211700439453125,-0.0086212158203125
1751013534780168700,7.215168701171875,-0.98419189453125,-0.2131805419921875,-0.010772705078125
1751013534790111700,7.22511181640625,-0.9883575439453125,-0.2130584716796875,-0.009918212890625
1751013534800054800,7.2350546875,-0.992889404296875,-0.21002197265625,-0.0088043212890625
1751013534809999000,7.2449990234375,-0.9926300048828125,-0.2080230712890625,-0.0058135986328125
1751013534819942000,7.25494189453125,-0.99395751953125,-0.208038330078125,-0.007171630859375
1751013534829885000,7.264885009765625,-0.99334716796875,-0.20709228515625,-0.007232666015625
1751013534839829000,7.2748291015625,-0.99151611328125,-0.207916259765625,-0.0060882568359375
1751013534849772000,7.28477197265625,-0.994049072265625,-0.2093658447265625,-0.005645751953125
1751013534859715800,7.2947158203125,-0.998382568359375,-0.210662841796875,-0.00634765625
1751013534869659000,7.304658935546875,-0.999786376953125,-0.212158203125,-0.010101318359375
1751013534879602000,7.314601806640625,-0.9976806640625,-0.2133026123046875,-0.0132598876953125
1751013534889546000,7.3245458984375,-0.995086669921875,-0.2115478515625,-0.0131988525390625
1751013534899489000,7.334489013671875,-0.996612548828125,-0.20941162109375,-0.0125274658203125
1751013534909431800,7.344431884765625,-0.9940338134765625,-0.2093505859375,-0.010101318359375
1751013534919376000,7.3543759765625,-0.99151611328125,-0.2087860107421875,-0.009063720703125
1751013534929319000,7.36431884765625,-0.9901275634765625,-0.208160400390625,-0.0097808837890625
1751013534939263000,7.374262939453125,-0.989776611328125,-0.2067108154296875,-0.00811767578125
1751013534949205800,7.384205810546875,-0.9900360107421875,-0.20751953125,-0.0086822509765625
1751013534959148800,7.394148681640625,-0.9898529052734375,-0.209503173828125,-0.0099029541015625
1751013534969092900,7.4040927734375,-0.9883575439453125,-0.2109832763671875,-0.0098724365234375
1751013534979036000,7.414035888671875,-0.983001708984375,-0.2115325927734375,-0.011077880859375
1751013534988979700,7.423979736328125,-0.981353759765625,-0.21112060546875,-0.0103759765625
1751013534998922800,7.4339228515625,-0.983642578125,-0.2122650146484375,-0.0088958740234375
1751013535008865800,7.44386572265625,-0.9833984375,-0.212921142578125,-0.0077972412109375
1751013535018809900,7.453809814453125,-0.98822021484375,-0.212432861328125,-0.007293701171875
1751013535028753000,7.4637529296875,-0.99078369140625,-0.2118377685546875,-0.0075836181640625
1751013535038696000,7.473696044921875,-0.9903564453125,-0.2100830078125,-0.00677490234375
1751013535048639700,7.4836396484375,-0.991729736328125,-0.2103424072265625,-0.0129547119140625
1751013535058582800,7.493582763671875,-0.993743896484375,-0.21124267578125,-0.0096588134765625
1751013535068527000,7.503527099609375,-0.989501953125,-0.2086029052734375,-0.00714111328125
1751013535078470000,7.513469970703125,-0.9903106689453125,-0.20751953125,-0.0119781494140625
1751013535088413000,7.523412841796875,-0.99346923828125,-0.212738037109375,-0.017852783203125
1751013535098357000,7.53335693359375,-0.99774169921875,-0.2118682861328125,-0.0057220458984375
1751013535108300000,7.543300048828125,-1.0033721923828125,-0.2070159912109375,0.000640869140625
1751013535118243000,7.5532431640625,-0.99945068359375,-0.2086639404296875,0.0026397705078125
1751013535128187000,7.563186767578125,-0.996551513671875,-0.2086181640625,0.0004730224609375
1751013535138130000,7.5731298828125,-0.9905853271484375,-0.208282470703125,0.008941650390625
1751013535148074000,7.583073974609375,-0.9873199462890625,-0.2082672119140625,0.020782470703125
1751013535158017000,7.59301708984375,-0.98370361328125,-0.2113189697265625,0.02392578125
1751013535167959800,7.602959716796875,-0.986480712890625,-0.2178955078125,0.0235595703125
1751013535177903900,7.61290380859375,-0.9932403564453125,-0.2148895263671875,0.0172119140625
1751013535187847000,7.622846923828125,-0.991912841796875,-0.2201385498046875,0.0185546875
1751013535197791000,7.632791015625,-0.9901275634765625,-0.211761474609375,0.0056915283203125
1751013535207733800,7.642733642578125,-0.980438232421875,-0.2056121826171875,0.001373291015625
1751013535217676800,7.6526767578125,-0.9781494140625,-0.2049713134765625,0.0051727294921875
1751013535227620900,7.662620849609375,-0.9859771728515625,-0.202362060546875,0.01416015625
1751013535237564000,7.67256396484375,-0.991546630859375,-0.2015838623046875,0.018768310546875
1751013535247507000,7.6825068359375,-0.9946136474609375,-0.20355224609375,0.019073486328125
1751013535257450800,7.69245068359375,-0.9954986572265625,-0.2046661376953125,0.0172576904296875
1751013535267393800,7.702393798828125,-0.988037109375,-0.204833984375,0.014892578125
1751013535277337900,7.712337890625,-0.980621337890625,-0.2034759521484375,0.016204833984375
1751013535287281000,7.722281005859375,-0.9825897216796875,-0.2029876708984375,0.018280029296875
1751013535297223700,7.7322236328125,-0.986541748046875,-0.2075042724609375,0.0198211669921875
1751013535307168000,7.74216796875,-0.990631103515625,-0.2111968994140625,0.0186920166015625
1751013535317110800,7.75211083984375,-0.9955291748046875,-0.212432861328125,0.01513671875
1751013535327053800,7.7620537109375,-1.0009613037109375,-0.2154388427734375,0.0126495361328125
1751013535336998000,7.771997802734375,-1.002685546875,-0.21868896484375,0.0128173828125
1751013535346941000,7.78194091796875,-0.997528076171875,-0.2161407470703125,0.0126953125
1751013535356885000,7.791885009765625,-0.9891357421875,-0.2129974365234375,0.01123046875
1751013535366828000,7.801828125,-0.98736572265625,-0.2126007080078125,0.0082244873046875
1751013535376771000,7.81177099609375,-0.98492431640625,-0.2131195068359375,0.0084075927734375
1751013535386715000,7.82171484375,-0.988372802734375,-0.211883544921875,0.011627197265625
1751013535396658000,7.831657958984375,-0.992034912109375,-0.2144012451171875,0.01690673828125
1751013535406602000,7.84160205078125,-0.992462158203125,-0.2170562744140625,0.0181121826171875
1751013535416545000,7.851544921875,-0.993927001953125,-0.2175445556640625,0.0149993896484375
1751013535426487800,7.86148779296875,-0.9902801513671875,-0.2166290283203125,0.0106048583984375
1751013535436432000,7.871431884765625,-0.9893341064453125,-0.217498779296875,0.003173828125
1751013535446375200,7.881375244140625,-0.9920501708984375,-0.2176971435546875,-0.0019989013671875
1751013535456318200,7.891318115234375,-0.9951171875,-0.217620849609375,0.0012054443359375
1751013535466262000,7.901261962890625,-0.9878997802734375,-0.216552734375,0.0087432861328125
1751013535476205000,7.911205078125,-0.9843292236328125,-0.21044921875,0.0123748779296875
1751013535486149000,7.921149169921875,-0.9874267578125,-0.2064056396484375,0.0125732421875
1751013535496092200,7.931092041015625,-0.9873809814453125,-0.2079010009765625,0.0104522705078125
1751013535506035200,7.94103515625,-0.9893646240234375,-0.2061004638671875,0.01171875
1751013535515979000,7.95097900390625,-0.98876953125,-0.2050018310546875,0.0131988525390625
1751013535525922000,7.960922119140625,-0.9892425537109375,-0.2046356201171875,0.01141357421875
1751013535535866000,7.9708662109375,-0.9902801513671875,-0.2073211669921875,0.0093994140625
1751013535545809200,7.98080908203125,-0.9932861328125,-0.21209716796875,0.00823974609375
1751013535555752000,7.990751953125,-0.99517822265625,-0.214599609375,0.00836181640625
1751013535565696000,8.000696044921876,-0.994110107421875,-0.21380615234375,0.0090484619140625
1751013535575639000,8.01063916015625,-0.99285888671875,-0.2121734619140625,0.0097808837890625
1751013535585582000,8.02058203125,-0.99212646484375,-0.2106475830078125,0.0098876953125
1751013535595526000,8.03052587890625,-0.9869842529296875,-0.208648681640625,0.008941650390625
1751013535605469000,8.040468994140625,-0.9845428466796875,-0.20709228515625,0.0067596435546875
1751013535615413000,8.0504130859375,-0.98565673828125,-0.2070770263671875,0.0076751708984375
1751013535625356000,8.06035595703125,-0.9893035888671875,-0.2095947265625,0.0102996826171875
1751013535635299000,8.070299072265625,-0.99298095703125,-0.2099609375,0.012359619140625
1751013535645243100,8.0802431640625,-0.993743896484375,-0.211761474609375,0.0135498046875
1751013535655186200,8.090186279296875,-0.9939727783203125,-0.2127227783203125,0.011077880859375
1751013535665130200,8.100130126953125,-0.9980316162109375,-0.210479736328125,0.0111083984375
1751013535675073000,8.110072998046874,-1.001220703125,-0.2104644775390625,0.0077972412109375
1751013535685016000,8.12001611328125,-1.0002288818359375,-0.21148681640625,0.0055694580078125
1751013535694960000,8.129960205078126,-1.003082275390625,-0.211883544921875,0.0074920654296875
1751013535704903200,8.139903076171874,-1.002655029296875,-0.211639404296875,0.0109405517578125
1751013535714846200,8.14984619140625,-1.0003662109375,-0.2103118896484375,0.011444091796875
1751013535724790000,8.1597900390625,-0.996307373046875,-0.2084503173828125,0.0118865966796875
1751013535734733000,8.169733154296875,-0.9918975830078125,-0.2080535888671875,0.0142669677734375
1751013535744677000,8.179677001953126,-0.9877471923828125,-0.2078094482421875,0.01544189453125
1751013535754620200,8.1896201171875,-0.9882659912109375,-0.207000732421875,0.0156707763671875
1751013535764563200,8.199563232421875,-0.9915924072265625,-0.2076263427734375,0.0160675048828125
1751013535774507000,8.209507080078126,-0.9922637939453125,-0.2072906494140625,0.015869140625
1751013535784450000,8.219449951171875,-0.99078369140625,-0.2065887451171875,0.0130462646484375
1751013535794393000,8.22939306640625,-0.992828369140625,-0.2054595947265625,0.0078277587890625
1751013535804337200,8.239337158203124,-0.99163818359375,-0.2069091796875,0.0076141357421875
1751013535814280000,8.249280029296875,-0.98785400390625,-0.20794677734375,0.008636474609375
1751013535824224000,8.25922412109375,-0.987213134765625,-0.2072296142578125,0.009979248046875
1751013535834167000,8.2691669921875,-0.9878692626953125,-0.2079925537109375,0.012603759765625
1751013535844110000,8.279110107421875,-0.9877471923828125,-0.2054443359375,0.015716552734375
1751013535854054000,8.289053955078124,-0.9910430908203125,-0.2032318115234375,0.0158538818359375
1751013535863997000,8.298996826171875,-0.9918212890625,-0.2037506103515625,0.01434326171875
1751013535873940000,8.30893994140625,-0.9893035888671875,-0.2042999267578125,0.01336669921875
1751013535883884000,8.318884033203124,-0.986602783203125,-0.203094482421875,0.0135040283203125
1751013535893827000,8.3288271484375,-0.9840850830078125,-0.2040252685546875,0.0106658935546875
1751013535903771100,8.338771240234376,-0.98236083984375,-0.20611572265625,0.00994873046875
1751013535913714200,8.348714111328125,-0.9827117919921875,-0.2064056396484375,0.009979248046875
1751013535923657000,8.358656982421875,-0.98455810546875,-0.2074432373046875,0.0108642578125
1751013535933601000,8.36860107421875,-0.984222412109375,-0.207977294921875,0.0138702392578125
1751013535943544000,8.3785439453125,-0.982696533203125,-0.2077178955078125,0.0180206298828125
1751013535953488100,8.388488037109376,-0.9868011474609375,-0.2069091796875,0.019775390625
1751013535963431200,8.39843115234375,-0.9904937744140625,-0.2067108154296875,0.0144195556640625
1751013535973374200,8.408374267578125,-0.9925079345703125,-0.209381103515625,0.010009765625
1751013535983318000,8.418318115234374,-0.9942474365234375,-0.2092132568359375,0.011627197265625
1751013535993261000,8.428260986328125,-0.9987945556640625,-0.207763671875,0.0141754150390625
1751013536003204000,8.4382041015625,-1.0006256103515625,-0.208251953125,0.015350341796875
1751013536013148200,8.448148193359375,-1.0019683837890625,-0.2087249755859375,0.013427734375
1751013536023091200,8.45809130859375,-1.0013275146484375,-0.208526611328125,0.0109710693359375
1751013536033035000,8.468034912109376,-1.0006866455078125,-0.208160400390625,0.0106658935546875
1751013536042978000,8.47797802734375,-1.0001068115234375,-0.208282470703125,0.0097808837890625
1751013536052921000,8.487921142578125,-1.000885009765625,-0.2115020751953125,0.011444091796875
1751013536062865000,8.497864990234374,-1.0012359619140625,-0.2132110595703125,0.011322021484375
1751013536072808000,8.507807861328125,-0.9979095458984375,-0.216094970703125,0.01141357421875
1751013536082752000,8.517751953125,-0.9930572509765625,-0.21514892578125,0.0093536376953125
1751013536092695000,8.527695068359375,-0.9929656982421875,-0.2144317626953125,0.008544921875
1751013536102638000,8.53763818359375,-0.993896484375,-0.2139434814453125,0.0123138427734375
1751013536112582000,8.547581787109374,-0.9922027587890625,-0.2129974365234375,0.0164794921875
1751013536122525000,8.55752490234375,-0.9906768798828125,-0.210205078125,0.0165252685546875
1751013536132468000,8.567468017578125,-0.9938507080078125,-0.2081451416015625,0.016571044921875
1751013536142412000,8.577412109375,-0.9931182861328125,-0.2067413330078125,0.0149078369140625
1751013536152355000,8.58735498046875,-0.990814208984375,-0.204437255859375,0.0157318115234375
1751013536162299100,8.597299072265624,-0.9917755126953125,-0.2013702392578125,0.016571044921875
1751013536172242200,8.6072421875,-0.9936981201171875,-0.200927734375,0.0198822021484375
1751013536182185200,8.617185302734375,-0.991485595703125,-0.201812744140625,0.020416259765625
1751013536192129000,8.62712890625,-0.990753173828125,-0.2042388916015625,0.020294189453125
1751013536202072000,8.637072021484375,-0.9922637939453125,-0.206939697265625,0.019927978515625
1751013536212015000,8.64701513671875,-0.992828369140625,-0.2092132568359375,0.0195770263671875
1751013536221959200,8.656959228515625,-0.9937896728515625,-0.20849609375,0.016632080078125
1751013536231902200,8.666902099609375,-0.9940948486328125,-0.20831298828125,0.014556884765625
1751013536241846000,8.676845947265624,-0.994964599609375,-0.208984375,0.017242431640625
1751013536251789000,8.6867890625,-0.9961090087890625,-0.209136962890625,0.0189056396484375
1751013536261732000,8.696732177734376,-0.9930877685546875,-0.20831298828125,0.018096923828125
1751013536271676200,8.70667626953125,-0.9881744384765625,-0.2080535888671875,0.0164947509765625
1751013536281619000,8.716618896484375,-0.989501953125,-0.2093505859375,0.0175323486328125
1751013536291562000,8.72656201171875,-0.9922027587890625,-0.209625244140625,0.0172119140625
1751013536301506000,8.736506103515625,-0.991668701171875,-0.208953857421875,0.019012451171875
1751013536311449000,8.746448974609375,-0.9945068359375,-0.2104644775390625,0.0210418701171875
1751013536321393000,8.756392822265624,-0.995697021484375,-0.21441650390625,0.023468017578125
1751013536331336000,8.7663359375,-0.9925537109375,-0.2167816162109375,0.0223236083984375
1751013536341279000,8.776279052734376,-0.990081787109375,-0.21624755859375,0.0212554931640625
1751013536351223000,8.78622314453125,-0.989837646484375,-0.217742919921875,0.0179595947265625
1751013536361166000,8.796166015625,-0.9879150390625,-0.2204437255859375,0.01641845703125
1751013536371109000,8.806109130859374,-0.985015869140625,-0.2205352783203125,0.0198211669921875
1751013536381053000,8.816052978515625,-0.985626220703125,-0.22003173828125,0.0232086181640625
1751013536390996000,8.825995849609376,-0.98760986328125,-0.22119140625,0.026885986328125
1751013536400940000,8.83593994140625,-0.98779296875,-0.2220916748046875,0.0295257568359375
1751013536410883000,8.845883056640625,-0.9874725341796875,-0.2194061279296875,0.0270233154296875
1751013536420825900,8.855825927734376,-0.989166259765625,-0.21685791015625,0.0241241455078125
1751013536430770200,8.865770263671875,-0.9897003173828125,-0.2159423828125,0.0227203369140625
1751013536440713200,8.875713134765626,-0.993988037109375,-0.2152557373046875,0.0231475830078125
1751013536450658000,8.885657958984375,-0.9958038330078125,-0.2148895263671875,0.0205230712890625
1751013536460601000,8.89560107421875,-0.99212646484375,-0.214141845703125,0.0181884765625
1751013536470544100,8.905544189453124,-0.9925079345703125,-0.21234130859375,0.0234527587890625
1751013536480488000,8.915488037109375,-0.9912261962890625,-0.20928955078125,0.0266265869140625
1751013536490431000,8.925430908203126,-0.9872283935546875,-0.2087860107421875,0.0285491943359375
1751013536500374000,8.9353740234375,-0.9871368408203125,-0.208221435546875,0.0287322998046875
1751013536510318000,8.945318115234375,-0.989593505859375,-0.2081146240234375,0.0282135009765625
1751013536520261000,8.95526123046875,-0.9921722412109375,-0.2083587646484375,0.0249176025390625
1751013536530205200,8.965205078125,-0.9928741455078125,-0.2081451416015625,0.024749755859375
1751013536540148200,8.975148193359376,-0.995086669921875,-0.2088623046875,0.0233154296875
1751013536550091000,8.985091064453124,-1.001922607421875,-0.208221435546875,0.0194244384765625
1751013536560035300,8.995035400390625,-1.0028076171875,-0.2085418701171875,0.016693115234375
1751013536569978000,9.00497802734375,-0.9998931884765625,-0.206756591796875,0.0189056396484375
1751013536579921200,9.014921142578125,-0.9968719482421875,-0.2041473388671875,0.0226593017578125
1751013536589865200,9.024865234375,-0.9880828857421875,-0.204437255859375,0.0239715576171875
1751013536599808300,9.034808349609374,-0.9824981689453125,-0.2064056396484375,0.02349853515625
1751013536609752000,9.044751953125,-0.9827117919921875,-0.2084808349609375,0.022491455078125
1751013536619695000,9.054695068359376,-0.9833526611328125,-0.21295166015625,0.02093505859375
1751013536629638100,9.06463818359375,-0.9830474853515625,-0.216766357421875,0.0191802978515625
1751013536639582200,9.074582275390625,-0.988372802734375,-0.2188720703125,0.02069091796875
1751013536649525200,9.084525146484374,-0.9915924072265625,-0.2198944091796875,0.0230255126953125
1751013536659468300,9.09446826171875,-0.9909210205078125,-0.2202606201171875,0.02142333984375
1751013536669412000,9.104412109375,-0.994903564453125,-0.2180633544921875,0.0170440673828125
1751013536679355100,9.114355224609374,-0.9988861083984375,-0.219512939453125,0.0116729736328125
1751013536689299200,9.12429931640625,-0.99798583984375,-0.219207763671875,0.0138702392578125
1751013536699242200,9.1342421875,-0.995880126953125,-0.2146148681640625,0.019378662109375
1751013536709185000,9.14418505859375,-0.993804931640625,-0.212158203125,0.0206298828125
1751013536719129000,9.154129150390625,-0.9926300048828125,-0.2126617431640625,0.02227783203125
1751013536729072000,9.164072021484374,-0.9921875,-0.2127685546875,0.021240234375
1751013536739015200,9.17401513671875,-0.990020751953125,-0.211029052734375,0.0213775634765625
1751013536748959000,9.183958984375,-0.99029541015625,-0.211456298828125,0.022979736328125
1751013536758902000,9.193902099609375,-0.994842529296875,-0.2138671875,0.0226287841796875
1751013536768846000,9.20384619140625,-0.9970855712890625,-0.21649169921875,0.0212249755859375
1751013536778789000,9.2137890625,-0.9971923828125,-0.2177276611328125,0.0225830078125
1751013536788732200,9.223732177734375,-0.996368408203125,-0.216552734375,0.02423095703125
1751013536798676200,9.23367626953125,-0.99493408203125,-0.215545654296875,0.021759033203125
1751013536808619000,9.243618896484374,-0.9914093017578125,-0.2150726318359375,0.0205078125
1751013536818562000,9.25356201171875,-0.9874267578125,-0.213836669921875,0.021728515625
1751013536828506000,9.263506103515626,-0.9829254150390625,-0.2147216796875,0.0224151611328125
1751013536838449200,9.27344921875,-0.97686767578125,-0.2150726318359375,0.0251312255859375
1751013536848393200,9.283393310546876,-0.9743499755859375,-0.21551513671875,0.027313232421875
1751013536858336300,9.293336181640624,-0.9756622314453125,-0.214324951171875,0.03057861328125
1751013536868279300,9.303279296875,-0.9838409423828125,-0.2146148681640625,0.0386505126953125
1751013536878223000,9.31322314453125,-0.9791107177734375,-0.2146148681640625,0.0418853759765625
1751013536888166100,9.323166259765625,-0.9800262451171875,-0.206787109375,0.0325469970703125
1751013536898110200,9.333110107421875,-0.99005126953125,-0.205841064453125,0.0272369384765625
1751013536908053200,9.34305322265625,-0.9891510009765625,-0.208160400390625,0.0305633544921875
1751013536917996300,9.352996337890625,-0.9852294921875,-0.20526123046875,0.0381011962890625
1751013536927940000,9.362940185546876,-0.9876708984375,-0.204010009765625,0.0404815673828125
1751013536937883100,9.372883056640624,-0.9892120361328125,-0.2091217041015625,0.039703369140625
1751013536947826200,9.382826171875,-0.9916839599609375,-0.2109527587890625,0.035675048828125
1751013536957770000,9.39277001953125,-0.990020751953125,-0.213104248046875,0.031982421875
1751013536967713000,9.402713134765625,-0.9834747314453125,-0.2127532958984375,0.029998779296875
1751013536977657000,9.412656982421876,-0.9850311279296875,-0.213470458984375,0.0293121337890625
1751013536987600100,9.42260009765625,-0.9864044189453125,-0.2141876220703125,0.026611328125
1751013536997543200,9.432543212890625,-0.9874725341796875,-0.218048095703125,0.0230255126953125
1751013537007487000,9.442487060546876,-0.9859161376953125,-0.220916748046875,0.0223541259765625
1751013537017430000,9.452429931640625,-0.9873199462890625,-0.2216033935546875,0.0272674560546875
1751013537027373000,9.462373046875,-0.9931488037109375,-0.22052001953125,0.0318450927734375
1751013537037317000,9.472317138671874,-0.993743896484375,-0.2203216552734375,0.0290374755859375
1751013537047260200,9.48226025390625,-0.990966796875,-0.2168121337890625,0.0267181396484375
1751013537057204200,9.492204345703126,-0.9925384521484375,-0.21435546875,0.028472900390625
1751013537067147300,9.502147216796875,-0.994598388671875,-0.21392822265625,0.0285797119140625
1751013537077090000,9.512090087890625,-0.994537353515625,-0.210723876953125,0.027313232421875
1751013537087034000,9.5220341796875,-0.9945831298828125,-0.2088165283203125,0.0237274169921875
1751013537096977200,9.53197705078125,-0.9964599609375,-0.2104034423828125,0.020843505859375
1751013537106920200,9.541920166015625,-0.9944305419921875,-0.21185302734375,0.0208740234375
1751013537116864300,9.5518642578125,-0.989837646484375,-0.21209716796875,0.0224609375
1751013537126807300,9.561807373046875,-0.9883270263671875,-0.2118682861328125,0.0261688232421875
1751013537136751000,9.571751220703124,-0.9882659912109375,-0.214263916015625,0.02569580078125
1751013537146694100,9.581694091796875,-0.9905853271484375,-0.2162017822265625,0.022735595703125
1751013537156637200,9.59163720703125,-0.9918365478515625,-0.21527099609375,0.0207977294921875
1751013537166581200,9.601581298828124,-0.992401123046875,-0.2142333984375,0.019989013671875
1751013537176524300,9.611524169921875,-0.992218017578125,-0.2155914306640625,0.0155487060546875
1751013537186467000,9.621467041015626,-0.9931640625,-0.21795654296875,0.0171966552734375
1751013537196411100,9.6314111328125,-0.9904327392578125,-0.216583251953125,0.0188446044921875
1751013537206354200,9.641354248046875,-0.9862823486328125,-0.21484375,0.01715087890625
1751013537216298000,9.651298095703124,-0.9831390380859375,-0.21478271484375,0.01654052734375
1751013537226241000,9.661240966796875,-0.9799346923828125,-0.2134552001953125,0.01861572265625
1751013537236184000,9.67118408203125,-0.976287841796875,-0.211822509765625,0.0247039794921875
1751013537246128000,9.681128173828125,-0.9737091064453125,-0.2076263427734375,0.0279541015625
1751013537256071200,9.6910712890625,-0.9788055419921875,-0.206085205078125,0.0243682861328125
1751013537266014200,9.70101416015625,-0.985992431640625,-0.20953369140625,0.0230712890625
1751013537275958000,9.7109580078125,-0.9908294677734375,-0.2089080810546875,0.027008056640625
1751013537285901000,9.720901123046875,-0.9925384521484375,-0.2051239013671875,0.02734375
1751013537295845000,9.73084521484375,-0.991241455078125,-0.2061920166015625,0.02703857421875
1751013537305788200,9.7407880859375,-0.9929656982421875,-0.2081756591796875,0.0263671875
1751013537315731000,9.75073095703125,-0.994903564453125,-0.2039642333984375,0.0214996337890625
1751013537325675300,9.76067529296875,-0.9958038330078125,-0.200531005859375,0.017364501953125
1751013537335618300,9.770618408203125,-0.9986724853515625,-0.201904296875,0.01690673828125
1751013537345562000,9.78056201171875,-1.0022735595703125,-0.2040252685546875,0.0230560302734375
1751013537355505200,9.790505126953125,-0.99957275390625,-0.204376220703125,0.0267333984375
1751013537365448200,9.8004482421875,-0.9922332763671875,-0.2056427001953125,0.0306854248046875
1751013537375392300,9.810392333984375,-0.990234375,-0.207183837890625,0.0333099365234375
1751013537385335300,9.820335205078125,-0.9926910400390625,-0.2109527587890625,0.0282745361328125
1751013537395278300,9.8302783203125,-0.9979095458984375,-0.213714599609375,0.021575927734375
1751013537405222100,9.84022216796875,-0.99945068359375,-0.2154693603515625,0.020538330078125
1751013537415165200,9.850165283203125,-0.9968109130859375,-0.214385986328125,0.0237579345703125
1751013537425109200,9.860109130859374,-0.9951629638671875,-0.212066650390625,0.02783203125
1751013537435052000,9.870052001953125,-0.9937286376953125,-0.2110595703125,0.0323486328125
1751013537444994600,9.87999462890625,-0.9945831298828125,-0.2098541259765625,0.0296173095703125
1751013537454938400,9.8899384765625,-0.9963836669921875,-0.211334228515625,0.027191162109375
1751013537464881400,9.89988134765625,-0.99713134765625,-0.2129058837890625,0.0265350341796875
1751013537474824400,9.909824462890626,-0.9948577880859375,-0.2121429443359375,0.0279541015625
1751013537484768500,9.9197685546875,-0.9935760498046875,-0.210845947265625,0.028472900390625
1751013537494711300,9.929711181640625,-0.990631103515625,-0.2116851806640625,0.0293426513671875
1751013537504655600,9.939655517578124,-0.9901580810546875,-0.21136474609375,0.0320587158203125
1751013537514598700,9.9495986328125,-0.9940948486328125,-0.210968017578125,0.0324554443359375
1751013537524541700,9.959541748046876,-0.993377685546875,-0.2109832763671875,0.0307464599609375
1751013537534485500,9.969485595703125,-0.992218017578125,-0.2113037109375,0.0304718017578125
1751013537544428500,9.979428466796875,-0.9903411865234375,-0.2113800048828125,0.0301666259765625
1751013537554371600,9.98937158203125,-0.9919891357421875,-0.2111663818359375,0.029541015625
1751013537564315600,9.999315673828125,-0.994720458984375,-0.2110137939453125,0.030609130859375
1751013537574258700,10.0092587890625,-0.99456787109375,-0.2105560302734375,0.029083251953125
1751013537584202500,10.019202392578125,-0.998291015625,-0.2089996337890625,0.028289794921875
1751013537594145500,10.0291455078125,-0.9993133544921875,-0.2104034423828125,0.030242919921875
1751013537604088600,10.039088623046876,-0.9947052001953125,-0.208160400390625,0.0368499755859375
1751013537614032400,10.049032470703125,-0.9906158447265625,-0.20306396484375,0.0381011962890625
1751013537623975400,10.058975341796875,-0.99212646484375,-0.2040252685546875,0.03363037109375
1751013537633918500,10.06891845703125,-0.9958038330078125,-0.206756591796875,0.0271148681640625
1751013537643862500,10.078862548828125,-1.0002593994140625,-0.2092742919921875,0.0247650146484375
1751013537653805600,10.0888056640625,-1.0005340576171875,-0.21173095703125,0.0290069580078125
1751013537663749400,10.098749267578125,-0.9969329833984375,-0.211883544921875,0.03363037109375
1751013537673692400,10.1086923828125,-0.994842529296875,-0.211029052734375,0.030517578125
1751013537683635500,10.118635498046874,-0.9965972900390625,-0.21319580078125,0.025054931640625
1751013537693579500,10.12857958984375,-0.997650146484375,-0.2158203125,0.026214599609375
1751013537703522600,10.1385224609375,-0.9935455322265625,-0.2144622802734375,0.030364990234375
1751013537713465300,10.14846533203125,-0.98406982421875,-0.21380615234375,0.0340118408203125
1751013537723409400,10.158409423828125,-0.97784423828125,-0.2115631103515625,0.03460693359375
1751013537733352400,10.1683525390625,-0.9803924560546875,-0.2110443115234375,0.028045654296875
1751013537743296500,10.178296630859375,-0.9804534912109375,-0.2143096923828125,0.0252685546875
1751013537753239600,10.188239501953126,-0.9846343994140625,-0.2140655517578125,0.0269012451171875
1751013537763182300,10.198182373046874,-0.987701416015625,-0.2146453857421875,0.0276641845703125
1751013537773126700,10.208126708984375,-0.98828125,-0.214752197265625,0.027069091796875
1751013537783069700,10.218069580078126,-0.9894561767578125,-0.212646484375,0.0275726318359375
1751013537793012700,10.2280126953125,-0.989013671875,-0.211700439453125,0.0280609130859375
1751013537802956500,10.23795654296875,-0.986236572265625,-0.2111968994140625,0.025665283203125
1751013537812899600,10.247899658203124,-0.9849853515625,-0.2091827392578125,0.025421142578125
1751013537822843600,10.25784375,-0.988189697265625,-0.208953857421875,0.027374267578125
1751013537832786700,10.26778662109375,-0.9892120361328125,-0.2112884521484375,0.027587890625
1751013537842729500,10.2777294921875,-0.989990234375,-0.2128143310546875,0.0303192138671875
1751013537852673500,10.287673583984375,-0.993988037109375,-0.21221923828125,0.0302276611328125
1751013537862616600,10.297616455078124,-0.997589111328125,-0.212554931640625,0.03045654296875
1751013537872559600,10.3075595703125,-0.99957275390625,-0.2115478515625,0.030303955078125
1751013537882503400,10.31750341796875,-0.999481201171875,-0.2088165283203125,0.0290679931640625
1751013537892446500,10.327446533203124,-0.9954376220703125,-0.2082366943359375,0.0284881591796875
1751013537902390500,10.337390625,-0.9940948486328125,-0.2053985595703125,0.030364990234375
1751013537912333600,10.34733349609375,-0.99237060546875,-0.20361328125,0.0311126708984375
1751013537922276600,10.357276611328125,-0.990509033203125,-0.2045745849609375,0.0323333740234375
1751013537932220400,10.367220458984375,-0.987457275390625,-0.2046661376953125,0.0330810546875
1751013537942163500,10.37716357421875,-0.9874725341796875,-0.206268310546875,0.0324554443359375
1751013537952106500,10.3871064453125,-0.98974609375,-0.210113525390625,0.030914306640625
1751013537962050600,10.397050537109376,-0.991180419921875,-0.2174530029296875,0.0304412841796875
1751013537971993300,10.406993408203125,-0.98773193359375,-0.221435546875,0.02789306640625
1751013537981937400,10.4169375,-0.9836273193359375,-0.2233428955078125,0.0256500244140625
1751013537991880400,10.42688037109375,-0.9828643798828125,-0.2254180908203125,0.02838134765625
1751013538001823500,10.436823486328125,-0.9863739013671875,-0.2256011962890625,0.0297393798828125
1751013538011767600,10.446767578125,-0.99017333984375,-0.225250244140625,0.0287628173828125
1751013538021710600,10.456710693359375,-0.98828125,-0.2256317138671875,0.02734375
1751013538031653400,10.4666533203125,-0.991729736328125,-0.2220458984375,0.0251922607421875
1751013538041597700,10.47659765625,-0.99444580078125,-0.2224578857421875,0.024627685546875
1751013538051540700,10.486540771484375,-0.9908294677734375,-0.2222137451171875,0.0282135009765625
1751013538061484500,10.496484619140626,-0.9896392822265625,-0.219970703125,0.0285797119140625
1751013538071427600,10.506427490234374,-0.991851806640625,-0.219024658203125,0.0308837890625
1751013538081370600,10.51637060546875,-0.9925994873046875,-0.2186126708984375,0.033935546875
1751013538091314400,10.526314453125,-0.996734619140625,-0.2169647216796875,0.035858154296875
1751013538101257500,10.536257568359375,-0.9986724853515625,-0.2156219482421875,0.03485107421875
1751013538111200500,10.546200439453125,-0.999267578125,-0.2136383056640625,0.0358734130859375
1751013538121144600,10.55614453125,-1.0030517578125,-0.2105560302734375,0.0386810302734375
1751013538131087600,10.566087646484375,-1.00506591796875,-0.2080841064453125,0.0389251708984375
1751013538141031400,10.576031494140626,-0.910797119140625,-0.197235107421875,0.0450286865234375
1751013538150974500,10.585974365234375,-0.9639739990234375,-0.1939239501953125,0.0601806640625
1751013538160917500,10.59591748046875,-1.0150299072265625,-0.2011566162109375,0.053070068359375
1751013538170861600,10.605861572265624,-0.9998321533203125,-0.2154693603515625,0.0313873291015625
1751013538180804600,10.6158046875,-1.0084228515625,-0.2187042236328125,0.0337677001953125
1751013538190747400,10.625747314453125,-1.0005340576171875,-0.222747802734375,0.03570556640625
1751013538200691500,10.63569140625,-1.0099029541015625,-0.2308349609375,0.024810791015625
1751013538210634500,10.645634521484375,-1.022979736328125,-0.2402496337890625,0.0201263427734375
1751013538220578600,10.65557861328125,-1.0246734619140625,-0.2465972900390625,0.021728515625
1751013538230521300,10.665521240234375,-1.0258636474609375,-0.2529144287109375,0.014312744140625
1751013538240464400,10.67546435546875,-1.018768310546875,-0.2569427490234375,0.0028076171875
1751013538250408400,10.685408447265624,-1.0067138671875,-0.2553253173828125,0.0049896240234375
