time,seconds_elapsed,z,y,x
1751013755128269600,0.11726953125,-0.055444084107875824,0.01188195962458849,0.031259652227163315
1751013755138212600,0.127212646484375,-0.07798933982849121,-0.0172684695571661,0.017892181873321533
1751013755148156700,0.13715673828125,-0.08890457451343536,-0.03410790115594864,0.0065103634260594845
1751013755158099700,0.147099609375,-0.09085187315940857,-0.043115247040987015,-0.013350159861147404
1751013755168043500,0.15704345703125,-0.08709202706813812,-0.046308908611536026,-0.03455105423927307
1751013755177986600,0.166986572265625,-0.08023065328598022,-0.043348804116249084,-0.0484791174530983
1751013755187929600,0.1769296875,-0.06894897669553757,-0.029144037514925003,-0.050935085862874985
1751013755197874000,0.1868740234375,-0.05132950097322464,-0.0052261874079704285,-0.0517532080411911
1751013755207816700,0.196816650390625,-0.033606961369514465,0.010469685308635235,-0.06553719937801361
1751013755217760800,0.2067607421875,-0.015461248345673084,0.01323990523815155,-0.07727082073688507
1751013755227703800,0.216703857421875,-0.006281065288931131,0.022407304495573044,-0.0767243355512619
1751013755237646800,0.226646728515625,-0.005111937876790762,0.013525928370654583,-0.05829712748527527
1751013755247590700,0.236590576171875,-0.002801911672577262,-0.006589459255337715,-0.02793176658451557
1751013755257533700,0.24653369140625,0.009445433504879475,-0.026704581454396248,0.02305072359740734
1751013755267477800,0.256477783203125,0.022012891247868538,-0.03406396135687828,0.07092983275651932
1751013755277420800,0.2664208984375,0.023991351947188377,-0.036856286227703094,0.10549020767211914
1751013755287363800,0.27636376953125,0.02304646372795105,-0.018865566700696945,0.1207495853304863
1751013755297307600,0.2863076171875,0.047447144985198975,0.003371029393747449,0.10879278928041458
1751013755307250700,0.296250732421875,0.08742652088403702,0.017770474776625633,0.0765826553106308
1751013755317193700,0.30619384765625,0.11310365051031113,0.030055103823542595,0.02942047268152237
1751013755327137800,0.3161376953125,0.11785020679235458,0.04081161320209503,-0.022763902321457863
1751013755337080800,0.326080810546875,0.10693923383951187,0.03422268480062485,-0.06855722516775131
1751013755347024600,0.336024658203125,0.08948034793138504,0.028605278581380844,-0.08445043861865997
1751013755356967700,0.3459677734375,0.07736776024103165,0.026430541649460793,-0.07383374124765396
1751013755366910700,0.35591064453125,0.06630951166152954,0.019578760489821434,-0.044736310839653015
1751013755376854800,0.365854736328125,0.05289170891046524,0.008549545891582966,-0.01324043795466423
1751013755386797600,0.375797607421875,0.04957927018404007,-0.0033992587123066187,0.015312643721699715
1751013755396741600,0.38574169921875,0.05308878421783447,-0.002529204124584794,0.028793830424547195
1751013755406684700,0.3956845703125,0.0658557116985321,-0.0006077333819121122,0.016810938715934753
1751013755416627700,0.405627685546875,0.08858180046081543,0.013581855222582817,-0.008135690353810787
1751013755426571500,0.415571533203125,0.10788598656654358,0.03566158935427666,-0.047823715955019
1751013755436514600,0.4255146484375,0.12032747268676758,0.05971473082900047,-0.09186521172523499
1751013755446459000,0.435458984375,0.12726980447769165,0.076799176633358,-0.12925678491592407
1751013755456402000,0.44540185546875,0.1375621259212494,0.07541006803512573,-0.14887656271457672
1751013755466344700,0.4553447265625,0.1413177102804184,0.055157795548439026,-0.14875459671020508
1751013755476288800,0.465288818359375,0.1436503827571869,0.025959961116313934,-0.12907782196998596
1751013755486231800,0.475231689453125,0.14704537391662598,-0.011180482804775238,-0.10258256644010544
1751013755496175900,0.48517578125,0.14561818540096283,-0.043304864317178726,-0.0762082189321518
1751013755506118700,0.49511865234375,0.13053244352340698,-0.06396433711051941,-0.05729018896818161
1751013755516061700,0.505061767578125,0.11656709015369415,-0.0759405717253685,-0.05588377267122269
1751013755526005800,0.515005859375,0.10405822843313217,-0.08931070566177368,-0.05765237659215927
1751013755535948800,0.52494873046875,0.08790136128664017,-0.0923222079873085,-0.06721445918083191
1751013755545891800,0.534891845703125,0.07496479153633118,-0.10026028752326965,-0.07295410335063934
1751013755555835600,0.544835693359375,0.06282609701156616,-0.10463239997625351,-0.07463349401950836
1751013755565778700,0.55477880859375,0.06120343506336212,-0.09215069562196732,-0.06553133577108383
1751013755575722800,0.56472265625,0.062136340886354446,-0.07688120007514954,-0.07013541460037231
1751013755585665800,0.574665771484375,0.069878950715065,-0.06129877641797066,-0.08060616254806519
1751013755595608800,0.58460888671875,0.07199429720640182,-0.035055190324783325,-0.08143413811922073
1751013755605552600,0.594552734375,0.07818188518285751,-0.015399728901684284,-0.06813058257102966
1751013755615495700,0.60449560546875,0.07960961014032364,-0.00631941482424736,-0.038114629685878754
1751013755625439700,0.614439697265625,0.06975750625133514,-0.007186539936810732,-0.011942679062485695
1751013755635382500,0.624382568359375,0.0477861650288105,-0.013574930839240551,0.010733604431152344
1751013755645325600,0.63432568359375,0.027534155175089836,-0.00279046013019979,0.028011927381157875
1751013755655270100,0.644270263671875,0.012585566379129887,0.00021518341964110732,0.029987460002303123
1751013755665213200,0.654213134765625,-0.0034703651908785105,0.002237587934359908,0.0021201425697654486
1751013755675156200,0.66415625,-0.01787646859884262,0.01576671190559864,-0.0454321950674057
1751013755685100000,0.67410009765625,-0.020861605182290077,0.03718598559498787,-0.08506136387586594
1751013755695043000,0.68404296875,-0.017254620790481567,0.061094511300325394,-0.10957469791173935
1751013755704987100,0.693987060546875,-0.017956895753741264,0.07162145525217056,-0.11332549154758453
1751013755714930200,0.70393017578125,-0.017680194228887558,0.08394896239042282,-0.08917887508869171
1751013755724873000,0.713873046875,-0.007197459228336811,0.08378304541110992,-0.052505817264318466
1751013755734817000,0.723817138671875,0.001958222361281514,0.06885043531656265,-0.019212841987609863
1751013755744760000,0.733760009765625,-0.00032437301706522703,0.0438699871301651,-0.007713579572737217
1751013755754704000,0.743703857421875,-0.02141927182674408,0.02869396284222603,-0.02683108113706112
1751013755764647000,0.75364697265625,-0.050222158432006836,0.017955297604203224,-0.07575574517250061
1751013755774590000,0.76358984375,-0.08144665509462357,0.02280304953455925,-0.15248461067676544
1751013755784534000,0.773533935546875,-0.09502984583377838,0.02996722050011158,-0.22586561739444733
1751013755794477000,0.78347705078125,-0.0904308333992958,0.044795166701078415,-0.26619359850883484
1751013755804421000,0.793421142578125,-0.057788729667663574,0.06601736694574356,-0.26299887895584106
1751013755814364200,0.8033642578125,-0.019714849069714546,0.07225821912288666,-0.20885920524597168
1751013755824307200,0.81330712890625,0.006666158325970173,0.07025738805532455,-0.13210371136665344
1751013755834251300,0.823251220703125,0.024466460570693016,0.056365005671978,-0.04132453724741936
1751013755844194000,0.833194091796875,0.025418540462851524,0.035899411886930466,0.04081294313073158
1751013755854138000,0.84313818359375,0.01919553242623806,0.013070262037217617,0.08859244734048843
1751013755864081200,0.8530810546875,0.0022767363116145134,-0.017063139006495476,0.10328511148691177
1751013755874024200,0.863024169921875,-0.00282002124004066,-0.030498521402478218,0.0895937979221344
1751013755883968000,0.872968017578125,0.004418983124196529,-0.03287699073553085,0.07598184794187546
1751013755893911000,0.8829111328125,0.008408931083977222,-0.021982530131936073,0.05579269304871559
1751013755903854000,0.89285400390625,0.004059456288814545,-0.009443302638828754,0.02906627207994461
1751013755913798100,0.902798095703125,-0.006475209724158049,0.009782856330275536,0.006900250446051359
1751013755923741200,0.9127412109375,-0.011626029387116432,0.02340439148247242,-0.007802262902259827
1751013755933685000,0.92268505859375,-0.024090688675642014,0.03214595094323158,-0.013856959529221058
1751013755943628000,0.9326279296875,-0.02610909938812256,0.03218270465731621,-0.012092349119484425
1751013755953571000,0.942571044921875,-0.025360217317938805,0.022367889061570168,-0.006937534548342228
1751013755963515100,0.95251513671875,-0.031246602535247803,0.011485680937767029,0.004686098080128431
1751013755973458200,0.962458251953125,-0.03260667994618416,0.00126739835832268,0.008505870588123798
1751013755983402000,0.972402099609375,-0.029710492119193077,-0.00977433379739523,0.014150173403322697
1751013755993345000,0.982344970703125,-0.03224209323525429,-0.01582982949912548,0.010277937166392803
1751013756003288000,0.9922880859375,-0.04331152141094208,-0.012052401900291443,-0.0031880701426416636
1751013756013231900,1.00223193359375,-0.05116331949830055,-0.0025036376900970936,-0.024416925385594368
1751013756023175000,1.0121748046875,-0.05185467377305031,0.0017947042360901833,-0.03153262659907341
1751013756033118000,1.022117919921875,-0.05112550035119057,0.0010034791193902493,-0.0297286007553339
1751013756043062000,1.03206201171875,-0.043304331600666046,-0.00006418218254111707,-0.023612651973962784
1751013756053005000,1.042005126953125,-0.038485873490571976,-0.008408398367464542,-0.022662967443466187
1751013756062949000,1.05194921875,-0.029474003240466118,-0.021269602701067924,-0.013816745951771736
1751013756072892200,1.06189208984375,-0.02562813088297844,-0.026995930820703506,0.004299141000956297
1751013756082835200,1.071835205078125,-0.028738170862197876,-0.029348833486437798,0.022099442780017853
1751013756092779300,1.081779296875,-0.01888953521847725,-0.020199012011289597,0.03838227689266205
1751013756102722000,1.09172216796875,-0.001576857641339302,0.006795321591198444,0.03731061890721321
1751013756112666000,1.101666015625,0.01594541035592556,0.0309336818754673,0.0057502975687384605
1751013756122609200,1.111609130859375,0.025724804028868675,0.043291814625263214,-0.0384344756603241
1751013756132552200,1.12155224609375,0.03394465148448944,0.04729853942990303,-0.06280239671468735
1751013756142496000,1.13149609375,0.04018443822860718,0.029442043974995613,-0.06615158915519714
1751013756152439000,1.14143896484375,0.03800703585147858,0.01050563808530569,-0.051533766090869904
1751013756162383000,1.151383056640625,0.02839861810207367,-0.0096246637403965,-0.03176538646221161
1751013756172326100,1.161326171875,0.021216338500380516,-0.029101159423589706,-0.017119331285357475
1751013756182269200,1.171269287109375,0.010885404422879219,-0.04465668275952339,-0.0052168662659823895
1751013756192213000,1.181212890625,0.006468551699072123,-0.046836480498313904,0.006132727488875389
1751013756202156000,1.191156005859375,0.0035332157276570797,-0.03891757130622864,0.009589510038495064
1751013756212099000,1.20109912109375,0.0033569145016372204,-0.03025723807513714,0.004832039587199688
1751013756222043100,1.211043212890625,0.01011069118976593,-0.019410716369748116,-0.01203775405883789
1751013756231986000,1.22098583984375,0.021226990967988968,-0.006135923322290182,-0.03227271884679794
1751013756241930000,1.230929931640625,0.03820544108748436,0.005144162103533745,-0.050089798867702484
1751013756251873000,1.240873046875,0.0522347092628479,0.014633004553616047,-0.06035974621772766
1751013756261816000,1.250816162109375,0.06023005023598671,0.008976717479526997,-0.05883828178048134
1751013756271760000,1.260759765625,0.061348844319581985,0.003847468877211213,-0.04706231877207756
1751013756281703000,1.270702880859375,0.060025252401828766,-0.0060027651488780975,-0.010439857840538025
1751013756291647200,1.280647216796875,0.058585815131664276,-0.0208261851221323,0.031633295118808746
1751013756301590300,1.29059033203125,0.05355297401547432,-0.040647294372320175,0.06475342810153961
1751013756311533000,1.300532958984375,0.052330583333969116,-0.05636686831712723,0.08517934381961823
1751013756321477000,1.31047705078125,0.05242912098765373,-0.06754335761070251,0.08687284588813782
1751013756331420200,1.320420166015625,0.05280781909823418,-0.07592832297086716,0.08003624528646469
1751013756341364200,1.3303642578125,0.0618753507733345,-0.07342840731143951,0.07308752834796906
1751013756351307300,1.340307373046875,0.0702563226222992,-0.0806378573179245,0.06373690068721771
1751013756361250000,1.35025,0.07014499604701996,-0.08168767392635345,0.054495733231306076
1751013756371194000,1.360194091796875,0.06516914814710617,-0.06714654713869095,0.04680505394935608
1751013756381137200,1.37013720703125,0.06347644329071045,-0.05061044543981552,0.030590133741497993
1751013756391080200,1.380080078125,0.06192914769053459,-0.033731330186128616,0.008073106408119202
1751013756401024000,1.39002392578125,0.05690882354974747,-0.022588666528463364,-0.013401825912296772
1751013756410967000,1.399967041015625,0.043475303798913956,-0.023551132529973984,-0.037214480340480804
1751013756420911000,1.4099111328125,0.035706598311662674,-0.03063647262752056,-0.05843907594680786
1751013756430854100,1.419854248046875,0.02815627120435238,-0.037769217044115067,-0.06755614280700684
1751013756440797200,1.429797119140625,0.018370484933257103,-0.04153279587626457,-0.07295410335063934
1751013756450741000,1.439740966796875,0.010961570776998997,-0.03730050101876259,-0.0722169354557991
1751013756460684000,1.44968408203125,0.0034346787724643946,-0.033247433602809906,-0.06095709279179573
1751013756470628000,1.459628173828125,0.0007414240390062332,-0.025525333359837532,-0.03772207722067833
1751013756480571100,1.469571044921875,-0.0027473168447613716,-0.014695589430630207,-0.00660463934764266
1751013756490514000,1.479513916015625,0.0032570459879934788,-0.0004902879591099918,0.017959026619791985
1751013756500458000,1.4894580078125,0.007979363203048706,-0.004578772932291031,0.026394322514533997
1751013756510401000,1.499401123046875,0.016086824238300323,-0.012898487970232964,0.01955905370414257
1751013756520344000,1.509343994140625,0.014967763796448708,-0.011771970428526402,0.01429291907697916
1751013756530287900,1.519287841796875,0.0169728584587574,-0.014731275849044323,0.004281830508261919
1751013756540231000,1.52923095703125,0.01372113823890686,-0.019401926547288895,0.004339088220149279
1751013756550175200,1.53917529296875,0.009923471137881279,-0.02556820958852768,0.013848970644176006
1751013756560118300,1.5491181640625,0.0005603290628641844,-0.022968698292970657,0.03313611447811127
1751013756570061000,1.55906103515625,-0.004516454879194498,-0.01116157416254282,0.03377420827746391
1751013756580005000,1.569005126953125,0.0030892668291926384,-0.005256813485175371,0.013909690082073212
1751013756589948200,1.5789482421875,0.020500481128692627,0.00675164582207799,-0.006455236114561558
1751013756599892200,1.588892333984375,0.033250365406274796,0.015662049874663353,-0.02099050208926201
1751013756609835300,1.598835205078125,0.03790343925356865,0.02160276286303997,-0.030608242377638817
1751013756619778000,1.608778076171875,0.03870824724435806,0.02118890918791294,-0.03134673833847046
1751013756629722000,1.61872216796875,0.037150297313928604,0.014310495927929878,-0.02449921704828739
1751013756639665200,1.6286650390625,0.03531671315431595,0.009314405731856823,-0.013785053975880146
1751013756649609700,1.638609619140625,0.03212358057498932,0.026494724676012993,-0.00012516857532318681
1751013756659552800,1.648552734375,0.036985982209444046,0.04735260084271431,-0.007908256724476814
1751013756669495800,1.658495849609375,0.03371375426650047,0.029389314353466034,-0.018929483368992805
1751013756679440000,1.66843994140625,-0.0011201255256310105,0.0018314558546990156,-0.01236079540103674
1751013756689383000,1.6783828125,-0.05392448604106903,-0.024884311482310295,0.03393452987074852
1751013756699325700,1.68832568359375,-0.08582223206758499,-0.028173580765724182,0.060141365975141525
1751013756709269800,1.698269775390625,-0.09657234698534012,-0.003245860803872347,0.05037981644272804
1751013756719212800,1.708212890625,-0.08710134774446487,0.04896221682429314,0.006954312324523926
1751013756729156600,1.718156494140625,-0.05181312933564186,0.09874841570854187,-0.06360267847776413
1751013756739099600,1.728099609375,-0.0032650355715304613,0.13614265620708466,-0.12872256338596344
1751013756749042700,1.738042724609375,0.034214429557323456,0.1396481841802597,-0.1558106392621994
1751013756758986800,1.74798681640625,0.053334061056375504,0.11373136192560196,-0.14216886460781097
1751013756768929800,1.7579296875,0.05213430896401405,0.07475785911083221,-0.09218692034482956
1751013756778873600,1.76787353515625,0.03682991862297058,0.02069835364818573,-0.02424781583249569
1751013756788816600,1.777816650390625,0.019512714818120003,-0.017521735280752182,0.053402505815029144
1751013756798759700,1.787759765625,0.011914982460439205,-0.05326508730649948,0.10607503354549408
1751013756808703700,1.797703857421875,0.0018788601737469435,-0.08267037570476532,0.12957078218460083
1751013756818646800,1.807646728515625,-0.004238686989992857,-0.1025996133685112,0.1171087771654129
1751013756828590600,1.817590576171875,-0.010655307210981846,-0.10597383975982666,0.07886631786823273
1751013756838533600,1.82753369140625,-0.020074641332030296,-0.09242793172597885,0.04267475754022598
1751013756848476700,1.8374765625,-0.012957876548171043,-0.07217486202716827,-0.002374474424868822
1751013756858420700,1.847420654296875,-0.0024708807468414307,-0.04688681662082672,-0.03397927060723305
1751013756868363500,1.857363525390625,0.007763913366943598,-0.022374281659722328,-0.049624811857938766
1751013756878306600,1.867306640625,0.018136659637093544,0.006436061579734087,-0.055682435631752014
1751013756888251000,1.8772509765625,0.027958396822214127,0.020723387598991394,-0.048764076083898544
1751013756898193700,1.887193603515625,0.0330495610833168,0.024711471050977707,-0.032054074108600616
1751013756908137700,1.8971376953125,0.028725387528538704,0.004348409362137318,-0.00839854497462511
1751013756918080800,1.907080810546875,0.019118035212159157,-0.055875517427921295,0.04825914278626442
1751013756928023800,1.91702392578125,-0.0031135017052292824,-0.14534707367420197,0.12508361041545868
1751013756937967900,1.9269677734375,-0.036143623292446136,-0.2525275945663452,0.18234024941921234
1751013756947911000,1.936910888671875,-0.0619903989136219,-0.36065298318862915,0.20383355021476746
1751013756957854700,1.946854736328125,-0.08008365333080292,-0.4156310260295868,0.1824563592672348
1751013756967797800,1.9567978515625,-0.09453555941581726,-0.39615797996520996,0.11589144915342331
1751013756977740800,1.96674072265625,-0.08426614105701447,-0.327489972114563,0.042622826993465424
1751013756987684600,1.9766845703125,-0.05260275676846504,-0.22310738265514374,-0.02851606346666813
1751013756997627600,1.986627685546875,-0.019845077767968178,-0.12315841764211655,-0.08290793001651764
1751013757007570700,1.99657080078125,0.006102900020778179,-0.02852565050125122,-0.11028575897216797
1751013757017514800,2.0065146484375,0.026317358016967773,0.054076552391052246,-0.10715042054653168
1751013757027457800,2.016457763671875,0.04397597908973694,0.10294529050588608,-0.09116879105567932
1751013757037401600,2.026401611328125,0.05601000413298607,0.12287852168083191,-0.07507184892892838
1751013757047344600,2.0363447265625,0.05886651203036308,0.12608416378498077,-0.072783924639225
1751013757057287700,2.04628759765625,0.05077449604868889,0.0999460369348526,-0.0676882341504097
1751013757067231700,2.056231689453125,0.032945964485406876,0.07367395609617233,-0.07256527990102768
1751013757077174800,2.0661748046875,0.010781807824969292,0.05091564357280731,-0.08196410536766052
1751013757087118600,2.07611865234375,-0.0073354109190404415,0.03291826695203781,-0.09198957681655884
1751013757097061600,2.0860615234375,-0.019474631175398827,0.02286989614367485,-0.09512624889612198
1751013757107004700,2.096004638671875,-0.025375930592417717,0.013648434542119503,-0.09597499668598175
1751013757116948500,2.105948486328125,-0.03440031781792641,0.015182947739958763,-0.1069839745759964
1751013757126891500,2.1158916015625,-0.03644775599241257,0.015869244933128357,-0.11552845686674118
1751013757136835800,2.1258359375,-0.03657372295856476,0.019421102479100227,-0.1286618411540985
1751013757146779000,2.13577880859375,-0.040708813816308975,0.02333994396030903,-0.12405936419963837
1751013757156722000,2.145721923828125,-0.04953612759709358,0.034863706678152084,-0.12144360691308975
1751013757166665700,2.155665771484375,-0.04394508898258209,0.04044276475906372,-0.12512382864952087
1751013757176608800,2.16560888671875,-0.03196219354867935,0.03864273428916931,-0.12379491329193115
1751013757186551800,2.1755517578125,-0.018247978761792183,0.0381990522146225,-0.12551212310791016
1751013757196496000,2.185495849609375,0.001662877737544477,0.017243968322873116,-0.12393872439861298
1751013757206438700,2.195438720703125,-0.0028037759475409985,-0.0017768610268831253,-0.11612500995397568
1751013757216382700,2.2053828125,-0.01293204352259636,-0.03514840081334114,-0.09979210793972015
1751013757226325800,2.21532568359375,-0.015976037830114365,-0.07908709347248077,-0.07089627534151077
1751013757236268800,2.225268798828125,-0.022122612223029137,-0.10552642494440079,-0.029272934421896935
1751013757246212600,2.235212646484375,-0.0368107445538044,-0.11464802175760269,0.015484684146940708
1751013757256155600,2.24515576171875,-0.053940463811159134,-0.1004248708486557,0.05223390832543373
1751013757266099700,2.255099609375,-0.06509298086166382,-0.08526935428380966,0.0745389461517334
1751013757276042800,2.265042724609375,-0.05537963658571243,-0.0691005066037178,0.0998522937297821
1751013757285985800,2.27498583984375,-0.052813414484262466,-0.013425527140498161,0.09438056498765945
1751013757295929600,2.2849296875,-0.0630631223320961,0.02364460937678814,0.0794743224978447
1751013757305872600,2.29487255859375,-0.05884254351258278,0.026640664786100388,0.05836290866136551
1751013757315816700,2.304816650390625,-0.04544204846024513,0.02015320584177971,0.05625049024820328
1751013757325759700,2.314759765625,-0.04418876767158508,0.005636313930153847,0.06699128448963165
1751013757335702800,2.324702880859375,-0.05495832487940788,-0.004421379882842302,0.08617110550403595
1751013757345646600,2.334646484375,-0.06229666247963905,-0.0019204054260626435,0.11247754096984863
1751013757355589600,2.344589599609375,-0.07338526844978333,0.0021257351618260145,0.12996545433998108
1751013757365532700,2.35453271484375,-0.08293722569942474,0.02184777520596981,0.1428719311952591
1751013757375476500,2.3644765625,-0.09347055852413177,0.04150829464197159,0.13330426812171936
1751013757385419500,2.37441943359375,-0.10533653944730759,0.042568497359752655,0.10326992720365524
1751013757395363800,2.38436376953125,-0.10503214597702026,0.02665158361196518,0.06186869367957115
1751013757405307000,2.394306884765625,-0.12958382070064545,0.0251583494246006,0.009916546754539013
1751013757415250000,2.40425,-0.15892653167247772,0.01258103922009468,-0.037936463952064514
1751013757425193700,2.41419384765625,-0.1680515855550766,-0.01498374342918396,-0.07250269502401352
1751013757435136800,2.42413671875,-0.14800943434238434,-0.039033420383930206,-0.0697638988494873
1751013757445080800,2.434080810546875,-0.11541660875082016,-0.05975041538476944,-0.03458833694458008
1751013757455023900,2.44402392578125,-0.08879564702510834,-0.0806058943271637,0.019451461732387543
1751013757464966700,2.453966552734375,-0.06609433144330978,-0.0933011844754219,0.07950068265199661
1751013757474910700,2.46391064453125,-0.03967497497797012,-0.09083882719278336,0.13733282685279846
1751013757484853800,2.473853759765625,-0.012472115457057953,-0.08348503708839417,0.17500430345535278
1751013757494797800,2.4837978515625,0.008804410696029663,-0.06844297051429749,0.19240300357341766
1751013757504740600,2.49374072265625,0.02244112640619278,-0.05392475053668022,0.18106167018413544
1751013757514683600,2.50368359375,0.0306327436119318,-0.0380411259829998,0.15726499259471893
1751013757524627700,2.513627685546875,0.037283722311258316,-0.017945710569620132,0.13009914755821228
1751013757534570800,2.52357080078125,0.040584709495306015,-0.0062616243958473206,0.10575572401285172
1751013757544513800,2.533513671875,0.03897509723901749,0.00618039770051837,0.07096924632787704
1751013757554457600,2.54345751953125,0.041912294924259186,0.010604973882436752,0.04001612588763237
1751013757564400600,2.553400634765625,0.046241797506809235,0.004078364931046963,0.023213444277644157
1751013757574344700,2.5633447265625,0.055454205721616745,-0.00072597770486027,0.027518710121512413
1751013757584287700,2.573287841796875,0.06650499254465103,-0.0070403325371444225,0.051298074424266815
1751013757594230500,2.58323046875,0.07636427879333496,-0.010632404126226902,0.07886525243520737
1751013757604174600,2.593174560546875,0.08703982830047607,-0.0041468082927167416,0.11306530237197876
1751013757614117600,2.60311767578125,0.10222410410642624,0.003614175831899047,0.13107919692993164
1751013757624061700,2.613061767578125,0.11517452448606491,0.02220197580754757,0.12988582253456116
1751013757634004500,2.62300439453125,0.11891360580921173,0.04158206284046173,0.1143026053905487
1751013757643947500,2.632947509765625,0.12235680222511292,0.05366935208439827,0.0767270028591156
1751013757653891800,2.642891845703125,0.12415950000286102,0.05399132892489433,0.032697759568691254
1751013757663835000,2.6528349609375,0.11931068450212479,0.042036667466163635,-0.014586132951080799
1751013757673778700,2.66277880859375,0.1139175146818161,0.019510850310325623,-0.06424769759178162
1751013757683721700,2.6727216796875,0.11019974201917648,0.002826679265126586,-0.10447847098112106
1751013757693664800,2.682664794921875,0.11340725421905518,-0.006115949247032404,-0.12052614986896515
1751013757703608800,2.69260888671875,0.12411954998970032,-0.017492175102233887,-0.10962529480457306
1751013757713552000,2.7025517578125,0.1391935795545578,-0.03603842854499817,-0.07925114780664444
1751013757723494700,2.71249462890625,0.14800384640693665,-0.05180114507675171,-0.03759770840406418
1751013757733438700,2.722438720703125,0.1580791175365448,-0.05842948704957962,0.005909021943807602
1751013757743381800,2.7323818359375,0.16527791321277618,-0.06052140146493912,0.03640008717775345
1751013757753325800,2.742325927734375,0.16880233585834503,-0.05745317414402962,0.0416899211704731
1751013757763268600,2.7522685546875,0.16417376697063446,-0.04938672482967377,0.03527916222810745
1751013757773211600,2.762211669921875,0.15287743508815765,-0.039860863238573074,0.015207715332508087
1751013757783155700,2.77215576171875,0.1370374858379364,-0.026396719738841057,-0.012327772565186024
1751013757793098800,2.7820986328125,0.12441995739936829,-0.01495258416980505,-0.045405562967061996
1751013757803042800,2.792042724609375,0.11191481351852417,-0.0167361032217741,-0.06767172366380692
1751013757812985900,2.80198583984375,0.1039237380027771,-0.02984524704515934,-0.08090417087078094
1751013757822929000,2.811928955078125,0.09530148655176163,-0.0463310144841671,-0.07467610388994217
1751013757832873000,2.821873046875,0.08714102953672409,-0.05379611998796463,-0.06108519062399864
1751013757842816000,2.83181591796875,0.08860230445861816,-0.05794612318277359,-0.03418619930744171
1751013757852759800,2.841759765625,0.09361623972654343,-0.057427871972322464,0.01134187076240778
1751013757862702800,2.851702880859375,0.08984280377626419,-0.03719557076692581,0.04964345321059227
1751013757872646000,2.86164599609375,0.08867580443620682,-0.015909723937511444,0.07861704379320145
1751013757882589700,2.871589599609375,0.08799749612808228,0.012340822257101536,0.08761560171842575
1751013757892532700,2.88153271484375,0.09277600795030594,0.03436143696308136,0.08117607980966568
1751013757902475800,2.891475830078125,0.08859750628471375,0.05678711459040642,0.05294311046600342
1751013757912419800,2.901419921875,0.07485426962375641,0.07915207743644714,0.005684783682227135
1751013757922363000,2.91136279296875,0.06174805387854576,0.08679348230361938,-0.04681091383099556
1751013757932306700,2.921306640625,0.054063767194747925,0.08903959393501282,-0.08265253901481628
1751013757942249700,2.931249755859375,0.038242459297180176,0.08314255625009537,-0.08947475254535675
1751013757952192800,2.94119287109375,0.02484969049692154,0.06727677583694458,-0.07120466977357864
1751013757962136800,2.95113671875,0.0157102532684803,0.052204348146915436,-0.033363282680511475
1751013757972079900,2.961079833984375,0.012049205601215363,0.033364880830049515,0.008628908544778824
1751013757982023700,2.971023681640625,0.01332725677639246,0.015784289687871933,0.03880731761455536
1751013757991966700,2.980966796875,0.01465590763837099,0.010522415861487389,0.046250052750110626
1751013758001909800,2.99090966796875,0.019994746893644333,0.00452923821285367,0.0317147858440876
1751013758011853600,3.000853515625,0.01720508560538292,0.012467055581510067,-0.006317018065601587
1751013758021796600,3.010796630859375,0.01691426895558834,0.027760257944464684,-0.05658018961548805
1751013758031741000,3.020740966796875,0.023005982860922813,0.04000573977828026,-0.09611454606056213
1751013758041684000,3.03068408203125,0.024469124153256416,0.048220258206129074,-0.11436226218938828
1751013758051626800,3.040626708984375,0.03455238416790962,0.04181189462542534,-0.11694180220365524
1751013758061570800,3.05057080078125,0.038124483078718185,0.024331972002983093,-0.10369124263525009
1751013758071513900,3.060513916015625,0.04176449030637741,0.00950988195836544,-0.07950521260499954
1751013758081457000,3.070456787109375,0.03762487322092056,-0.013232181780040264,-0.05209942162036896
1751013758091401000,3.08040087890625,0.030295321717858315,-0.030548853799700737,-0.03152170777320862
1751013758101343700,3.09034375,0.01085744146257639,-0.03833860158920288,-0.017671138048171997
1751013758111287800,3.100287841796875,-0.0004498079069890082,-0.034501783549785614,-0.015400527976453304
1751013758121230800,3.11023095703125,-0.001820270554162562,-0.02028023824095726,-0.019898340106010437
1751013758131174000,3.120173828125,0.0032658344134688377,0.005066663958132267,-0.02388562448322773
1751013758141117700,3.13011767578125,0.013460681773722172,0.03285648301243782,-0.03789038956165314
1751013758151060700,3.140060791015625,0.027180487290024757,0.07101079076528549,-0.06181596219539642
1751013758161004800,3.1500048828125,0.03852715343236923,0.10896456986665726,-0.08744063228368759
1751013758170947800,3.15994775390625,0.03994714841246605,0.12274216115474701,-0.10419218242168427
1751013758180891000,3.169890869140625,0.02659565769135952,0.11980336904525757,-0.11027883738279343
1751013758190834700,3.179834716796875,0.007791077718138695,0.09474195539951324,-0.10522442311048508
1751013758200777700,3.18977783203125,-0.0016969662392511964,0.052021656185388565,-0.07908789068460464
1751013758210721800,3.1997216796875,-0.01124999113380909,-0.023255521431565285,-0.04531155526638031
1751013758220664800,3.209664794921875,-0.017432253807783127,-0.10099505633115768,0.012162922881543636
1751013758230608000,3.21960791015625,-0.003689276985824108,-0.15964744985103607,0.07782609015703201
1751013758240551700,3.2295517578125,0.015785088762640953,-0.1834217607975006,0.1277899146080017
1751013758250494700,3.23949462890625,0.03898787871003151,-0.1683858186006546,0.15440554916858673
1751013758260438800,3.249438720703125,0.05216759815812111,-0.13328269124031067,0.14947684109210968
1751013758270381600,3.259381591796875,0.08452021330595016,-0.06582242250442505,0.10629794001579285
1751013758280324600,3.26932470703125,0.15622635185718536,0.031441546976566315,0.06565411388874054
1751013758290269000,3.27926904296875,0.22936341166496277,0.12957316637039185,0.04267182946205139
1751013758300212000,3.2892119140625,0.26211684942245483,0.22813808917999268,0.04193173721432686
1751013758310155800,3.29915576171875,0.27040165662765503,0.24827611446380615,0.057794589549303055
1751013758320098800,3.309098876953125,0.2476433515548706,0.23277172446250916,0.07391763478517532
1751013758330041900,3.319041748046875,0.2141977846622467,0.22675618529319763,0.09435632824897766
1751013758339986000,3.32898583984375,0.17921662330627441,0.24926309287548065,0.09509748965501785
1751013758349929000,3.338928955078125,0.14743418991565704,0.28059571981430054,0.04194984585046768
1751013758359871700,3.348871826171875,0.1255912184715271,0.2807499170303345,-0.03990054503083229
1751013758369815800,3.35881591796875,0.10266859084367752,0.2662588357925415,-0.13045787811279297
1751013758379758800,3.3687587890625,0.059408999979496,0.24445182085037231,-0.23039166629314423
1751013758389703000,3.378702880859375,-0.053823016583919525,0.25059759616851807,-0.3963705003261566
1751013758399645700,3.388645751953125,-0.08959672600030899,0.12292352318763733,-0.4796060025691986
1751013758409588700,3.398588623046875,-0.07046138495206833,0.03283517807722092,-0.5056991577148438
1751013758419532800,3.40853271484375,-0.026793530210852623,-0.0020785972010344267,-0.48649853467941284
1751013758429475800,3.418475830078125,-0.005028847139328718,-0.033914558589458466,-0.47041118144989014
1751013758439419600,3.428419677734375,-0.02039794996380806,-0.04375280812382698,-0.4389358162879944
1751013758449362700,3.43836279296875,-0.039392679929733276,-0.030894000083208084,-0.3677990436553955
1751013758459305700,3.4483056640625,-0.0502900667488575,-0.0332929752767086,-0.27464380860328674
1751013758469249800,3.458249755859375,-0.05530906096100807,-0.07017509639263153,-0.1575177162885666
1751013758479192800,3.46819287109375,-0.06694840639829636,-0.06790980696678162,-0.05703558772802353
1751013758489136600,3.47813671875,-0.10170052945613861,-0.05203124135732651,0.015776565298438072
1751013758499079700,3.48807958984375,-0.13573625683784485,-0.048531584441661835,0.06478165835142136
1751013758509022700,3.498022705078125,-0.15482260286808014,-0.022305572405457497,0.09489961713552475
1751013758518967000,3.507967041015625,-0.14303624629974365,0.005255748517811298,0.10918161273002625
1751013758528909600,3.51790966796875,-0.12608176469802856,0.03296487405896187,0.09254670888185501
1751013758538852600,3.5278525390625,-0.10635120421648026,0.05837515741586685,0.04580637067556381
1751013758548797000,3.537796875,-0.07918856292963028,0.07665403187274933,-0.007819040678441525
1751013758558740000,3.547739990234375,-0.047628238797187805,0.09132618457078934,-0.04725060239434242
1751013758568683800,3.557683837890625,-0.029037777334451675,0.13764281570911407,-0.08808352053165436
1751013758578626800,3.567626708984375,-0.048957690596580505,0.18961013853549957,-0.1891385018825531
1751013758588569900,3.57756982421875,-0.04297889396548271,0.14314357936382294,-0.23866690695285797
1751013758598514000,3.587513916015625,-0.02743854932487011,0.1260356903076172,-0.22892320156097412
1751013758608457000,3.59745703125,-0.010616958141326904,0.112542524933815,-0.17991410195827484
1751013758618400800,3.60740087890625,0.0008247809601016343,0.08386507630348206,-0.1182001456618309
1751013758628343800,3.61734375,0.0020927118603140116,0.03761102631688118,-0.034685540944337845
1751013758638286800,3.627286865234375,-0.023015303537249565,0.005191832315176725,0.06945604085922241
1751013758648231000,3.63723095703125,-0.055574312806129456,-0.006058957893401384,0.17406633496284485
1751013758658173400,3.64717333984375,-0.09453236311674118,0.021213144063949585,0.23954947292804718
1751013758668117500,3.657117431640625,-0.11763449013233185,0.039259254932403564,0.26184147596359253
1751013758678060500,3.667060546875,-0.11661209911108017,0.07805485278367996,0.2524610161781311
1751013758688003300,3.67700341796875,-0.08511409163475037,0.12185905873775482,0.22574017941951752
1751013758697947400,3.686947509765625,-0.0784042626619339,0.15018311142921448,0.1269765943288803
1751013758707890400,3.696890380859375,-0.052490103989839554,0.11324586719274521,0.013517406769096851
1751013758717834500,3.70683447265625,-0.02618499845266342,0.09916679561138153,-0.08564939349889755
1751013758727777500,3.716777587890625,0.000770452490542084,0.08973734080791473,-0.16506512463092804
1751013758737720600,3.726720458984375,0.008725314401090145,0.06342877447605133,-0.20314565300941467
1751013758747664400,3.736664306640625,0.000024767397917457856,0.03617584705352783,-0.2082999348640442
1751013758757607400,3.746607421875,-0.012925651855766773,0.013936588540673256,-0.17436806857585907
1751013758767551500,3.756551513671875,-0.021257618442177773,-0.017617342993617058,-0.12423886358737946
1751013758777494500,3.76649462890625,-0.02412291243672371,-0.05421130731701851,-0.06505889445543289
1751013758787437300,3.776437255859375,-0.020952953025698662,-0.07162438333034515,-0.011539476923644543
1751013758797381400,3.78638134765625,-0.018189655616879463,-0.08458998799324036,0.02634931541979313
1751013758807324400,3.796324462890625,-0.021253623068332672,-0.10192076861858368,0.05362381413578987
1751013758817267500,3.806267333984375,-0.0270148403942585,-0.10642790794372559,0.07696907967329025
1751013758827211300,3.816211181640625,-0.0402614027261734,-0.12209554761648178,0.08797352761030197
1751013758837154300,3.826154296875,-0.06942994147539139,-0.13785693049430847,0.08521316200494766
1751013758847098400,3.836098388671875,-0.10712085664272308,-0.1573859006166458,0.058810584247112274
1751013758857041400,3.84604150390625,-0.15114344656467438,-0.15694621205329895,-0.0007677893154323101
1751013758866984400,3.855984375,-0.19119206070899963,-0.1429736614227295,-0.07946392893791199
1751013758876928300,3.86592822265625,-0.21593016386032104,-0.12450145184993744,-0.15572088956832886
1751013758886871300,3.875871337890625,-0.22877192497253418,-0.10396687686443329,-0.21709316968917847
1751013758896815600,3.885815673828125,-0.22820867598056793,-0.09202739596366882,-0.24218200147151947
1751013758906758400,3.89575830078125,-0.2128898948431015,-0.07213198393583298,-0.2251843810081482
1751013758916701400,3.905701416015625,-0.18426518142223358,-0.04248221218585968,-0.17086255550384521
1751013758926645500,3.9156455078125,-0.15633021295070648,-0.04905596002936363,-0.09730710834264755
1751013758936588500,3.925588623046875,-0.12922829389572144,-0.10354743152856827,0.00256409146822989
1751013758946532600,3.93553271484375,-0.10887695103883743,-0.15256556868553162,0.10505104809999466
1751013758956475400,3.945475341796875,-0.08450769633054733,-0.1601680964231491,0.19006101787090302
1751013758966418400,3.95541845703125,-0.06420162320137024,-0.15948979556560516,0.22629491984844208
1751013758976362500,3.965362548828125,-0.05907690152525902,-0.16148076951503754,0.22547999024391174
1751013758986305500,3.975305419921875,-0.0625041276216507,-0.1477164924144745,0.1991913914680481
1751013758996249300,3.985249267578125,-0.05952644348144531,-0.1369951367378235,0.1721286177635193
1751013759006192400,3.9951923828125,-0.043111782521009445,-0.11723421514034271,0.14342001080513
1751013759016135400,4.005135498046875,-0.020662667229771614,-0.08692078292369843,0.11908750981092453
1751013759026079500,4.01507958984375,0.007952465675771236,-0.055874183773994446,0.07478422671556473
1751013759036022500,4.0250224609375,0.014184262603521347,-0.018672753125429153,0.015605857595801353
1751013759045966300,4.03496630859375,0.005607019178569317,0.013939783908426762,-0.07086271792650223
1751013759055909400,4.044909423828125,-0.0010639328975230455,0.04640771076083183,-0.15914438664913177
1751013759065852400,4.054852294921875,0.002665824256837368,0.07066032290458679,-0.21936483681201935
1751013759075796500,4.06479638671875,0.00757935643196106,0.09166813641786575,-0.23665888607501984
1751013759085739300,4.0747392578125,0.017966216430068016,0.09908370673656464,-0.21047760546207428
1751013759095683300,4.084683349609375,0.025074992328882217,0.10093140602111816,-0.15604180097579956
1751013759105626400,4.09462646484375,0.043849747627973557,0.09243432432413101,-0.08258302509784698
1751013759115569400,4.1045693359375,0.0538744181394577,0.09009553492069244,-0.008046741597354412
1751013759125513200,4.11451318359375,0.051737230271101,0.08464804291725159,0.048759281635284424
1751013759135456300,4.124456298828125,0.02617967315018177,0.08868592977523804,0.08627550303936005
1751013759145399300,4.1343994140625,-0.022533804178237915,0.09864348918199539,0.10259588062763214
1751013759155343600,4.144343505859375,-0.10099798440933228,0.08190552145242691,0.09884694963693619
1751013759165286400,4.154286376953125,-0.18872863054275513,0.0314178429543972,0.11158138513565063
1751013759175230500,4.16423046875,-0.24848304688930511,-0.026260899379849434,0.14544880390167236
1751013759185173500,4.174173583984375,-0.25635161995887756,-0.07163823395967484,0.18855632841587067
1751013759195116500,4.184116455078125,-0.2234157770872116,-0.0942135825753212,0.20848876237869263
1751013759205060600,4.194060546875,-0.17049743235111237,-0.07769692689180374,0.18673846125602722
1751013759215003400,4.20400341796875,-0.10354476422071457,-0.03485412150621414,0.13759461045265198
1751013759224947500,4.213947509765625,-0.03713511675596237,0.005210208240896463,0.06746985763311386
1751013759234890500,4.223890380859375,0.021770808845758438,0.035359323024749756,-0.003914314322173595
1751013759244833500,4.23383349609375,0.06106681749224663,0.061287060379981995,-0.05842123180627823
1751013759254777300,4.24377734375,0.06806720048189163,0.06873378902673721,-0.09406124800443649
1751013759264720400,4.253720458984375,0.06142900511622429,0.06519045680761337,-0.10624068230390549
1751013759274664400,4.26366455078125,0.04939551278948784,0.04086221009492874,-0.09288253635168076
1751013759284607500,4.273607421875,0.0394294299185276,-0.002313754288479686,-0.061040185391902924
1751013759294550500,4.283550537109375,0.027700869366526604,-0.04898565262556076,-0.01185186579823494
1751013759304494300,4.293494384765625,0.02521960251033306,-0.08829018473625183,0.04175170883536339
1751013759314437400,4.303437255859375,0.02586914785206318,-0.11649066209793091,0.0898614451289177
1751013759324381400,4.31338134765625,0.023611320182681084,-0.14098241925239563,0.12837927043437958
1751013759334324500,4.323324462890625,0.030470291152596474,-0.14845338463783264,0.15138818323612213
1751013759344267300,4.333267333984375,0.03822328522801399,-0.15501195192337036,0.1695927530527115
1751013759354211300,4.34321142578125,0.040275249630212784,-0.1715880036354065,0.18598878383636475
1751013759364154400,4.353154296875,0.043786630034446716,-0.20072858035564423,0.19466136395931244
1751013759374098400,4.363098388671875,0.024889104068279266,-0.22181442379951477,0.19125597178936005
1751013759384041200,4.373041259765625,-0.012886770069599152,-0.21521244943141937,0.16150100529193878
1751013759393984300,4.382984375,-0.04794622212648392,-0.1620059460401535,0.12446016818284988
1751013759403928600,4.392928466796875,-0.05631813406944275,-0.10894858837127686,0.07544548809528351
1751013759413871600,4.40287158203125,-0.033073265105485916,-0.05716581642627716,0.035165444016456604
1751013759423815400,4.4128154296875,0.021685320883989334,-0.013793842867016792,0.008221178315579891
1751013759433758500,4.422758544921875,0.0667758360505104,0.019896209239959717,0.00012090751260984689
1751013759443701500,4.432701416015625,0.09628339111804962,0.053407300263643265,-0.005858954507857561
1751013759453645600,4.4426455078125,0.09930341690778732,0.0861189067363739,-0.02666063979268074
1751013759463588400,4.45258837890625,0.09357202798128128,0.12100552022457123,-0.05595434457063675
1751013759473532400,4.462532470703125,0.09037970006465912,0.15922747552394867,-0.10325075685977936
1751013759483475500,4.472475341796875,0.08559905737638474,0.22555668652057648,-0.1609388142824173
1751013759493418500,4.48241845703125,0.08272124826908112,0.3124617636203766,-0.2529933750629425
1751013759503362300,4.4923623046875,0.09375205636024475,0.361894816160202,-0.3570433557033539
1751013759513305300,4.502305419921875,0.11256622523069382,0.38152259588241577,-0.43360576033592224
1751013759523249400,4.51224951171875,0.11981242150068283,0.3613851070404053,-0.4489961862564087
1751013759533192400,4.5221923828125,0.11001572012901306,0.3165779411792755,-0.4069749414920807
1751013759543135500,4.532135498046875,0.08301126211881638,0.2360796481370926,-0.3223239779472351
1751013759553079300,4.542079345703125,0.04896461218595505,0.14657585322856903,-0.21690647304058075
1751013759563022300,4.552022216796875,0.02251622825860977,0.07439220696687698,-0.10721220821142197
1751013759572966400,4.56196630859375,0.018568091094493866,0.02503797598183155,-0.016501212492585182
1751013759582909400,4.571909423828125,0.027574902400374413,-0.007492537144571543,0.044989313930273056
1751013759592852500,4.5818525390625,0.03734390810132027,-0.02732216753065586,0.07856005430221558
1751013759602796300,4.59179638671875,0.03528076037764549,-0.04448437690734863,0.08799483627080917
1751013759612739300,4.6017392578125,0.028856681659817696,-0.04781892150640488,0.08223388344049454
1751013759622683600,4.61168359375,0.014577344991266727,-0.03965872898697853,0.07581167668104172
1751013759632626400,4.62162646484375,0.003090598387643695,-0.02857332117855549,0.05998929962515831
1751013759642569200,4.6315693359375,-0.01775342971086502,-0.021134046837687492,0.02707076631486416
1751013759652517400,4.641517333984375,-0.04024595767259598,-0.024462731555104256,-0.025712287053465843
1751013759662460400,4.65146044921875,-0.06771539896726608,-0.03551138937473297,-0.09337522089481354
1751013759672403500,4.661403564453125,-0.0921459048986435,-0.036672793328762054,-0.16283844411373138
1751013759682347500,4.671347412109375,-0.08726300299167633,-0.02906334213912487,-0.2120177149772644
1751013759692290300,4.681290283203125,-0.07600395381450653,-0.003925499506294727,-0.2350897490978241
1751013759702234600,4.691234619140625,-0.050989679992198944,0.021856296807527542,-0.2312057912349701
1751013759712177400,4.701177490234375,-0.03614948317408562,0.05005943775177002,-0.20900994539260864
1751013759722121500,4.71112158203125,-0.09789620339870453,0.12392407655715942,-0.2106485813856125
1751013759732064500,4.721064453125,-0.13264726102352142,0.13831686973571777,-0.2289562225341797
1751013759742007600,4.731007568359375,-0.12587803602218628,0.14870958030223846,-0.22824329137802124
1751013759751951400,4.740951416015625,-0.06262103468179703,0.1598415970802307,-0.2141927182674408
1751013759761894400,4.750894287109375,0.00009560748003423214,0.13546514511108398,-0.1778525561094284
1751013759771837400,4.76083740234375,0.05705582723021507,0.1152685359120369,-0.13332955539226532
1751013759781781500,4.770781494140625,0.08234307914972305,0.08878552913665771,-0.0765504315495491
1751013759791724500,4.780724609375,0.08894238620996475,0.06757691502571106,-0.017074590548872948
1751013759801668400,4.79066845703125,0.08229167759418488,0.0507340170443058,0.03489699587225914
1751013759811611400,4.800611328125,0.0763469710946083,0.03550366684794426,0.06306285411119461
1751013759821554400,4.810554443359375,0.07930520921945572,0.021023793146014214,0.06539445370435715
1751013759831498500,4.82049853515625,0.08809390664100647,0.024149810895323753,0.0467616468667984
1751013759841441300,4.830441162109375,0.09195682406425476,0.029443109408020973,0.021335914731025696
1751013759851385300,4.84038525390625,0.08505097776651382,0.032702818512916565,-0.008314921520650387
1751013759861328400,4.850328369140625,0.06174245849251747,0.02840341255068779,-0.026606576517224312
1751013759871271400,4.860271484375,0.036695696413517,0.019904732704162598,-0.032880719751119614
1751013759881215200,4.87021533203125,0.01830071024596691,0.014207964763045311,-0.03250547870993614
1751013759891158300,4.880158203125,0.008816927671432495,0.014425810426473618,-0.01804318279027939
1751013759901102300,4.890102294921875,0.016530506312847137,0.011477159336209297,-0.003740143496543169
1751013759911045400,4.90004541015625,0.02929637022316456,0.01437973789870739,0.017654094845056534
1751013759920988400,4.909988525390625,0.05426989495754242,0.019752666354179382,0.036807816475629807
1751013759930932500,4.919932373046875,0.07400232553482056,0.025422802194952965,0.05223364382982254
1751013759940875500,4.92987548828125,0.08652157336473465,0.0541045144200325,0.06291504949331284
1751013759950819600,4.939819580078125,0.09379573166370392,0.1130349412560463,0.06775534152984619
1751013759960762600,4.9497626953125,0.1020406112074852,0.16158942878246307,0.06095949187874794
1751013759970705400,4.959705322265625,0.10252317786216736,0.1752714216709137,0.029824208468198776
1751013759980649500,4.9696494140625,0.09471745043992996,0.16428934037685394,-0.010296313092112541
1751013759990592500,4.979592529296875,0.0667651817202568,0.14352573454380035,-0.05055825039744377
1751013760000536300,4.989536376953125,0.02467312291264534,0.10823912173509598,-0.07770118862390518
1751013760010479400,4.999479248046875,-0.01264016143977642,0.05878688395023346,-0.08761746436357498
1751013760020422400,5.00942236328125,-0.03959028795361519,0.013729128055274487,-0.06567221879959106
1751013760030366500,5.019366455078125,-0.04709986597299576,-0.012547750025987625,-0.029618877917528152
1751013760040309500,5.0293095703125,-0.03639182820916176,-0.025075791403651237,0.01877262257039547
1751013760050253300,5.03925341796875,-0.01005343347787857,-0.03286260738968849,0.061593856662511826
1751013760060196400,5.0491962890625,0.024085894227027893,-0.024178041145205498,0.09631241858005524
1751013760070139400,5.059139404296875,0.05668485164642334,-0.017017599195241928,0.12136584520339966
1751013760080083500,5.06908349609375,0.08159738779067993,-0.021289309486746788,0.11893943697214127
1751013760090026500,5.079026611328125,0.08699695020914078,-0.03470897674560547,0.09460800141096115
1751013760099970300,5.08897021484375,0.07251707464456558,-0.057383399456739426,0.05050871521234512
1751013760109913300,5.098913330078125,0.03520059958100319,-0.09964536875486374,0.006074670236557722
1751013760119856400,5.1088564453125,-0.01709376648068428,-0.15279939770698547,-0.04910096526145935
1751013760129800200,5.11880029296875,-0.08449411392211914,-0.21690568327903748,-0.10367526113986969
1751013760139743200,5.1287431640625,-0.15640771389007568,-0.2700738310813904,-0.13695332407951355
1751013760149687600,5.1386875,-0.1982204169034958,-0.29812222719192505,-0.1344779133796692
1751013760159630600,5.148630615234375,-0.20136666297912598,-0.2743031978607178,-0.11956527829170227
1751013760169573400,5.158573486328125,-0.1680891364812851,-0.19515910744667053,-0.10131170600652695
1751013760179517400,5.168517333984375,-0.08998581767082214,-0.08589573204517365,-0.08563447743654251
1751013760189460500,5.17846044921875,0.012715262360870838,0.023241672664880753,-0.08275746554136276
1751013760199404500,5.188404541015625,0.10445184260606766,0.10249628126621246,-0.08417613059282303
1751013760209347600,5.19834765625,0.16913177073001862,0.14535000920295715,-0.09529749304056168
1751013760219290400,5.208290283203125,0.2043752372264862,0.15854942798614502,-0.09484901279211044
1751013760229234400,5.218234375,0.21332745254039764,0.14921079576015472,-0.09261328727006912
1751013760239177500,5.228177490234375,0.20074774324893951,0.1131497249007225,-0.095965676009655
1751013760249121500,5.23812158203125,0.15816886723041534,0.0666128471493721,-0.11667681485414505
1751013760259064300,5.248064208984375,0.0760849118232727,0.03383253142237663,-0.16258491575717926
1751013760269007400,5.25800732421875,-0.018915101885795593,0.03376328945159912,-0.21739037334918976
1751013760278951400,5.267951416015625,-0.0923088937997818,0.04187767580151558,-0.2591729760169983
1751013760288894500,5.27789453125,-0.13606302440166473,0.04747777059674263,-0.2731415331363678
1751013760298838300,5.28783837890625,-0.13117852807044983,0.06228521093726158,-0.25029265880584717
1751013760308781300,5.29778125,-0.09281808882951736,0.08014703541994095,-0.2043539434671402
1751013760318724400,5.307724365234375,-0.026427345350384712,0.09673532843589783,-0.15210671722888947
1751013760328668400,5.31766845703125,0.03463653847575188,0.09488336741924286,-0.09410892426967621
1751013760338611500,5.327611572265625,0.07484787702560425,0.09364286810159683,-0.031129423528909683
1751013760348555300,5.33755517578125,0.09170195460319519,0.11841186136007309,0.0108284130692482
1751013760358498300,5.347498291015625,0.09680457413196564,0.14960840344429016,0.024325579404830933
1751013760368441300,5.35744140625,0.09592599421739578,0.1843900829553604,-0.0035151063930243254
1751013760378385400,5.367385498046875,0.10181477665901184,0.22929523885250092,-0.041660893708467484
1751013760388328200,5.377328125,0.12457308918237686,0.2866637110710144,-0.09960595518350601
1751013760398272500,5.3872724609375,0.15271657705307007,0.3213186264038086,-0.15409183502197266
1751013760408215600,5.397215576171875,0.1712295413017273,0.32131412625312805,-0.19169114530086517
1751013760418158600,5.40715869140625,0.1720375418663025,0.3091623783111572,-0.198337584733963
1751013760428102400,5.417102294921875,0.16608057916164398,0.2909141182899475,-0.17037546634674072
1751013760438045400,5.42704541015625,0.1433398574590683,0.2626510560512543,-0.11074995249509811
1751013760447989500,5.436989501953125,0.10962636023759842,0.22730877995491028,-0.03268710523843765
1751013760457932500,5.4469326171875,0.07868415862321854,0.1824374496936798,0.05491624400019646
1751013760467875600,5.45687548828125,0.046730753034353256,0.13772697746753693,0.1364811509847641
1751013760477819400,5.4668193359375,0.024820661172270775,0.08350367844104767,0.20151446759700775
1751013760487762400,5.476762451171875,0.010180732235312462,0.022531142458319664,0.24209092557430267
1751013760497706500,5.48670654296875,0.003179814200848341,-0.019043732434511185,0.25205114483833313
1751013760507649500,5.4966494140625,0.006295446306467056,-0.042702723294496536,0.24954910576343536
1751013760517592300,5.50659228515625,0.01954920031130314,-0.044258806854486465,0.21268297731876373
1751013760527536400,5.516536376953125,0.028780516237020493,-0.02742842771112919,0.16157078742980957
1751013760537479400,5.5264794921875,0.03880518674850464,-0.008438225835561752,0.09632467478513718
1751013760547423500,5.536423583984375,0.045278798788785934,0.015931295230984688,0.04174158722162247
1751013760557366300,5.5463662109375,0.06206044182181358,0.04934757575392723,0.005939115304499865
1751013760567309300,5.556309326171875,0.08083146810531616,0.07504654675722122,-0.010460363700985909
1751013760577253400,5.56625341796875,0.10283343493938446,0.06946003437042236,-0.011841479688882828
1751013760587196400,5.576196533203125,0.11974717676639557,0.042505115270614624,-0.00021225394448265433
1751013760597140200,5.58614013671875,0.12165798991918564,0.017070330679416656,0.021586785092949867
1751013760607083300,5.596083251953125,0.10875311493873596,-0.0034879420418292284,0.03365623205900192
1751013760617026300,5.6060263671875,0.08874425292015076,-0.010898986831307411,0.027535486966371536
1751013760626970600,5.615970703125,0.06850741803646088,-0.011117366142570972,0.009550628252327442
1751013760636913700,5.62591357421875,0.05168796330690384,-0.007523962762206793,-0.009642506949603558
1751013760646857500,5.635857421875,0.040709346532821655,-0.008770588785409927,-0.018136393278837204
1751013760656796000,5.6457958984375,0.03750662878155708,-0.01372167095541954,-0.01570785604417324
1751013760666739000,5.655739013671875,0.03851170465350151,-0.016658872365951538,0.012711800634860992
1751013760676683000,5.66568310546875,0.04969405382871628,-0.012658803723752499,0.0492306612432003
1751013760686626000,5.6756259765625,0.060145627707242966,-0.003525758860632777,0.08082214742898941
1751013760696569900,5.68556982421875,0.0739743560552597,0.009216668084263802,0.08608268946409225
1751013760706513000,5.695512939453125,0.0742872804403305,0.018729479983448982,0.07345211505889893
1751013760716456000,5.7054560546875,0.07418634742498398,0.030232470482587814,0.06030355393886566
1751013760726400000,5.71539990234375,0.07926712185144424,0.0326538160443306,0.05847156420350075
1751013760736342800,5.7253427734375,0.08144798874855042,0.025779666379094124,0.05968356877565384
1751013760746286800,5.735286865234375,0.07401004433631897,0.01914226822555065,0.0613296702504158
1751013760756230000,5.74522998046875,0.06061834096908569,0.019291406497359276,0.06005960702896118
1751013760766173000,5.7551728515625,0.047208525240421295,0.036326583474874496,0.052983056753873825
1751013760776116700,5.76511669921875,0.027217505499720573,0.04806526377797127,0.04376452416181564
1751013760786059800,5.775059814453125,0.007655789144337177,0.045147769153118134,0.02840527519583702
1751013760796003800,5.78500390625,-0.014052968472242355,0.04989299178123474,0.009619337506592274
1751013760805947000,5.79494677734375,-0.026432938873767853,0.07609529793262482,-0.015813050791621208
1751013760815890000,5.804889892578125,-0.030342992395162582,0.09230143576860428,-0.06089610606431961
1751013760825834000,5.814833984375,-0.026125876232981682,0.08487467467784882,-0.11722809076309204
1751013760835776800,5.82477685546875,-0.015113705769181252,0.07898030430078506,-0.1518835425376892
1751013760845721000,5.83472119140625,-0.0004980111261829734,0.08619746565818787,-0.14823180437088013
1751013760855664000,5.8446640625,0.016521984711289406,0.08836235105991364,-0.11142266541719437
1751013760865607000,5.85460693359375,0.03273637592792511,0.08249860256910324,-0.061051901429891586
1751013760875551000,5.864551025390625,0.04020680859684944,0.07339245826005936,-0.0014479606179520488
1751013760885494000,5.874493896484375,0.04758722707629204,0.05595061555504799,0.05264616757631302
1751013760895438000,5.88443798828125,0.047562457621097565,0.030185332521796227,0.09777902066707611
1751013760905380900,5.894380859375,0.038476284593343735,-0.0008335694437846541,0.1260727196931839
1751013760915324000,5.904323974609375,0.02538605034351349,-0.021747905761003494,0.14011555910110474
1751013760925268000,5.91426806640625,0.021766813471913338,-0.0432145819067955,0.140619695186615
1751013760935211000,5.9242109375,0.014658038504421711,-0.05783373862504959,0.1323617696762085
1751013760945154800,5.93415478515625,0.012427374720573425,-0.06505942344665527,0.11585629731416702
1751013760955097900,5.944097900390625,0.01577097363770008,-0.06922461092472076,0.10572057217359543
1751013760965041000,5.954041015625,0.01944640278816223,-0.06560724228620529,0.10209707170724869
1751013760974985000,5.96398486328125,0.01745329238474369,-0.053997721523046494,0.1017489954829216
1751013760984928000,5.973927978515625,0.01607617177069187,-0.040648359805345535,0.09960142523050308
1751013760994871800,5.983871826171875,0.017659952864050865,-0.021400630474090576,0.09375685453414917
1751013761004814800,5.99381494140625,0.03136457875370979,0.009791111573576927,0.08214999735355377
1751013761014758000,6.0037578125,0.05019339546561241,0.03856150805950165,0.06764668971300125
1751013761024702000,6.013701904296875,0.06519284844398499,0.04603087529540062,0.04213733226060867
1751013761034644700,6.023644775390625,0.07103343307971954,0.032648757100105286,0.01919340156018734
1751013761044588800,6.0335888671875,0.06415608525276184,0.009523996151983738,0.01005130261182785
1751013761054531800,6.04353173828125,0.05522863566875458,-0.0019542276859283447,0.023614514619112015
1751013761064475000,6.053474853515625,0.05434633046388626,-0.0035302862524986267,0.051836300641298294
1751013761074419000,6.0634189453125,0.05307972803711891,-0.00026312030968256295,0.0918702706694603
1751013761084362000,6.073362060546875,0.04832705110311508,-0.014603443443775177,0.13187627494335175
1751013761094306000,6.08330615234375,0.038708511739969254,-0.04331178590655327,0.1565920114517212
1751013761104249000,6.0932490234375,0.015359515324234962,-0.08232736587524414,0.17799903452396393
1751013761114192100,6.103192138671875,-0.008897887542843819,-0.1252729594707489,0.1859315186738968
1751013761124136000,6.113135986328125,-0.03586159273982048,-0.15189605951309204,0.17098160088062286
1751013761134079000,6.123078857421875,-0.03871357440948486,-0.13962553441524506,0.13493837416172028
1751013761144023000,6.13302294921875,-0.018880747258663177,-0.11326024681329727,0.08355002105236053
1751013761153965800,6.1429658203125,0.01810816302895546,-0.06991995871067047,0.0238784346729517
1751013761163908900,6.152908935546875,0.048766475170850754,-0.017718011513352394,-0.03347273916006088
1751013761173853000,6.16285302734375,0.06747811287641525,0.022583073005080223,-0.0889652892947197
1751013761183796000,6.1727958984375,0.06899184733629227,0.053773216903209686,-0.13775573670864105
1751013761193739000,6.182739013671875,0.06145244091749191,0.07241880893707275,-0.16056890785694122
1751013761203682800,6.192682861328125,0.05127384141087532,0.08056595176458359,-0.15888258814811707
1751013761213625900,6.2026259765625,0.04218234121799469,0.07858455926179886,-0.13238146901130676
1751013761223570000,6.21256982421875,0.037579331547021866,0.06268681585788727,-0.09497924149036407
1751013761233513000,6.222512939453125,0.036613404750823975,0.03688957542181015,-0.04098604992032051
1751013761243456800,6.232456787109375,0.04001639038324356,0.008248874917626381,0.021935658529400826
1751013761253399800,6.24239990234375,0.042697131633758545,-0.025303225964307785,0.07644710689783096
1751013761263342800,6.2523427734375,0.038898397237062454,-0.04795234650373459,0.12092988193035126
1751013761273287000,6.262286865234375,0.030491862446069717,-0.06419683247804642,0.1452472060918808
1751013761283230000,6.27222998046875,0.014602112583816051,-0.0639030858874321,0.14016616344451904
1751013761293174000,6.282174072265625,0.0006559365428984165,-0.06509724259376526,0.11757855862379074
1751013761303117000,6.292116943359375,-0.018126273527741432,-0.06980224698781967,0.088063545525074
1751013761313059800,6.302059814453125,-0.04121188446879387,-0.06047186627984047,0.046732351183891296
1751013761323004000,6.31200390625,-0.06079650670289993,-0.031071100383996964,-0.005873868241906166
1751013761332947000,6.321947021484375,-0.06998041272163391,-0.00777509855106473,-0.06385434418916702
1751013761342891000,6.33189111328125,-0.059718456119298935,0.020107664167881012,-0.10750169306993484
1751013761352834000,6.341833984375,-0.0388890765607357,0.049732670187950134,-0.12431582808494568
1751013761362777000,6.351777099609375,-0.01714196801185608,0.06667490303516388,-0.12421702593564987
1751013761372721000,6.361720947265625,-0.0009933591354638338,0.07102597504854202,-0.10452321171760559
1751013761382664000,6.371663818359375,0.004953479394316673,0.06540963053703308,-0.0712110623717308
1751013761392608000,6.38160791015625,0.0015592807903885841,0.04898405447602272,-0.02635357715189457
1751013761402551000,6.391551025390625,-0.0009038768475875258,0.02815414033830166,0.025852901861071587
1751013761412493800,6.401493896484375,0.007195594720542431,0.012495552189648151,0.06570710986852646
1751013761422438000,6.41143798828125,0.009178051725029945,-0.0027265443932265043,0.08642783015966415
1751013761432381000,6.421380859375,0.013365340419113636,-0.009660882875323296,0.08539026230573654
1751013761442325000,6.431324951171875,0.011421498842537403,-0.008613727986812592,0.06818225234746933
1751013761452267800,6.441267822265625,0.00805979035794735,0.0006356965750455856,0.04230457916855812
1751013761462210800,6.4512109375,0.011050254106521606,0.013287043198943138,0.003923634998500347
1751013761472155000,6.46115478515625,0.010381268337368965,0.023066703230142593,-0.023934626951813698
1751013761482098000,6.471097900390625,0.012898221611976624,0.026641197502613068,-0.05098169296979904
1751013761492041700,6.481041748046875,0.011071293614804745,0.025202026590704918,-0.054182812571525574
1751013761501984800,6.49098486328125,0.01353684812784195,0.01926450803875923,-0.040161266922950745
1751013761511927800,6.500927734375,0.016592558473348618,0.013638047501444817,-0.012828446924686432
1751013761521872000,6.510871826171875,0.021405689418315887,0.007587079424411058,0.01564181037247181
1751013761531815000,6.52081494140625,0.0210629403591156,0.006482400465756655,0.02750059962272644
1751013761541759000,6.530759033203125,0.023518908768892288,0.012500878423452377,0.024023843929171562
1751013761551702000,6.540701904296875,0.022906115278601646,0.024938372895121574,0.009406019002199173
1751013761561645000,6.55064501953125,0.026814304292201996,0.03137070685625076,-0.011569038033485413
1751013761571589000,6.560589111328125,0.026283269748091698,0.024357536807656288,-0.025432921946048737
1751013761581532000,6.570531982421875,0.029165875166654587,0.021997177973389626,-0.03008120320737362
1751013761591476000,6.58047607421875,0.03347007557749748,0.022427810356020927,-0.026343723759055138
1751013761601419000,6.5904189453125,0.034178476780653,0.024507740512490273,-0.01992284134030342
1751013761611362000,6.600362060546875,0.03193902596831322,0.015576829202473164,-0.012293417938053608
1751013761621305900,6.610305908203125,0.02022644132375717,0.005037901923060417,-0.013468137942254543
1751013761631249000,6.620248779296875,-0.009046225808560848,-0.016449812799692154,-0.017792046070098877
1751013761641193000,6.63019287109375,-0.03456144034862518,-0.03652472048997879,-0.017479658126831055
1751013761651136000,6.640135986328125,-0.04932600259780884,-0.03959454596042633,-0.014023673720657825
1751013761661079600,6.65007958984375,-0.05450744926929474,-0.0460902638733387,-0.0018293253378942609
1751013761671023600,6.660023681640625,-0.0413849912583828,-0.034208837896585464,0.015561383217573166
1751013761680966700,6.669966552734375,-0.018160894513130188,-0.0015188007382676005,0.044615671038627625
1751013761690909700,6.67990966796875,0.006673349067568779,0.030891336500644684,0.06670019775629044
1751013761700853500,6.689853515625,0.026942934840917587,0.05294870212674141,0.07552751153707504
1751013761710796500,6.699796630859375,0.04279220476746559,0.06628261506557465,0.07618851214647293
1751013761720740600,6.70974072265625,0.0501696951687336,0.07315996289253235,0.060109943151474
1751013761730683600,6.71968359375,0.048459943383932114,0.07599196583032608,0.035473570227622986
1751013761740626700,6.729626708984375,0.04198446869850159,0.06494544446468353,0.009183644317090511
1751013761750570500,6.739570556640625,0.03579661250114441,0.044685445725917816,-0.0065468489192426205
1751013761760513500,6.749513427734375,0.0344993881881237,0.025118935853242874,-0.006399842444807291
1751013761770457600,6.75945751953125,0.02635970152914524,0.0018018947448581457,-0.0001424791116733104
1751013761780400600,6.769400634765625,0.018192585557699203,-0.006286125164479017,0.01372433453798294
1751013761790344400,6.779344482421875,0.01077062264084816,-0.007053382229059935,0.03298058733344078
1751013761800287500,6.78928759765625,0.007035805378109217,0.005273325368762016,0.04940003901720047
1751013761810230500,6.79923046875,0.014249509200453758,0.013653494417667389,0.06284261494874954
1751013761820174600,6.809174560546875,0.0216528307646513,0.025240108370780945,0.06052060052752495
1751013761830117600,6.81911767578125,0.03719637170433998,0.02960210107266903,0.04496534541249275
1751013761840061700,6.829061767578125,0.044389303773641586,0.03497236594557762,0.022903451696038246
1751013761850004700,6.839004638671875,0.0431450717151165,0.03605920076370239,-0.0010255833622068167
1751013761859947800,6.84894775390625,0.03720169514417648,0.01877528615295887,-0.02858264185488224
1751013761869891600,6.8588916015625,0.02971928007900715,-0.007947138510644436,-0.042569030076265335
1751013761879834600,6.868834716796875,0.010524014011025429,-0.03225993365049362,-0.04559890925884247
1751013761889778700,6.87877880859375,-0.007449394091963768,-0.052256278693675995,-0.043171972036361694
1751013761899721700,6.8887216796875,-0.02924630232155323,-0.06827892363071442,-0.04054928943514824
1751013761909664500,6.89866455078125,-0.04212161898612976,-0.07005897909402847,-0.03635694086551666
1751013761919608600,6.908608642578125,-0.041546378284692764,-0.055511463433504105,-0.026313895359635353
1751013761929551600,6.918551513671875,-0.03068201243877411,-0.029864687472581863,-0.015353656373918056
1751013761939495700,6.92849560546875,-0.011740545742213726,-0.011475561186671257,-0.016017582267522812
1751013761949438500,6.9384384765625,0.0125424237921834,0.021563349291682243,-0.016925720497965813
1751013761959381500,6.948381591796875,0.03652099147439003,0.0539894662797451,-0.031502000987529755
1751013761969325600,6.95832568359375,0.06424476951360703,0.0662890076637268,-0.05493222549557686
1751013761979268600,6.9682685546875,0.0821385458111763,0.06136242672801018,-0.06999879330396652
1751013761989212400,6.97821240234375,0.08235453069210052,0.04459409788250923,-0.06292836368083954
1751013761999155500,6.988155517578125,0.05729631334543228,0.014673218131065369,-0.03569328412413597
1751013762009098500,6.998098388671875,0.0248401015996933,-0.0016884441720321774,-0.0030005834996700287
1751013762019042600,7.00804248046875,0.013436180539429188,-0.0073319487273693085,0.02767077647149563
1751013762028985600,7.017985595703125,0.01949566975235939,-0.0032296155113726854,0.04507772997021675
1751013762038929700,7.0279296875,0.037999313324689865,0.010967163369059563,0.04842852056026459
1751013762048872400,7.03787255859375,0.054786015301942825,0.03386502340435982,0.040828388184309006
1751013762058815500,7.0478154296875,0.06613294780254364,0.05571173131465912,0.022951388731598854
1751013762068759600,7.057759521484375,0.07525879889726639,0.06727863848209381,-0.004433630499988794
1751013762078702600,7.06770263671875,0.06971463561058044,0.07195381820201874,-0.03505998104810715
1751013762088646700,7.077646728515625,0.056422796100378036,0.06630312651395798,-0.07152478396892548
1751013762098589700,7.087589599609375,0.03461230546236038,0.05353459715843201,-0.08927235752344131
1751013762108532700,7.09753271484375,0.010459565557539463,0.040957819670438766,-0.09941233694553375
1751013762118476500,7.1074765625,-0.005918608978390694,0.027908330783247948,-0.08866702020168304
1751013762128419600,7.117419677734375,-0.01565432734787464,0.017016533762216568,-0.058630023151636124
1751013762138363600,7.12736376953125,-0.014332333579659462,0.007931159809231758,-0.01540745235979557
1751013762148306700,7.137306640625,-0.01363378670066595,-0.0007968177669681609,0.02689153514802456
1751013762158249700,7.147249755859375,-0.016626114025712013,-0.010849984362721443,0.0684959664940834
1751013762168193500,7.157193603515625,-0.0115559883415699,-0.01563861407339573,0.08780016005039215
1751013762178136600,7.167136474609375,-0.009001217782497406,-0.019783558323979378,0.07457517087459564
1751013762188080600,7.17708056640625,-0.020009128376841545,-0.031385354697704315,0.04300765320658684
1751013762198023700,7.187023681640625,-0.038603316992521286,-0.051302067935466766,0.0009952232940122485
1751013762207966500,7.196966552734375,-0.0609712079167366,-0.07552405446767807,-0.04180683568120003
1751013762217910500,7.20691064453125,-0.0881146788597107,-0.09702055901288986,-0.06896255910396576
1751013762227853600,7.216853515625,-0.11921960115432739,-0.11268127709627151,-0.08131536096334457
1751013762237797400,7.22679736328125,-0.14884407818317413,-0.14355157315731049,-0.07317327708005905
1751013762247740400,7.236740478515625,-0.18579569458961487,-0.17393185198307037,-0.056652095168828964
1751013762257683500,7.246683349609375,-0.1833876669406891,-0.16570933163166046,-0.021253090351819992
1751013762267627500,7.25662744140625,-0.15144997835159302,-0.15906821191310883,0.021937789395451546
1751013762277570600,7.266570556640625,-0.1259792298078537,-0.1271907091140747,0.07070799171924591
1751013762287514600,7.2765146484375,-0.0982445478439331,-0.0783078521490097,0.10288403928279877
1751013762297457700,7.286457763671875,-0.07192292809486389,-0.019711120054125786,0.11213240027427673
1751013762307400700,7.296400634765625,-0.042883552610874176,0.02545502595603466,0.08821747452020645
1751013762317344800,7.3063447265625,-0.007047256920486689,0.05667579546570778,0.04435627907514572
1751013762327287600,7.31628759765625,0.02490055561065674,0.07228458672761917,-0.006113286130130291
1751013762337231600,7.326231689453125,0.039195604622364044,0.0752076655626297,-0.05121924355626106
1751013762347174700,7.336174560546875,0.0411495678126812,0.06517687439918518,-0.08951417356729507
1751013762357117700,7.34611767578125,0.026633208617568016,0.05414179712533951,-0.10733337700366974
1751013762367061500,7.3560615234375,0.007496265694499016,0.04469956085085869,-0.09385352581739426
1751013762377004500,7.366004638671875,-0.011414574459195137,0.03183675929903984,-0.045635394752025604
1751013762386948600,7.375948486328125,-0.017225058749318123,0.009651562198996544,0.013390639796853065
1751013762396891600,7.3858916015625,-0.009761550463736057,-0.014309963211417198,0.06968879699707031
1751013762406834700,7.395834716796875,-0.005513009615242481,-0.028969332575798035,0.1050659641623497
1751013762416778500,7.405778564453125,0.0014924354618415236,-0.03573855757713318,0.11405626684427261
1751013762426721500,7.415721435546875,0.011995675973594189,-0.03714896738529205,0.09472277760505676
1751013762436665600,7.42566552734375,0.013729927130043507,-0.03873381391167641,0.05721508711576462
1751013762446608600,7.435608642578125,0.009469934739172459,-0.03496570512652397,0.009550628252327442
1751013762456551400,7.445551513671875,0.006905043963342905,-0.02672721818089485,-0.033841852098703384
1751013762466495500,7.45549560546875,0.0008543420699425042,-0.01679522544145584,-0.06872686743736267
1751013762476438500,7.4654384765625,0.0032112395856529474,-0.011039867997169495,-0.0720030888915062
1751013762486382600,7.475382568359375,0.008620652370154858,-0.017545703798532486,-0.06469324231147766
1751013762496325400,7.485325439453125,0.007454187609255314,-0.03235847130417824,-0.04157434031367302
1751013762506268400,7.495268310546875,0.003599794814363122,-0.035050928592681885,-0.015352590940892696
1751013762516212700,7.505212646484375,-0.001130778226070106,-0.034385405480861664,0.01152616087347269
1751013762526155500,7.515155517578125,-0.0006005428149364889,-0.04410301148891449,0.02606275863945484
1751013762536099600,7.525099609375,-0.0004849616379942745,-0.04812891408801079,0.028386900201439857
1751013762546042600,7.535042724609375,-0.005061604082584381,-0.04314533993601799,0.02859143167734146
1751013762555985700,7.544985595703125,-0.002159290947020054,-0.0359332337975502,0.019483154639601707
1751013762565929700,7.5549296875,-0.002573412610217929,-0.030307039618492126,0.001201884588226676
1751013762575872800,7.564872802734375,-0.006828611250966787,-0.02400839701294899,-0.015055116266012192
1751013762585816600,7.574816650390625,-0.009182047098875046,-0.012918195687234402,-0.024295752868056297
1751013762595759600,7.584759521484375,-0.0028069717809557915,-0.005396896041929722,-0.025410018861293793
1751013762605702700,7.59470263671875,-0.00033582461765035987,-0.0033190976828336716,-0.014882010407745838
1751013762615646700,7.604646728515625,0.008188420906662941,0.002095375210046768,-0.00036458674003370106
1751013762625589500,7.614589599609375,0.022936740890145302,0.004352137912064791,0.02508750930428505
1751013762635533600,7.624533447265625,0.02912752516567707,0.0015425028977915645,0.03845817595720291
1751013762645476600,7.6344765625,0.033661291003227234,0.004472779110074043,0.03479446470737457
1751013762655419100,7.644419189453125,0.02863404154777527,0.012586365453898907,0.02382277511060238
1751013762665363200,7.65436328125,0.02677595429122448,0.02185230143368244,0.004493551794439554
1751013762675306000,7.664305908203125,0.027149861678481102,0.030292391777038574,-0.00911626685410738
1751013762685250000,7.67425,0.026917368173599243,0.0330442376434803,-0.013747237622737885
1751013762695193000,7.684193115234375,0.030047114938497543,0.026793263852596283,-0.008553540334105492
1751013762705136000,7.69413623046875,0.035101260989904404,0.014933941885828972,-0.005030178464949131
1751013762715080000,7.704079833984375,0.03680914640426636,0.0008045409340411425,0.00520647969096899
1751013762725023000,7.71402294921875,0.04284493625164032,-0.003537476761266589,0.013520868495106697
1751013762734967000,7.723967041015625,0.049965161830186844,-0.0014828480780124664,0.024764468893408775
1751013762744910000,7.73391015625,0.059365589171648026,-0.005826463922858238,0.02743561938405037
1751013762754853000,7.74385302734375,0.05335962772369385,-0.004786499310284853,0.02822258323431015
1751013762764797000,7.753796875,0.04809029772877693,0.0009089368977583945,0.01943787932395935
1751013762774740000,7.763739990234375,0.03874552994966507,0.003707386553287506,0.005363340023905039
1751013762784684000,7.77368408203125,0.028901422396302223,0.003438939806073904,-0.003041330026462674
1751013762794627000,7.783626953125,0.019062107428908348,-0.0036914076190441847,-0.005368399899452925
1751013762804571100,7.793571044921875,0.014855112880468369,-0.00990109983831644,-0.006405701395124197
1751013762814514200,7.80351416015625,0.015079616568982601,-0.01270034909248352,-0.005161738954484463
1751013762824457000,7.81345703125,0.025665681809186935,-0.009471531957387924,-0.002796585438773036
1751013762834401000,7.823401123046875,0.029321404173970222,-0.0030298782512545586,-0.009637713432312012
1751013762844344000,7.833343994140625,0.031802404671907425,0.0002545981842558831,-0.02076626382768154
1751013762854288100,7.8432880859375,0.02544970065355301,-0.003838414093479514,-0.03430124744772911
1751013762864231200,7.853231201171875,0.005606220569461584,-0.004988100845366716,-0.04752011597156525
1751013762874174200,7.86317431640625,-0.013321664184331894,0.00010599380766507238,-0.04819043353199959
1751013762884118000,7.873117919921875,-0.02003788948059082,-0.003064233111217618,-0.03946218639612198
1751013762894061000,7.88306103515625,-0.01666526310145855,-0.010352239944040775,-0.016649017110466957
1751013762904005000,7.893005126953125,-0.0020269318483769894,-0.01817980222404003,0.00375958438962698
1751013762913948200,7.9029482421875,0.0020516992080956697,-0.016952352598309517,0.016922524198889732
1751013762923891000,7.912890869140625,0.016776051372289658,-0.007199323270469904,0.02905242331326008
1751013762933835000,7.9228349609375,0.04062359407544136,-0.0017350494163110852,0.03442215546965599
1751013762943778000,7.932778076171875,0.0583738274872303,0.013931527733802795,0.041849978268146515
1751013762953722000,7.94272216796875,0.06275659054517746,0.02208293229341507,0.03269056975841522
1751013762963665000,7.952664794921875,0.05536285787820816,0.019542274996638298,0.023387880995869637
1751013762973608000,7.96260791015625,0.048950497061014175,0.019640013575553894,0.007989749312400818
1751013762983552000,7.972552001953125,0.037640053778886795,0.010793792083859444,0.003257312346249819
1751013762993495000,7.9824951171875,0.02165309712290764,-0.006216883193701506,-0.002416286151856184
1751013763003438800,7.99243896484375,0.007107444107532501,-0.016594156622886658,-0.008815862238407135
1751013763013382000,8.0023818359375,-0.004458131734281778,-0.026198580861091614,-0.01170592475682497
1751013763023325000,8.012324951171875,-0.014813034795224667,-0.030961643904447556,-0.021024858579039574
1751013763033269000,8.02226904296875,-0.015589079819619656,-0.02575569786131382,-0.02953978255391121
1751013763043212000,8.0322119140625,-0.009709885343909264,-0.010460896417498589,-0.03550659492611885
1751013763053156000,8.042156005859376,0.0005531385540962219,0.012881443835794926,-0.042691003531217575
1751013763063099100,8.05209912109375,0.013315805234014988,0.03569860756397247,-0.04326678067445755
1751013763073042200,8.062042236328125,0.026159431785345078,0.05043574422597885,-0.034446924924850464
1751013763082986200,8.071986328125,0.040158338844776154,0.06023644283413887,-0.018814167007803917
1751013763092929000,8.081928955078125,0.046068690717220306,0.05917038023471832,-0.0024703482631593943
1751013763102873000,8.091873046875,0.03816203400492668,0.0602705292403698,0.002796052722260356
1751013763112816000,8.101816162109374,0.023359917104244232,0.055335961282253265,-0.004076766781508923
1751013763122759200,8.11175927734375,-0.0023166837636381388,0.03982650861144066,-0.019786488264799118
1751013763132703000,8.121702880859376,-0.022832611575722694,0.025260083377361298,-0.03237232193350792
1751013763142646000,8.13164599609375,-0.037521541118621826,0.0028748824261128902,-0.031683627516031265
1751013763152590000,8.141590087890625,-0.04366492107510567,-0.008421181701123714,-0.013263074681162834
1751013763162533000,8.151533203125,-0.04033277556300163,-0.014591991901397705,0.012546418234705925
1751013763172476200,8.16147607421875,-0.02726677432656288,-0.015244732610881329,0.040880586951971054
1751013763182420000,8.171419921875,-0.0157089214771986,-0.011550395749509335,0.06336432695388794
1751013763192363000,8.181363037109374,-0.0009230516152456403,0.006323409732431173,0.07003181427717209
1751013763202307000,8.19130712890625,0.011718175373971462,0.020355338230729103,0.05491411313414574
1751013763212250000,8.20125,0.018126806244254112,0.025195900350809097,0.02743002586066723
1751013763222193000,8.21119287109375,0.019353725016117096,0.025298165157437325,-0.013099024072289467
1751013763232137000,8.221136962890625,0.010901649482548237,0.02683933638036251,-0.04853637516498566
1751013763242080000,8.231080078125,0.008046208880841732,0.02971981279551983,-0.07078788429498672
1751013763252023800,8.24102392578125,0.0041617220267653465,0.0267125703394413,-0.06867466866970062
1751013763261966800,8.250966796875,-0.0033862092532217503,0.025777002796530724,-0.05331328883767128
1751013763271910000,8.260909912109375,-0.012707007117569447,0.02906494028866291,-0.02166401594877243
1751013763281854200,8.270854248046875,-0.014561099000275135,0.022963106632232666,0.0024897893890738487
1751013763291797200,8.28079736328125,-0.012430837377905846,0.010637996718287468,0.015025821514427662
1751013763301741000,8.290740966796875,-0.008762865327298641,0.0020671456586569548,0.024025442078709602
1751013763311684000,8.30068408203125,-0.0016799219883978367,0.0060182115994393826,0.02328055538237095
1751013763321628200,8.310628173828125,0.008255799300968647,0.007056578062474728,0.031087877228856087
1751013763331571200,8.3205712890625,0.012591691687703133,0.013219133019447327,0.027546405792236328
1751013763341514000,8.330513916015626,0.015617575496435165,0.014030065387487411,0.020175043493509293
1751013763351458000,8.3404580078125,0.005053347907960415,0.0130920996889472,0.008591357618570328
1751013763361401000,8.350401123046876,-0.00729333283379674,0.013089703395962715,-0.014164288528263569
1751013763371345200,8.36034521484375,-0.025846511125564575,0.008798551745712757,-0.03910079598426819
1751013763381288000,8.370287841796875,-0.040650490671396255,0.013971209526062012,-0.052372924983501434
1751013763391231000,8.38023095703125,-0.04809402674436569,0.03308897837996483,-0.05884387716650963
1751013763401175000,8.390175048828125,-0.04878271743655205,0.05261234566569328,-0.05643611028790474
1751013763411118000,8.4001181640625,-0.046363502740859985,0.07754512876272202,-0.057375673204660416
1751013763421062000,8.410061767578124,-0.03194434940814972,0.0890241488814354,-0.05672985687851906
1751013763431005000,8.4200048828125,-0.006015814375132322,0.08817912638187408,-0.061460431665182114
1751013763440948000,8.429947998046876,0.01191205345094204,0.07981360703706741,-0.05986812710762024
1751013763450892000,8.43989208984375,0.006403570994734764,0.06566476076841354,-0.056586846709251404
1751013763460835000,8.4498349609375,-0.009217200800776482,0.048817604780197144,-0.04013756662607193
1751013763470779000,8.45977880859375,-0.02424009144306183,0.030593860894441605,-0.013135509565472603
1751013763480722000,8.469721923828125,-0.039328232407569885,0.0172698013484478,0.017835190519690514
1751013763490665000,8.4796650390625,-0.04264892637729645,0.013559751212596893,0.04108778014779091
1751013763500609300,8.489609375,-0.03723392263054848,0.008772452361881733,0.05211912840604782
1751013763510551800,8.4995517578125,-0.02690485119819641,0.003840810852125287,0.04645485058426857
1751013763520496000,8.50949609375,-0.022405439987778664,-0.01480717584490776,0.03476916626095772
1751013763530439200,8.519439208984375,-0.025540780276060104,-0.03050065040588379,0.013365873135626316
1751013763540382200,8.52938232421875,-0.03585999459028244,-0.0425834134221077,-0.006636330857872963
1751013763550326000,8.539325927734374,-0.038067225366830826,-0.05229676142334938,-0.016281768679618835
1751013763560269000,8.54926904296875,-0.035653602331876755,-0.053587861359119415,-0.024926388636231422
1751013763570213000,8.559213134765624,-0.024647289887070656,-0.042100582271814346,-0.023388147354125977
1751013763580156200,8.56915625,-0.013336578384041786,-0.029817815870046616,-0.008696552366018295
1751013763590099200,8.57909912109375,0.000922252656891942,-0.014697719365358353,0.009527991525828838
1751013763600043000,8.58904296875,0.010647851042449474,-0.004327370319515467,0.028776254504919052
1751013763609986000,8.598986083984375,0.013765080831944942,0.004029362928122282,0.031920649111270905
1751013763619930000,8.60893017578125,0.004740426782518625,0.00580915343016386,0.02845800668001175
1751013763629873200,8.618873046875,-0.0020485036075115204,0.009239304810762405,0.01395869255065918
1751013763639816000,8.62881591796875,-0.010034524835646152,0.008359662257134914,0.0031342741567641497
1751013763649760000,8.638760009765624,-0.015446600504219532,-0.001278849900700152,-0.004745753016322851
1751013763659703800,8.648703857421875,-0.02587101235985756,-0.013201556168496609,-0.008669654838740826
1751013763669647600,8.658647705078126,-0.04051680117845535,-0.01793266087770462,-0.00980362854897976
1751013763679590700,8.668590576171875,-0.04821573197841644,-0.01564314216375351,-0.005790244787931442
1751013763689533700,8.67853369140625,-0.05498921498656273,-0.00800013542175293,-0.008327971212565899
1751013763699477800,8.688477783203124,-0.05324671044945717,0.012076903134584427,-0.014357367530465126
1751013763709420800,8.6984208984375,-0.04740772768855095,0.054181478917598724,-0.044252682477235794
1751013763719364600,8.708364501953126,-0.03376488760113716,0.08431541174650192,-0.09684904664754868
1751013763729307600,8.7183076171875,-0.01203988492488861,0.09364952892065048,-0.13792245090007782
1751013763739250700,8.728250732421875,0.02341051772236824,0.10145924985408783,-0.1434658169746399
1751013763749194500,8.738194580078124,0.049675945192575455,0.11196675151586533,-0.11734580248594284
1751013763759137500,8.748137451171875,0.054722100496292114,0.11006098985671997,-0.08120431005954742
1751013763769081900,8.758081787109376,0.04249792546033859,0.07945434749126434,-0.041251033544540405
1751013763779024600,8.768024658203124,0.01528867520391941,0.030007965862751007,-0.004257062915712595
1751013763788968700,8.77796875,-0.022530343383550644,-0.021201426163315773,0.033060215413570404
1751013763798911700,8.787911865234374,-0.06108519062399864,-0.06114351376891136,0.06888265907764435
1751013763808854800,8.797854736328125,-0.07959362864494324,-0.08920471370220184,0.0960700735449791
1751013763818798800,8.807798828125,-0.06744401901960373,-0.09842510521411896,0.10685587674379349
1751013763828742000,8.817741943359374,-0.04585910215973854,-0.09652094542980194,0.09709618985652924
1751013763838685700,8.827685791015625,-0.01901496946811676,-0.0901155099272728,0.07454907149076462
1751013763848628700,8.837628662109376,0.007497597485780716,-0.0732041746377945,0.05639110505580902
1751013763858571800,8.84757177734375,0.02990277111530304,-0.03730183094739914,0.036559075117111206
1751013763868515800,8.857515869140625,0.04941628500819206,0.0026229473296552896,0.019544139504432678
1751013763878458600,8.867458740234374,0.06773963570594788,0.03201465681195259,-0.004977980628609657
1751013763888402700,8.877402587890625,0.07565508037805557,0.060391705483198166,-0.02226242795586586
1751013763898345700,8.887345703125,0.07310590147972107,0.06911621987819672,-0.03945579752326012
1751013763908288800,8.897288818359375,0.05631067603826523,0.06705094128847122,-0.05271114781498909
1751013763918232600,8.907232666015625,0.028683044016361237,0.055216651409864426,-0.05726435407996178
1751013763928175600,8.917175537109374,-0.0026112294290214777,0.0417192168533802,-0.05222698673605919
1751013763938119700,8.92711962890625,-0.03741182014346123,0.03262984752655029,-0.044740039855241776
1751013763948062700,8.937062744140626,-0.05417322367429733,0.02900209091603756,-0.04523112624883652
1751013763958005800,8.947005859375,-0.04676058143377304,0.04295838624238968,-0.07219110429286957
1751013763967949600,8.956949462890625,-0.02491120807826519,0.0642964318394661,-0.12723757326602936
1751013763977892600,8.966892578125,-0.005481051746755838,0.07031863927841187,-0.18442736566066742
1751013763987836700,8.976836669921875,-0.0009890979854390025,0.09199676662683487,-0.21103447675704956
1751013763997779700,8.98677978515625,0.0026024410035461187,0.1111435666680336,-0.19888007640838623
1751013764007722500,8.996722412109374,0.0038221688009798527,0.11816765367984772,-0.15533632040023804
1751013764017666800,9.006666748046875,0.001987250754609704,0.11057977378368378,-0.09122312068939209
1751013764027609900,9.01660986328125,-0.002095375210046768,0.09824960678815842,-0.0209438968449831
1751013764037553700,9.0265537109375,-0.016393620520830154,0.07707134634256363,0.033784594386816025
1751013764047496700,9.03649658203125,-0.03804059326648712,0.039569512009620667,0.07352668046951294
1751013764057439700,9.046439697265624,-0.060070525854825974,0.00040533312130719423,0.08795062452554703
1751013764067383800,9.0563837890625,-0.07894594967365265,-0.022598786279559135,0.07740238308906555
1751013764077326800,9.066326904296876,-0.0782519280910492,-0.025767415761947632,0.05405551195144653
1751013764087270700,9.076270751953125,-0.06209506094455719,-0.016987506300210953,0.017542773857712746
1751013764097213700,9.086213623046875,-0.033970218151807785,-0.004791026934981346,-0.013512346893548965
1751013764107156700,9.09615673828125,-0.006882673595100641,0.02063470520079136,-0.03471137583255768
1751013764117100800,9.106100830078125,0.008871521800756454,0.039383623749017715,-0.042998332530260086
1751013764127043800,9.1160439453125,0.028173580765724182,0.04580770060420036,-0.03365436568856239
1751013764136987600,9.125987548828125,0.029802637174725533,0.04850388690829277,-0.006551642436534166
1751013764146930700,9.1359306640625,0.025421736761927605,0.04285771772265434,0.029153890907764435
1751013764156873700,9.145873779296876,0.020432570949196815,0.028483573347330093,0.06023883819580078
1751013764166817800,9.15581787109375,0.010946923866868019,0.02123737707734108,0.07630062848329544
1751013764176760600,9.165760498046875,0.0018242653459310532,0.02285711281001568,0.08263708651065826
1751013764186704600,9.17570458984375,-0.007691475562751293,0.019827766343951225,0.07913316786289215
1751013764196647700,9.185647705078125,-0.017885256558656693,0.014729411341249943,0.06126255914568901
1751013764206590700,9.1955908203125,-0.029136845842003822,-0.006587062496691942,0.03332493454217911
1751013764216534500,9.205534423828125,-0.04192028567194939,-0.021580658853054047,0.00003408846168895252
1751013764226477600,9.2154775390625,-0.055334094911813736,-0.03232518211007118,-0.029771476984024048
1751013764236422000,9.225421875,-0.06235099211335182,-0.03632791340351105,-0.05802095681428909
1751013764246364700,9.23536474609375,-0.05876744166016579,-0.02419614978134632,-0.07426571100950241
1751013764256307700,9.2453076171875,-0.04682449623942375,0.004098338540643454,-0.07953689992427826
1751013764266251800,9.255251708984375,-0.026672890409827232,0.04146728292107582,-0.07663725316524506
1751013764276194800,9.26519482421875,-0.006923419889062643,0.08575378358364105,-0.07213864475488663
1751013764286139000,9.275138916015624,0.0180482417345047,0.12073014676570892,-0.06636650860309601
1751013764296081700,9.28508154296875,0.04701464623212814,0.15238234400749207,-0.06241916865110397
1751013764306024700,9.295024658203126,0.07374373078346252,0.16892723739147186,-0.05814239755272865
1751013764315968800,9.30496875,0.09623279422521591,0.16865240037441254,-0.05650162696838379
1751013764325911800,9.314911865234375,0.1013825461268425,0.15196716785430908,-0.054310910403728485
1751013764335855600,9.324855712890624,0.09306256473064423,0.12308171391487122,-0.05415964126586914
1751013764345798700,9.334798583984375,0.06752125173807144,0.08690613508224487,-0.04886980354785919
1751013764355742700,9.34474267578125,0.039745815098285675,0.05366988480091095,-0.04038310796022415
1751013764365685800,9.354685791015624,0.010676346719264984,0.014029799029231071,-0.025529062375426292
1751013764375628800,9.36462890625,-0.016947558149695396,-0.025888588279485703,-0.008332232013344765
1751013764385572600,9.374572509765626,-0.04420554265379906,-0.058046258985996246,0.005621666554361582
1751013764395515600,9.384515625,-0.060434579849243164,-0.06714042276144028,0.01798911951482296
1751013764405459700,9.394459716796876,-0.06144658103585243,-0.06268654763698578,0.03484107181429863
1751013764415402800,9.40440283203125,-0.048282843083143234,-0.042685944586992264,0.051722582429647446
1751013764425345500,9.414345458984375,-0.029032450169324875,-0.02297908440232277,0.057016149163246155
1751013764435289600,9.42428955078125,-0.00908510759472847,-0.00686136819422245,0.05898502469062805
1751013764445232600,9.434232666015625,0.0028003137558698654,0.007668572477996349,0.05386056751012802
1751013764455176700,9.4441767578125,0.010381534695625305,0.011491539888083935,0.04501967132091522
1751013764465119500,9.454119384765624,0.012119779363274574,0.016331568360328674,0.03364478051662445
1751013764475062500,9.4640625,0.009279784746468067,0.00732422573491931,0.021025389432907104
1751013764485006800,9.4740068359375,0.001264468883164227,0.0002612560929264873,0.008016647771000862
1751013764494950000,9.483949951171875,-0.01056156400591135,-0.004895688965916634,0.009163937531411648
1751013764504893700,9.493893798828125,-0.015930229797959328,-0.014118216000497341,0.011710984632372856
1751013764514836700,9.503836669921874,-0.015920909121632576,-0.015064436942338943,0.02311250939965248
1751013764524779800,9.51377978515625,-0.015532353892922401,-0.0013736584223806858,0.02033829502761364
1751013764534723800,9.523723876953126,-0.014289990067481995,0.006144711747765541,0.008043278940021992
1751013764544667000,9.5336669921875,-0.019342804327607155,0.010603109374642372,-0.00854182243347168
1751013764554610700,9.543610595703125,-0.023987358435988426,0.02094096876680851,-0.027906199917197227
1751013764564553700,9.5535537109375,-0.02804042212665081,0.03790690377354622,-0.05170314013957977
1751013764574496800,9.563496826171875,-0.03311134874820709,0.049788594245910645,-0.0777355432510376
1751013764584440800,9.57344091796875,-0.03464239835739136,0.07310430705547333,-0.10280068218708038
1751013764594383600,9.583383544921874,-0.030415697023272514,0.0870952233672142,-0.1170981302857399
1751013764604327700,9.59332763671875,-0.022611303254961967,0.07649743556976318,-0.12299090623855591
1751013764614270700,9.603270751953126,-0.014875885099172592,0.07796777039766312,-0.1077437773346901
1751013764624213800,9.6132138671875,-0.0033483924344182014,0.08359076827764511,-0.08660360425710678
1751013764634157600,9.623157470703125,0.015168832615017891,0.06245032697916031,-0.06819503009319305
1751013764644100600,9.6331005859375,0.02346005290746689,0.0397024042904377,-0.056468866765499115
1751013764654044700,9.643044677734375,0.014296913519501686,0.023965520784258842,-0.03628530353307724
1751013764663988200,9.65298828125,0.005717540625482798,0.013189305551350117,-0.015216503292322159
1751013764673931000,9.662930908203125,0.007306915242224932,-0.0010823087068274617,0.003172091208398342
1751013764683875000,9.672875,0.011343467980623245,-0.005626993253827095,0.013892113231122494
1751013764693818000,9.682818115234374,0.01624581590294838,-0.0021228056866675615,0.020912205800414085
1751013764703762200,9.69276220703125,0.02221262827515602,0.002472745021805167,0.030010096728801727
1751013764713705000,9.702705078125,0.028835643082857132,0.0071039823815226555,0.04181908443570137
1751013764723648000,9.71264794921875,0.03556837886571884,0.007420365698635578,0.046719569712877274
1751013764733592300,9.72259228515625,0.03887229785323143,0.010702711530029774,0.04157887026667595
1751013764743535400,9.732535400390624,0.04665165767073631,0.014375477097928524,0.02568885125219822
1751013764753479200,9.742479248046875,0.04959285259246826,0.012115518562495708,0.007238205522298813
1751013764763422200,9.752422119140626,0.04391206428408623,0.01059192419052124,-0.006959639023989439
1751013764773365200,9.762365234375,0.03587677329778671,0.01124945841729641,-0.014195714145898819
1751013764783309300,9.772309326171875,0.028427647426724434,0.008109858259558678,-0.010717359371483326
1751013764793252400,9.78225244140625,0.021919678896665573,0.0032711606472730637,-0.009006277658045292
1751013764803196200,9.792196044921875,0.020682375878095627,0.0006415555253624916,-0.004486094694584608
1751013764813139200,9.80213916015625,0.015540077351033688,-0.005727394018322229,0.003114300547167659
1751013764823082200,9.812082275390624,0.012493954040110111,-0.010720821097493172,0.004384894855320454
1751013764833026000,9.822026123046875,0.01239035651087761,-0.016083894297480583,0.0025244103744626045
1751013764842969000,9.831968994140626,0.009674731642007828,-0.02075854130089283,-0.0036301547661423683
1751013764852913200,9.8419130859375,-0.0011635350529104471,-0.019950538873672485,-0.021820344030857086
1751013764862856200,9.851856201171875,-0.020985176786780357,-0.017668209969997406,-0.045640986412763596
1751013764872799200,9.86179931640625,-0.036262400448322296,-0.015570171177387238,-0.06824829429388046
1751013764882743000,9.871742919921875,-0.04987435042858124,-0.021411815658211708,-0.08744249492883682
1751013764892686000,9.88168603515625,-0.05140753090381622,-0.022701850160956383,-0.08484937995672226
1751013764902630100,9.891630126953125,-0.047564856708049774,-0.03452948108315468,-0.06861075013875961
1751013764912573200,9.9015732421875,-0.026925889775156975,-0.04513392224907875,-0.0407562181353569
1751013764922517000,9.91151708984375,-0.005016330163925886,-0.05790165066719055,-0.003573429537937045
1751013764932460000,9.9214599609375,0.016830379143357277,-0.07402149587869644,0.04122227057814598
1751013764942403000,9.931403076171875,0.029439648613333702,-0.09207986295223236,0.08448159694671631
1751013764952347400,9.941347412109375,0.034387800842523575,-0.11516733467578888,0.12631665170192719
1751013764962290200,9.951290283203125,0.02785666473209858,-0.1287105679512024,0.14942890405654907
1751013764972234200,9.961234130859374,0.013306484557688236,-0.13300065696239471,0.1458088606595993
1751013764982177300,9.97117724609375,0.007152185309678316,-0.12129206955432892,0.12720908224582672
1751013764992120300,9.981120361328125,0.009406550787389278,-0.1157044917345047,0.09205722063779831
1751013765002064100,9.991064208984374,0.02220996469259262,-0.08804570138454437,0.0560813769698143
1751013765012007200,10.001007080078125,0.030604248866438866,-0.05640362203121185,0.011006046086549759
1751013765021951200,10.010951171875,0.04213600233197212,-0.03717773035168648,-0.028022313490509987
1751013765031894300,10.020894287109375,0.05119900405406952,-0.012236692942678928,-0.05548110231757164
1751013765041837300,10.03083740234375,0.0501910001039505,0.0015986956423148513,-0.05860871821641922
1751013765051781000,10.040781005859374,0.045040179044008255,0.0027691549621522427,-0.042638275772333145
1751013765061724200,10.05072412109375,0.04013969749212265,0.007482151035219431,-0.004147340543568134
1751013765071668200,10.060668212890626,0.0346706286072731,-0.003367034485563636,0.0330977663397789
1751013765081611300,10.070611328125,0.025857163593173027,-0.018499648198485374,0.07833635061979294
1751013765091554000,10.080553955078125,0.01582769863307476,-0.023323697969317436,0.11197607219219208
1751013765101498000,10.090498046875,0.011423096992075443,-0.010216951370239258,0.12794651091098785
1751013765111441200,10.100441162109375,0.014672419987618923,0.0029912625905126333,0.12418346852064133
1751013765121385200,10.11038525390625,0.03229668736457825,0.01401781477034092,0.10876429826021194
1751013765131328000,10.120327880859374,0.051901280879974365,0.03809332475066185,0.09188465029001236
1751013765141271000,10.13027099609375,0.06711378693580627,0.050451457500457764,0.07074181735515594
1751013765151215000,10.140215087890626,0.07162278890609741,0.06238428130745888,0.036868803203105927
1751013765161158100,10.150158203125,0.06771966069936752,0.06242050230503082,0.0049375006929039955
1751013765171102200,10.160102294921876,0.05733652785420418,0.05668964609503746,-0.012942164205014706
1751013765181045000,10.170044921875,0.047868188470602036,0.037042971700429916,-0.022043250501155853
1751013765190988000,10.179988037109375,0.03849839046597481,0.006911701988428831,-0.013554424978792667
1751013765200932400,10.189932373046876,0.02882845140993595,-0.02273940108716488,0.018748920410871506
1751013765210875400,10.19987548828125,0.020727915689349174,-0.039445944130420685,0.06160104647278786
1751013765220819200,10.209819091796875,0.018194183707237244,-0.04790893569588661,0.0912148654460907
1751013765230762200,10.21976220703125,0.021350296214222908,-0.052657350897789,0.10866602510213852
1751013765240705300,10.229705322265625,0.029256422072649002,-0.04375467076897621,0.09733960032463074
1751013765250649000,10.239649169921876,0.03738279268145561,-0.02502812072634697,0.07531845569610596
1751013765260592000,10.249592041015624,0.04499277472496033,-0.005949768237769604,0.03827868029475212
1751013765270536200,10.2595361328125,0.05040538311004639,0.001270061475224793,0.00034647725988179445
1751013765280479200,10.269479248046874,0.049796052277088165,0.0009297095239162445,-0.031495340168476105
1751013765290422300,10.27942236328125,0.03945739567279816,0.002296710154041648,-0.053225137293338776
1751013765300366000,10.289365966796876,0.025854233652353287,0.009563677944242954,-0.06486661732196808
1751013765310309000,10.29930908203125,0.017714282497763634,0.010926949791610241,-0.06544984877109528
1751013765320253200,10.309253173828125,0.020006464794278145,0.004206462763249874,-0.04808869957923889
1751013765330196200,10.3191962890625,0.027005251497030258,-0.0018969696247950196,-0.020779579877853394
1751013765340139300,10.32913916015625,0.02695784717798233,-0.007219296880066395,0.00944756343960762
1751013765350083000,10.3390830078125,0.023897608742117882,-0.018520686775445938,0.032452747225761414
1751013765360026000,10.349026123046874,0.01515951193869114,-0.026454243808984756,0.04429342970252037
1751013765369970200,10.35897021484375,0.016292953863739967,-0.0368988960981369,0.04189072549343109
1751013765379913200,10.368913330078126,0.01877927966415882,-0.0414465107023716,0.0367303192615509
1751013765389856000,10.37885595703125,0.021632591262459755,-0.04560157284140587,0.02473597228527069
1751013765399800000,10.388800048828125,0.010150105692446232,-0.04920722544193268,0.009299226105213165
1751013765409743000,10.3987431640625,-0.0013630058383569121,-0.03562004491686821,-0.010745055973529816
1751013765419687200,10.408687255859375,-0.0032828785479068756,-0.0204557403922081,-0.02581189014017582
1751013765429630200,10.418630126953126,0.006209426559507847,0.005081844050437212,-0.03353052958846092
1751013765439574300,10.42857421875,0.018021611496806145,0.025780729949474335,-0.030979754403233528
1751013765449517300,10.438517333984375,0.030072148889303207,0.043171171098947525,-0.029560554772615433
1751013765459460400,10.44846044921875,0.038967639207839966,0.057382334023714066,-0.020302075892686844
1751013765469404200,10.458404052734375,0.047858867794275284,0.06377125531435013,-0.009410812519490719
1751013765479347200,10.46834716796875,0.05031057447195053,0.06726852059364319,0.00026738137239590287
1751013765489291300,10.478291259765625,0.049556635320186615,0.07084860652685165,0.008598814718425274
1751013765499234300,10.488234375,0.04543725773692131,0.06608634442090988,0.021107947453856468
1751013765509177000,10.498177001953126,0.04458238184452057,0.05409199744462967,0.031747009605169296
1751013765519121200,10.50812109375,0.04284200444817543,0.035828303545713425,0.049259159713983536
1751013765529064200,10.518064208984375,0.03377554193139076,0.02046985551714897,0.06081541255116463
1751013765539008300,10.52800830078125,0.015105715952813625,0.013365873135626316,0.06526688486337662
1751013765548951000,10.537950927734375,0.004032292403280735,0.009457684122025967,0.055259525775909424
1751013765558894000,10.54789404296875,-0.01133760903030634,0.0056994310580194,0.040765807032585144
1751013765568838100,10.557838134765625,-0.011709919199347496,0.01308357808738947,0.014660968445241451
1751013765578781200,10.56778125,-0.008341286331415176,0.026874225586652756,-0.013067065738141537
1751013765588725000,10.57772509765625,0.003921770956367254,0.0368855781853199,-0.04029815271496773
1751013765598668000,10.58766796875,0.014186658896505833,0.054055776447057724,-0.06251051276922226
1751013765608611000,10.597611083984376,0.012102202512323856,0.07111332565546036,-0.07672913372516632
1751013765618555100,10.60755517578125,0.0043710460886359215,0.07738719880580902,-0.07923037558794022
1751013765628498200,10.617498291015625,-0.0039867521263659,0.0668163150548935,-0.06591536849737167
1751013765638442200,10.627442138671874,-0.008384962566196918,0.04874809831380844,-0.02574530988931656
1751013765648385300,10.63738525390625,0.00003408846168895252,0.03308232128620148,0.019038671627640724
1751013765658327000,10.6473271484375,0.013100622221827507,0.01492328941822052,0.06860489398241043
1751013765668271000,10.65727099609375,0.028898227959871292,0.0014479606179520488,0.10234048962593079
1751013765678214100,10.667214111328125,0.03808506578207016,-0.007002515718340874,0.10991371423006058
1751013765688158000,10.677157958984376,0.04893292114138603,-0.019448531791567802,0.096021868288517
1751013765698101000,10.68710107421875,0.052554819732904434,-0.028066521510481834,0.07162438333034515
1751013765708044000,10.6970439453125,0.051116447895765305,-0.03665681555867195,0.03705362603068352
1751013765717988000,10.706988037109374,0.035038143396377563,-0.045336853712797165,0.01369477342814207
1751013765727931100,10.71693115234375,0.015861520543694496,-0.04345320165157318,-0.00148125016130507
1751013765737875000,10.726875,-0.0021084246691316366,-0.042313102632761,-0.0006948187365196645
1751013765747818000,10.73681787109375,-0.018852250650525093,-0.031080421060323715,0.006313023157417774
1751013765757761000,10.746760986328125,-0.02630617283284664,-0.017164073884487152,0.012807673774659634
1751013765767705000,10.756705078125,-0.02111673727631569,0.01780882477760315,0.026258502155542374
1751013765777647900,10.76664794921875,0.0008543420699425042,0.05646407604217529,0.029710756614804268
1751013765787592000,10.776592041015626,0.025433987379074097,0.07832356542348862,0.020493291318416595
1751013765797535000,10.786534912109374,0.04274293780326843,0.08842413872480392,0.007095459848642349
1751013765807478000,10.79647802734375,0.04047685116529465,0.09065773338079453,-0.012065185233950615
1751013765817422000,10.806422119140626,0.033247966319322586,0.09069288522005081,-0.02672482095658779
1751013765827365000,10.816365234375,0.025474200025200844,0.07182731479406357,-0.033367011696100235
1751013765837309200,10.82630908203125,0.009426258504390717,0.04126381501555443,-0.023136744275689125
1751013765847252200,10.836252197265624,-0.015673767775297165,0.0062738750129938126,-0.0027212179265916348
1751013765857195300,10.8461953125,-0.03880758211016655,-0.01495258416980505,0.017295366153120995
1751013765867139000,10.85613916015625,-0.055209457874298096,-0.01853746548295021,0.03038240596652031
1751013765877082000,10.86608203125,-0.051543883979320526,-0.0035489285364747047,0.022064022719860077
1751013765887026200,10.876026123046875,-0.031868450343608856,0.018514296039938927,0.00803182739764452
1751013765896969000,10.885968994140624,-0.007322094868868589,0.03893115371465683,-0.021081583574414253
1751013765906912000,10.895912109375,0.015239140018820763,0.0559154637157917,-0.047994956374168396
1751013765916856000,10.90585595703125,0.029110480099916458,0.06525810062885284,-0.06797345727682114
1751013765926799000,10.915799072265624,0.03777933493256569,0.06372864544391632,-0.07116179168224335
1751013765936743000,10.925742919921875,0.043164514005184174,0.061649516224861145,-0.05384805053472519
1751013765946686000,10.93568603515625,0.043355196714401245,0.06089317798614502,-0.02262967824935913
1751013765956629000,10.94562890625,0.042334940284490585,0.05252765491604805,0.008465123362839222
1751013765966573000,10.955572998046875,0.041617751121520996,0.04556535556912422,0.03238110989332199
1751013765976516000,10.96551611328125,0.03249429166316986,0.04200443997979164,0.05071617290377617
1751013765986460000,10.9754599609375,0.02485634759068489,0.054971907287836075,0.04452512413263321
1751013765996403000,10.98540283203125,0.02749687246978283,0.0717088058590889,0.024693362414836884
1751013766006346000,10.995345947265625,0.04838617518544197,0.05895759165287018,-0.008802013471722603
1751013766016290000,11.0052900390625,0.058828163892030716,0.017832526937127113,-0.037697311490774155
1751013766026232800,11.01523291015625,0.0489177405834198,-0.028897428885102272,-0.048825595527887344
1751013766036177200,11.02517724609375,0.005850964691489935,-0.0034645062405616045,0.04873478412628174
1751013766046120000,11.035119873046876,-0.036679718643426895,-0.13175056874752045,0.17043910920619965
1751013766056063000,11.04506298828125,-0.04773130267858505,-0.3314056396484375,0.14371348917484283
1751013766066007000,11.055007080078125,-0.041673146188259125,-0.2628060579299927,0.06316085904836655
1751013766075950000,11.0649501953125,-0.04689560458064079,-0.13003070652484894,-0.043952811509370804
1751013766085894100,11.07489404296875,-0.04060148820281029,-0.07985701411962509,-0.14194169640541077
