time,seconds_elapsed,z,y,x
1751013467951201500,0.123201416015625,0.1265278458595276,0.08923374116420746,-0.08117474615573883
1751013467961144300,0.133144287109375,0.11434521526098251,0.10622310638427734,-0.0538584366440773
1751013467971087400,0.14308740234375,0.09704052656888962,0.09240742772817612,-0.025541046634316444
1751013467981031400,0.153031494140625,0.07444467395544052,0.06174006313085556,-0.0008948221220634878
1751013467990974500,0.162974365234375,0.06149664893746376,0.03941957652568817,0.02647661417722702
1751013468000917500,0.17291748046875,0.05161578953266144,0.029844980686903,0.051836565136909485
1751013468010860500,0.182860595703125,0.04241137206554413,0.04300818592309952,0.06446128338575363
1751013468020804400,0.192804443359375,0.03882462903857231,0.0528821237385273,0.061472680419683456
1751013468030747400,0.202747314453125,0.03777214512228966,0.04710972309112549,0.04003316909074783
1751013468040690400,0.2126904296875,0.037166010588407516,0.01643330231308937,0.01013678964227438
1751013468050634500,0.222634521484375,0.035840556025505066,-0.006915430538356304,-0.013629259541630745
1751013468060577300,0.232577392578125,0.040048617869615555,-0.013279053382575512,-0.03081357292830944
1751013468070520300,0.242520263671875,0.03983716294169426,-0.0111607750877738,-0.030253775417804718
1751013468080464400,0.25246435546875,0.035356126725673676,-0.012825516983866692,-0.03051716275513172
1751013468090407400,0.262407470703125,0.039618249982595444,-0.01230220589786768,-0.026608973741531372
1751013468100350500,0.2723505859375,0.040157537907361984,-0.010468087159097195,-0.012382900342345238
1751013468110293500,0.28229345703125,0.035889822989702225,-0.010402040556073189,-0.0022120214998722076
1751013468120237300,0.2922373046875,0.03533242270350456,-0.002531867241486907,0.01305321790277958
1751013468130180400,0.302180419921875,0.03050757572054863,0.01483753602951765,0.028556277975440025
1751013468140123400,0.312123291015625,0.02377377264201641,0.025594575330615044,0.03740755841135979
1751013468150067500,0.3220673828125,0.01504180021584034,0.020438428968191147,0.029938990250229836
1751013468160010200,0.33201025390625,0.006785468198359013,0.01631266064941883,0.02321477420628071
1751013468169953300,0.341953369140625,0.012328305281698704,0.010864898562431335,0.01264096051454544
1751013468179897300,0.3518974609375,0.019038937985897064,0.016019446775317192,0.006915430538356304
1751013468189840400,0.36184033203125,0.03749304637312889,0.02473890222609043,0.010349043644964695
1751013468199783400,0.371783447265625,0.03924540802836418,0.04537414014339447,0.011327222920954227
1751013468209726200,0.381726318359375,0.03801662474870682,0.053578540682792664,0.012491290457546711
1751013468219670300,0.391670166015625,0.0331619493663311,0.050870370119810104,0.011394068598747253
1751013468229613300,0.40161328125,0.02593652531504631,0.03202610835433006,0.0054552191868424416
1751013468239556400,0.411556396484375,0.010794857516884804,0.00392709719017148,0.0014210627414286137
1751013468249500400,0.42150048828125,-0.004589425399899483,-0.019469572231173515,0.006582002621144056
1751013468259443200,0.431443115234375,-0.0181177519261837,-0.035951610654592514,0.000520647969096899
1751013468269386200,0.44138623046875,-0.029513150453567505,-0.045158687978982925,-0.008981244638562202
1751013468279330600,0.45133056640625,-0.03358672186732292,-0.04265238717198372,-0.0225021131336689
1751013468289273600,0.461273681640625,-0.028835909441113472,-0.015127553604543209,-0.02701856754720211
1751013468299216400,0.47121630859375,-0.01834598369896412,0.020066918805241585,-0.022701850160956383
1751013468309159400,0.481159423828125,-0.003430950455367565,0.050434410572052,-0.020246416330337524
1751013468319103500,0.491103515625,0.01067821029573679,0.0638735219836235,-0.013673733919858932
1751013468329046500,0.501046630859375,0.020550016313791275,0.06689514219760895,-0.014393853023648262
1751013468338989600,0.510989501953125,0.02442890964448452,0.06364608556032181,-0.019512448459863663
1751013468348933400,0.520933349609375,0.024778850376605988,0.0721740648150444,-0.026525083929300308
1751013468358876400,0.53087646484375,0.030313963070511818,0.08916556090116501,-0.03652658686041832
1751013468368819500,0.5408193359375,0.035943351686000824,0.07364758849143982,-0.0419253446161747
1751013468378763300,0.55076318359375,0.037518613040447235,0.05634316802024841,-0.03937670215964317
1751013468388706300,0.560706298828125,0.0318378247320652,0.05079207569360733,-0.018034128472208977
1751013468398649000,0.570649169921875,0.024756744503974915,0.04469157010316849,0.013222594745457172
1751013468408592100,0.580592041015625,0.024876054376363754,0.03720302879810333,0.040647029876708984
1751013468418536200,0.5905361328125,0.026308570057153702,0.023578830063343048,0.05772268399596214
1751013468428479200,0.600479248046875,0.031980570405721664,0.0016972325975075364,0.056893110275268555
1751013468438422300,0.61042236328125,0.029350431635975838,-0.012232963927090168,0.043106190860271454
1751013468448366000,0.620365966796875,0.03087535873055458,-0.022403309121727943,0.013919011689722538
1751013468458309000,0.63030908203125,0.0313296914100647,-0.014510232955217361,-0.017714815214276314
1751013468468252200,0.640252197265625,0.027811391279101372,0.0046908920630812645,-0.04914890229701996
1751013468478196200,0.6501962890625,0.019781161099672318,0.0259274709969759,-0.06800674647092819
1751013468488139300,0.66013916015625,0.013587181456387043,0.04688175395131111,-0.07528596371412277
1751013468498082000,0.67008203125,0.01008086372166872,0.05770803615450859,-0.06397552043199539
1751013468508025000,0.680025146484375,0.01028566062450409,0.057923220098018646,-0.03569035232067108
1751013468517969200,0.68996923828125,0.01314989011734724,0.05383553355932236,0.005297559779137373
1751013468527912200,0.699912109375,0.01852388307452202,0.04904663935303688,0.04385001212358475
1751013468537855200,0.709855224609375,0.01932469569146633,0.04885968565940857,0.0705077201128006
1751013468547799000,0.719799072265625,0.01902029663324356,0.05235401913523674,0.08169486373662949
1751013468557742000,0.7297421875,0.017835190519690514,0.053529005497694016,0.06635984778404236
1751013468567685000,0.73968505859375,0.024399349465966225,0.06645385921001434,0.0358450822532177
1751013468577629200,0.749629150390625,0.02365126647055149,0.07588331401348114,0.0046661244705319405
1751013468587572200,0.759572265625,0.02202460914850235,0.07010398805141449,-0.022162826731801033
1751013468597515000,0.769514892578125,0.029622340574860573,0.06800461560487747,-0.02929823473095894
1751013468607458000,0.7794580078125,0.034684743732213974,0.06563280522823334,-0.021389445289969444
1751013468617402000,0.789402099609375,0.04075062647461891,0.06402212381362915,0.0030426615849137306
1751013468627345200,0.79934521484375,0.05601932853460312,0.0395820289850235,0.02917732670903206
1751013468637288200,0.8092880859375,0.05474846810102463,0.008508799597620964,0.05825505033135414
1751013468647232000,0.81923193359375,0.049306295812129974,-0.014984807930886745,0.07334292680025101
1751013468657175000,0.829175048828125,0.03579288348555565,-0.026138393208384514,0.07685323804616928
1751013468667118000,0.8391181640625,0.025050757452845573,-0.020961474627256393,0.06345753371715546
1751013468677061000,0.84906103515625,0.01944453828036785,-0.006108758971095085,0.0355534665286541
1751013468687005000,0.8590048828125,0.010945325717329979,0.0023752732668071985,-0.005213137716054916
1751013468696948000,0.868947998046875,0.0035582494456321,0.002454369328916073,-0.049918558448553085
1751013468706891000,0.87889111328125,0.002582201035693288,0.0014455638593062758,-0.08223281800746918
1751013468716835300,0.88883544921875,0.0070914654061198235,-0.015996010974049568,-0.09158024936914444
1751013468726778000,0.898778076171875,0.016164589673280716,-0.031135015189647675,-0.06490682810544968
1751013468736721200,0.90872119140625,0.008288555778563023,-0.0170317143201828,-0.03532683104276657
1751013468746665200,0.918665283203125,0.009631321765482426,-0.012072108685970306,-0.011435081250965595
1751013468756608300,0.928608154296875,0.007090932689607143,-0.015205318108201027,0.008443552069365978
1751013468766551300,0.93855126953125,0.004493551794439554,-0.017550498247146606,0.017737984657287598
1751013468776494300,0.948494384765625,-0.003313771216198802,-0.022884808480739594,0.011481420136988163
1751013468786438100,0.958438232421875,-0.007682953495532274,-0.015143533237278461,-0.009385245852172375
1751013468796381200,0.968381103515625,-0.00791358295828104,0.0017664746847003698,-0.04001053422689438
1751013468806324200,0.97832421875,-0.013524863868951797,0.014966699294745922,-0.0620279498398304
1751013468816268300,0.988268310546875,-0.011827897280454636,0.04482473060488701,-0.0738246887922287
1751013468826211300,0.99821142578125,-0.007961786352097988,0.07660609483718872,-0.0786932110786438
1751013468836154000,1.008154052734375,-0.0011701929615810513,0.06886881589889526,-0.08155051618814468
1751013468846098200,1.01809814453125,0.001487109111621976,0.052262406796216965,-0.06462719291448593
1751013468856041200,1.028041259765625,-0.0019291938515380025,0.028205005452036858,-0.03020131215453148
1751013468865984300,1.037984375,-0.003908189013600349,0.008916529826819897,0.0006476807757280767
1751013468875927300,1.04792724609375,-0.0011062771081924438,-0.009588179178535938,0.0306955948472023
1751013468885871000,1.05787109375,0.005085306242108345,-0.01787220686674118,0.041131723672151566
1751013468895814100,1.067814208984375,0.01420343667268753,-0.012721920385956764,0.037462685257196426
1751013468905757200,1.077757080078125,0.022707710042595863,0.022782543674111366,0.018924688920378685
1751013468915701200,1.087701171875,0.03003779426217079,0.05536844953894615,-0.0029561088886111975
1751013468925644000,1.09764404296875,0.029108617454767227,0.07952119410037994,-0.024108797311782837
1751013468935587000,1.107587158203125,0.021946577355265617,0.07757575064897537,-0.033190976828336716
1751013468945531100,1.11753125,0.019903134554624557,0.05300009995698929,-0.03404132276773453
1751013468955474200,1.12747412109375,0.015929166227579117,0.026260100305080414,-0.026504311710596085
1751013468965417200,1.137417236328125,0.00580835435539484,-0.0043862261809408665,-0.017359016463160515
1751013468975360300,1.1473603515625,-0.007933823391795158,-0.020482372492551804,-0.005932191386818886
1751013468985304000,1.157303955078125,-0.002877279184758663,-0.02833603322505951,0.0034432008396834135
1751013468995247000,1.1672470703125,0.0014442323008552194,-0.04096367955207825,-0.0002170476218452677
1751013469005190100,1.177190185546875,-0.00014913702034391463,-0.04999499022960663,-0.003222425002604723
1751013469015134200,1.18713427734375,-0.0010511496802791953,-0.06311239302158356,-0.00806138850748539
1751013469025077000,1.197076904296875,-0.0002790992730297148,-0.08172974735498428,-0.01324203610420227
1751013469035020000,1.20702001953125,-0.0011970909545198083,-0.08851681649684906,-0.007195861078798771
1751013469044964000,1.216964111328125,-0.002132925670593977,-0.07642526924610138,0.004308994393795729
1751013469054907100,1.2269072265625,-0.0035776905715465546,-0.04373869299888611,0.036611542105674744
1751013469064850200,1.23685009765625,-0.003222158644348383,-0.026368489488959312,0.0735652968287468
1751013469074793200,1.246793212890625,-0.004375840071588755,-0.011118431575596333,0.10872168838977814
1751013469084737000,1.256737060546875,-0.007957525551319122,0.0016322514275088906,0.12785197794437408
1751013469094680000,1.26668017578125,-0.018638132140040398,0.0161289032548666,0.11346131563186646
1751013469104623000,1.276623046875,-0.031674306839704514,0.035522039979696274,0.054610513150691986
1751013469114567200,1.286567138671875,-0.039269376546144485,0.06840062886476517,-0.03592204675078392
1751013469124510000,1.296510009765625,-0.04056500270962715,0.10206858068704605,-0.14130066335201263
1751013469134453000,1.306452880859375,-0.04104011133313179,0.14154301583766937,-0.2459445297718048
1751013469144397300,1.316397216796875,-0.03465171903371811,0.17374542355537415,-0.3277198076248169
1751013469154340400,1.32634033203125,-0.024641430005431175,0.20511266589164734,-0.3587653338909149
1751013469164283100,1.336283203125,-0.01607430726289749,0.23628470301628113,-0.3408292233943939
1751013469174226000,1.346225830078125,-0.008293882943689823,0.25218138098716736,-0.2888815999031067
1751013469184170200,1.356170166015625,0.007924501784145832,0.2548607885837555,-0.21073806285858154
1751013469194113300,1.36611328125,0.024395886808633804,0.22850854694843292,-0.12571239471435547
1751013469204056300,1.376056396484375,0.03766189143061638,0.16333194077014923,-0.04593020677566528
1751013469214000000,1.386000244140625,0.046786945313215256,0.07882343977689743,0.021284515038132668
1751013469223943200,1.395943115234375,0.045458294451236725,-0.014659636653959751,0.0764436423778534
1751013469233886200,1.40588623046875,0.0417032390832901,-0.10362999141216278,0.12758351862430573
1751013469243830300,1.415830322265625,0.04476827010512352,-0.1719595044851303,0.17190039157867432
1751013469253773300,1.425773193359375,0.04880775138735771,-0.22516706585884094,0.21062301099300385
1751013469263716000,1.435716064453125,0.057565025985240936,-0.26097461581230164,0.2500380575656891
1751013469273659100,1.4456591796875,0.05537271127104759,-0.28343331813812256,0.2706216275691986
1751013469283603200,1.455603271484375,0.050866641104221344,-0.29202520847320557,0.2720123529434204
1751013469293546200,1.465546142578125,0.042876627296209335,-0.29009467363357544,0.2594512701034546
1751013469303489300,1.4754892578125,0.030340062454342842,-0.28739476203918457,0.23259516060352325
1751013469313433000,1.48543310546875,0.021561751142144203,-0.2816316783428192,0.1977759301662445
1751013469323376000,1.495376220703125,0.018265822902321815,-0.2700170874595642,0.16116411983966827
1751013469333319200,1.505319091796875,0.023144999518990517,-0.24921594560146332,0.119548499584198
1751013469343262200,1.51526220703125,0.03858520835638046,-0.19428132474422455,0.08661531656980515
1751013469353206300,1.525206298828125,0.05421796441078186,-0.1138211041688919,0.04758349806070328
1751013469363149000,1.535149169921875,0.06471773982048035,-0.03440191596746445,0.013831925578415394
1751013469373092000,1.545092041015625,0.06605491787195206,0.025561552494764328,-0.013068930245935917
1751013469383036400,1.555036376953125,0.0647643506526947,0.04243534058332443,-0.04424495995044708
1751013469392979500,1.5649794921875,0.06640512496232986,0.023545805364847183,-0.062070026993751526
1751013469402922500,1.574922607421875,0.05995095148682594,0.005343632772564888,-0.06057972460985184
1751013469412866600,1.584866455078125,0.04996756091713905,-0.00800386443734169,-0.044919803738594055
1751013469422809600,1.5948095703125,0.043766655027866364,-0.025953037664294243,-0.030764570459723473
1751013469432752400,1.60475244140625,0.04824289679527283,-0.040170587599277496,-0.021254155784845352
1751013469442695400,1.6146953125,0.05573064088821411,-0.04532087594270706,-0.035599272698163986
1751013469452639500,1.624639404296875,0.06059330701828003,-0.03952077776193619,-0.0649864599108696
1751013469462582500,1.63458251953125,0.0678621381521225,-0.03116937167942524,-0.09072218090295792
1751013469472525600,1.644525634765625,0.0812210887670517,-0.013419934548437595,-0.09823309630155563
1751013469482469600,1.6544697265625,0.09793881326913834,0.012949087657034397,-0.08764063566923141
1751013469492412700,1.66441259765625,0.10597250610589981,0.035417910665273666,-0.07095513492822647
1751013469502355500,1.67435546875,0.10735015571117401,0.052128713577985764,-0.05723479390144348
1751013469512299500,1.684299560546875,0.10221664607524872,0.05754265561699867,-0.05070951581001282
1751013469522242600,1.69424267578125,0.09432516992092133,0.058216702193021774,-0.04193094000220299
1751013469532185600,1.704185546875,0.08353324234485626,0.04584019258618355,-0.03858281299471855
1751013469542128600,1.714128662109375,0.07459460943937302,0.030952323228120804,-0.04020600765943527
1751013469552072400,1.724072509765625,0.06351985037326813,0.017498565837740898,-0.05168503150343895
1751013469562015500,1.734015380859375,0.055632900446653366,0.009469934739172459,-0.06185084953904152
1751013469571958500,1.74395849609375,0.048519067466259,0.011908324435353279,-0.05994056537747383
1751013469581902600,1.753902587890625,0.03827974572777748,0.02815733477473259,-0.043475039303302765
1751013469591845600,1.763845703125,0.03833061084151268,0.03136457875370979,-0.026130670681595802
1751013469601788400,1.773788330078125,0.03744431212544441,0.02882019616663456,-0.011202853173017502
1751013469611731500,1.7837314453125,0.040053676813840866,0.027962658554315567,-0.006743922829627991
1751013469621675500,1.793675537109375,0.04415441304445267,0.038717035204172134,-0.008804677054286003
1751013469631618600,1.80361865234375,0.04699733480811119,0.03983290120959282,-0.015254320576786995
1751013469641561600,1.8135615234375,0.04482925683259964,0.03716707602143288,-0.025312812998890877
1751013469651505400,1.82350537109375,0.04381246119737625,0.03549567610025406,-0.02937306836247444
1751013469661448400,1.833448486328125,0.04164598137140274,0.03838973492383957,-0.04029761999845505
1751013469671391500,1.8433916015625,0.03508315235376358,0.04477812349796295,-0.05392342060804367
1751013469681335600,1.85333544921875,0.029046032577753067,0.04361538961529732,-0.07007362693548203
1751013469691278300,1.8632783203125,0.02545156329870224,0.04327290505170822,-0.08813092112541199
1751013469701221400,1.873221435546875,0.021570272743701935,0.04252349212765694,-0.10839252173900604
1751013469711164400,1.883164306640625,0.016109460964798927,0.04851400479674339,-0.11762916296720505
1751013469721108500,1.8931083984375,0.017843179404735565,0.0539947934448719,-0.12061962485313416
1751013469731051500,1.903051513671875,0.01853640004992485,0.07018841058015823,-0.10796907544136047
1751013469740994600,1.91299462890625,0.02165496163070202,0.0851718857884407,-0.08411514014005661
1751013469750938400,1.9229384765625,0.02329067513346672,0.09218718111515045,-0.06315845996141434
1751013469760881400,1.93288134765625,0.024265924468636513,0.08727338910102844,-0.04783303663134575
1751013469770824400,1.942824462890625,0.02455487847328186,0.08316785842180252,-0.0402560755610466
1751013469780768500,1.9527685546875,0.027114175260066986,0.07777442038059235,-0.03533801808953285
1751013469790711300,1.962711181640625,0.032648224383592606,0.07577385753393173,-0.029027923941612244
1751013469800654300,1.972654296875,0.039748478680849075,0.08046554774045944,-0.01985519751906395
1751013469810597400,1.982597412109375,0.04440395161509514,0.08632050454616547,-0.013100355863571167
1751013469820541400,1.99254150390625,0.04499730095267296,0.08281205594539642,-0.015209046192467213
1751013469830484500,2.002484375,0.04090269282460213,0.08124612271785736,-0.019090337678790092
1751013469840427500,2.012427490234375,0.03816869109869003,0.07223983854055405,-0.03977883979678154
1751013469850371600,2.02237158203125,0.03862515836954117,0.049501772969961166,-0.05513063073158264
1751013469860314400,2.032314453125,0.04079323634505272,0.033784594386816025,-0.061830345541238785
1751013469870257400,2.04225732421875,0.04037218913435936,0.02853337489068508,-0.06735827028751373
1751013469880200400,2.052200439453125,0.03668850660324097,0.041314151138067245,-0.059057459235191345
1751013469890144500,2.06214453125,0.038062963634729385,0.05139847472310066,-0.053833138197660446
1751013469900087600,2.072087646484375,0.037212882190942764,0.059306733310222626,-0.04310539364814758
1751013469910030300,2.0820302734375,0.033842653036117554,0.05631307512521744,-0.03362400457262993
1751013469919974700,2.091974609375,0.036368127912282944,0.04854889214038849,-0.029038842767477036
1751013469929917700,2.101917724609375,0.037764690816402435,0.03182690590620041,-0.029022064059972763
1751013469939860500,2.111860595703125,0.0443648025393486,0.021809158846735954,-0.036911677569150925
1751013469949804500,2.121804443359375,0.04994438961148262,0.026436135172843933,-0.04262096434831619
1751013469959747600,2.13174755859375,0.0537889301776886,0.03905605524778366,-0.05036703497171402
1751013469969690600,2.141690673828125,0.06029875949025154,0.04898511990904808,-0.06431347876787186
1751013469979633700,2.151633544921875,0.05957011878490448,0.05104614049196243,-0.07442682981491089
1751013469989577500,2.161577392578125,0.050873033702373505,0.05030711367726326,-0.08364403247833252
1751013469999520500,2.1715205078125,0.04586176574230194,0.0514642558991909,-0.09088383615016937
1751013470009463600,2.181463623046875,0.038893070071935654,0.05019818991422653,-0.08131429553031921
1751013470019407600,2.19140771484375,0.03969681262969971,0.0492280013859272,-0.07240229845046997
1751013470029350400,2.201350341796875,0.03456250578165054,0.047090545296669006,-0.057441189885139465
1751013470039293400,2.21129345703125,0.03273557499051094,0.04145076870918274,-0.045103028416633606
1751013470049237500,2.221237548828125,0.03732446953654289,0.03640887513756752,-0.038538869470357895
1751013470059180500,2.2311806640625,0.040461938828229904,0.04422498494386673,-0.04090402275323868
1751013470069123600,2.24112353515625,0.03802807629108429,0.052919674664735794,-0.055740226060152054
1751013470079066600,2.251066650390625,0.035530563443899155,0.058329883962869644,-0.0704272910952568
1751013470089010400,2.261010498046875,0.029094235971570015,0.04807298630475998,-0.09360425174236298
1751013470098953500,2.270953369140625,0.026883812621235847,0.03461416810750961,-0.11247168481349945
1751013470108896500,2.280896484375,0.03212917223572731,0.027750138193368912,-0.1500861644744873
1751013470118840600,2.290840576171875,0.037392910569906235,0.025947976857423782,-0.19921404123306274
1751013470128783400,2.300783447265625,0.04487186670303345,0.011422031559050083,-0.2534985840320587
1751013470138726400,2.310726318359375,0.046122752130031586,0.017351560294628143,-0.29806071519851685
1751013470148669400,2.32066943359375,0.045933935791254044,0.04392005503177643,-0.3200850486755371
1751013470158613500,2.330613525390625,0.04538585618138313,0.056776463985443115,-0.30853092670440674
1751013470168556500,2.340556640625,0.04556535556912422,0.05002588406205177,-0.26501649618148804
1751013470178499600,2.35049951171875,0.05640681833028793,0.03586958348751068,-0.18399140238761902
1751013470188443400,2.360443359375,0.06592921912670135,0.005693305749446154,-0.08309035748243332
1751013470198386400,2.370386474609375,0.059785835444927216,-0.03532256931066513,0.023627031594514847
1751013470208329500,2.38032958984375,0.048350222408771515,-0.07890493422746658,0.1164027750492096
1751013470218273300,2.390273193359375,0.04008696600794792,-0.08173880726099014,0.17484717071056366
1751013470228216300,2.40021630859375,0.03791755437850952,-0.06882353872060776,0.185824453830719
1751013470238159400,2.410159423828125,0.03062768466770649,-0.08375055342912674,0.16182778775691986
1751013470248102400,2.420102294921875,0.013525662012398243,-0.09895161539316177,0.11507412791252136
1751013470258046500,2.43004638671875,0.013510216027498245,-0.11969391256570816,0.07284224778413773
1751013470267989500,2.439989501953125,0.01660267822444439,-0.13077452778816223,0.041365284472703934
1751013470277932300,2.449932373046875,0.02586488611996174,-0.1347074806690216,0.01913880743086338
1751013470287876400,2.45987646484375,0.030897196382284164,-0.12103267759084702,0.004906075540930033
1751013470297819400,2.4698193359375,0.03227058798074722,-0.09736250340938568,-0.015303322114050388
1751013470307762400,2.479762451171875,0.04132480174303055,-0.07568570971488953,-0.04325399547815323
1751013470317706500,2.48970654296875,0.05216386914253235,-0.062255386263132095,-0.07232053577899933
1751013470327649500,2.4996494140625,0.06160930171608925,-0.05594875290989876,-0.10259082168340683
1751013470337592300,2.50959228515625,0.06460775434970856,-0.044491834938526154,-0.12090671062469482
1751013470347535400,2.519535400390625,0.06570524722337723,-0.019649334251880646,-0.1304115355014801
1751013470357479700,2.529479736328125,0.06419949233531952,0.0009243832319043577,-0.1197703406214714
1751013470367422500,2.53942236328125,0.05600361526012421,0.013710219413042068,-0.10106723010540009
1751013470377365800,2.54936572265625,0.05309198051691055,0.0177004337310791,-0.06594199687242508
1751013470387309800,2.559309814453125,0.06139038875699043,0.01888607256114483,-0.018071677535772324
1751013470397252900,2.5692529296875,0.06693562120199203,0.028964273631572723,0.039437685161828995
1751013470407196000,2.57919580078125,0.06607142835855484,0.039801210165023804,0.09620163589715958
1751013470417138700,2.589138671875,0.062494270503520966,0.04399169236421585,0.1402796059846878
1751013470427082800,2.599082763671875,0.06897134333848953,0.048299357295036316,0.17295792698860168
1751013470437025800,2.60902587890625,0.07617466151714325,0.03256566449999809,0.18244624137878418
1751013470446968800,2.61896875,0.07840266078710556,0.006810501683503389,0.17825815081596375
1751013470456912600,2.62891259765625,0.0775856077671051,-0.017182981595396996,0.15833450853824615
1751013470466855700,2.638855712890625,0.06531375646591187,-0.03833140805363655,0.13408643007278442
1751013470476798700,2.648798828125,0.05483395233750343,-0.04068324714899063,0.1121521070599556
1751013470486743000,2.658742919921875,0.0422595739364624,-0.028242023661732674,0.11204158514738083
1751013470496685800,2.668685791015625,0.0412726067006588,0.006930344272404909,0.11853756755590439
1751013470506628900,2.67862890625,0.047572843730449677,0.015223427675664425,0.12642665207386017
1751013470516571600,2.688571533203125,0.04765141010284424,0.014632205478847027,0.1215866208076477
1751013470526516000,2.698515869140625,0.04886474460363388,0.011108843609690666,0.10599833726882935
1751013470536459000,2.708458984375,0.044071853160858154,0.011531753465533257,0.08297663927078247
1751013470546401800,2.71840185546875,0.0384637676179409,0.005751895252615213,0.061773620545864105
1751013470556345900,2.728345947265625,0.03376675024628639,-0.0017414409667253494,0.03705442324280739
1751013470566289000,2.738288818359375,0.02117026597261429,0.0010093380697071552,0.01570838876068592
1751013470576232000,2.74823193359375,0.0065345983020961285,0.003965713083744049,0.006074670236557722
1751013470586175000,2.758175048828125,-0.0020330571569502354,0.002704440150409937,0.0010253170039504766
1751013470596119000,2.768119140625,-0.00577879324555397,0.007701861672103405,0.005980127956718206
1751013470606061800,2.778061767578125,-0.012150672264397144,0.008557269349694252,0.017297763377428055
1751013470616004900,2.7880048828125,-0.016221847385168076,0.006596916355192661,0.03744271397590637
1751013470625949000,2.797948974609375,-0.017722005024552345,0.009737848304212093,0.05290928855538368
1751013470635892000,2.80789208984375,-0.017431188374757767,0.007181746419519186,0.06015894562005997
1751013470645835000,2.8178349609375,-0.010639328509569168,0.0015624766238033772,0.051000867038965225
1751013470655778800,2.82777880859375,-0.0032690302468836308,0.004705273080617189,0.028062794357538223
1751013470665721900,2.837721923828125,0.001689509372226894,0.006086920853704214,-0.002379534300416708
1751013470675665000,2.847664794921875,0.005218996666371822,0.01817474327981472,-0.02810407243669033
1751013470685608000,2.85760791015625,0.008994027972221375,0.028484372422099113,-0.04670172557234764
1751013470695552000,2.867552001953125,0.013087572529911995,0.028142955154180527,-0.049258358776569366
1751013470705494800,2.877494873046875,0.014874553307890892,0.02237827703356743,-0.038420893251895905
1751013470715437800,2.887437744140625,0.014629276469349861,0.01643330231308937,-0.005799565929919481
1751013470725382000,2.8973818359375,0.010016947984695435,0.009580189362168312,0.02569311298429966
1751013470735325000,2.907324951171875,0.010165019892156124,0.009310144931077957,0.05519827455282211
1751013470745268000,2.91726806640625,0.016688698902726173,0.006623814348131418,0.08224480599164963
1751013470755211800,2.927211669921875,0.023272300139069557,0.016577910631895065,0.08602969348430634
1751013470765154800,2.93715478515625,0.02894376777112484,0.02702176384627819,0.0834520161151886
1751013470775097900,2.947097900390625,0.036921799182891846,0.027460653334856033,0.07284784317016602
1751013470785041000,2.957041015625,0.0438566692173481,0.025407355278730392,0.059549879282712936
1751013470794984700,2.966984619140625,0.04580237716436386,0.0178743377327919,0.050990212708711624
1751013470804927700,2.976927734375,0.044434577226638794,0.013609551824629307,0.040170587599277496
1751013470814870800,2.986870849609375,0.045580800622701645,0.008071241900324821,0.02641003578901291
1751013470824814800,2.99681494140625,0.04284653440117836,0.003117762738838792,0.008734369650483131
1751013470834758000,3.0067578125,0.04328302666544914,-0.0011259844759479165,-0.006811034400016069
1751013470844701000,3.016700927734375,0.04056127369403839,-0.012838300317525864,-0.016229303553700447
1751013470854643700,3.026643798828125,0.043775975704193115,-0.015431154519319534,-0.021614480763673782
1751013470864587800,3.036587890625,0.03796975314617157,-0.005890113301575184,-0.013820207677781582
1751013470874530800,3.04653076171875,0.027847610414028168,-0.00008415588672505692,-0.0007848335662856698
1751013470884473900,3.056473876953125,0.015367770567536354,-0.007804127410054207,0.012534700334072113
1751013470894417700,3.066417724609375,0.00481419637799263,-0.023077089339494705,0.022519690915942192
1751013470904360700,3.076360595703125,-0.00196381495334208,-0.047745950520038605,0.0359894260764122
1751013470914303700,3.0863037109375,-0.00791624654084444,-0.05625874549150467,0.044982388615608215
1751013470924247800,3.096247802734375,-0.013658287934958935,-0.0448223315179348,0.05463980883359909
1751013470934190800,3.10619091796875,-0.013109143823385239,-0.02624065801501274,0.06603147834539413
1751013470944133600,3.116133544921875,-0.011962120421230793,-0.003638410707935691,0.07704658061265945
1751013470954076700,3.12607666015625,-0.011476093903183937,0.03256593272089958,0.07461032271385193
1751013470964021000,3.13602099609375,-0.012018047273159027,0.07088562101125717,0.06911009550094604
1751013470973963800,3.1459638671875,-0.011518171988427639,0.06722377985715866,0.046550724655389786
1751013470983906800,3.15590673828125,-0.018786471337080002,0.0681454986333847,0.02251383103430271
1751013470993851000,3.165850830078125,-0.018009893596172333,0.06860435754060745,0.00612260727211833
1751013471003794000,3.1757939453125,-0.013764814473688602,0.08005808293819427,-0.0012990899849683046
1751013471013737000,3.185737060546875,-0.01381221879273653,0.09519336372613907,0.0026469158474355936
1751013471023681000,3.195680908203125,-0.008984706364572048,0.09907012432813644,0.007110639940947294
1751013471033623800,3.205623779296875,-0.003516171593219042,0.11486533284187317,0.013489443808794022
1751013471043566800,3.21556689453125,-0.0018413095967844129,0.1299569308757782,0.017537981271743774
1751013471053510000,3.225510009765625,-0.0004423510399647057,0.15076501667499542,0.01455923542380333
1751013471063454000,3.235453857421875,-0.00010120012302650139,0.14976419508457184,0.0037939392495900393
1751013471073397000,3.24539697265625,0.003835218260064721,0.1362086981534958,-0.013162673451006413
1751013471083340000,3.255340087890625,0.004978779703378677,0.11512179672718048,-0.030765635892748833
1751013471093283800,3.265283935546875,-0.0007792409160174429,0.10172928869724274,-0.03803899511694908
1751013471103227000,3.275226806640625,-0.005759884603321552,0.08198994398117065,-0.044676922261714935
1751013471113170000,3.285169921875,-0.014601846225559711,0.05685396119952202,-0.061296913772821426
1751013471123113000,3.295113037109375,-0.01986691541969776,0.03139520809054375,-0.06502587348222733
1751013471133056800,3.305056884765625,-0.02436552755534649,0.012807141989469528,-0.06902620196342468
1751013471142999800,3.314999755859375,-0.020246949046850204,0.011224690824747086,-0.06112673878669739
1751013471152942800,3.32494287109375,-0.012858807109296322,0.01912948675453663,-0.05091990530490875
1751013471162887000,3.334886962890625,-0.004472512751817703,0.029754700139164925,-0.034438133239746094
1751013471172830000,3.344829833984375,0.001784850494004786,0.03897110000252724,-0.017185378819704056
1751013471182773000,3.35477294921875,0.0007643272401764989,0.05258944258093834,-0.009689644910395145
1751013471192716800,3.364716796875,0.004229099955409765,0.057853445410728455,-0.006192648317664862
1751013471202659800,3.374659912109375,0.012075038626790047,0.06112593784928322,-0.0057441722601652145
1751013471212603000,3.384602783203125,0.015350460074841976,0.06404183059930801,-0.01221378892660141
1751013471222546000,3.3945458984375,0.01599947363138199,0.06551056355237961,-0.01635553687810898
1751013471232489700,3.40448974609375,0.01798885315656662,0.0676775798201561,-0.025774605572223663
1751013471242432800,3.414432861328125,0.014191186055541039,0.05811550095677376,-0.029828468337655067
1751013471252375800,3.424375732421875,0.010715228505432606,0.04105635732412338,-0.031375233083963394
1751013471262319900,3.43431982421875,0.008766859769821167,0.024271251633763313,-0.03463920205831528
1751013471272263000,3.444262939453125,0.004682635888457298,0.022760173305869102,-0.02594078704714775
1751013471282205700,3.454205810546875,0.005344697739928961,0.0243705864995718,-0.027893949300050735
1751013471292148700,3.464148681640625,0.0014096111990511417,0.02654319442808628,-0.029270803555846214
1751013471302092800,3.4740927734375,0.0037862160243093967,0.029343774542212486,-0.03226925805211067
1751013471312035800,3.484035888671875,0.005278385244309902,0.039330363273620605,-0.03730183094739914
1751013471321979000,3.493978759765625,0.004602208733558655,0.043527502566576004,-0.0388142392039299
1751013471331922700,3.503922607421875,0.0031039142049849033,0.04698615148663521,-0.03874313458800316
1751013471341865700,3.51386572265625,0.004493551794439554,0.0434260368347168,-0.043710727244615555
1751013471351808800,3.523808837890625,0.010732538998126984,0.0490248017013073,-0.042208973318338394
1751013471361752800,3.5337529296875,0.008990298956632614,0.05020324885845184,-0.04314826801419258
1751013471371695900,3.54369580078125,0.013761884532868862,0.054067227989435196,-0.04496720805764198
1751013471381638400,3.553638427734375,0.01395762711763382,0.059967994689941406,-0.05507497116923332
1751013471391581400,3.56358154296875,0.013017265126109123,0.07265716046094894,-0.07245316356420517
1751013471401525500,3.573525390625,0.009256881661713123,0.0794021487236023,-0.10037560760974884
1751013471411468500,3.583468505859375,0.0016951019642874599,0.06977908313274384,-0.13416233658790588
1751013471421411600,3.59341162109375,-0.004855741746723652,0.06229399889707565,-0.15852946043014526
1751013471431355600,3.603355712890625,-0.0051630702801048756,0.06825441867113113,-0.15992708504199982
1751013471441298700,3.613298583984375,-0.0052235242910683155,0.06715613603591919,-0.13984444737434387
1751013471451241500,3.623241455078125,-0.006975617725402117,0.06434489786624908,-0.11199098080396652
1751013471461185800,3.633185791015625,-0.003838680451735854,0.057917095720767975,-0.07775658369064331
1751013471471128600,3.643128662109375,0.0017441042000427842,0.05434712767601013,-0.05271700769662857
1751013471481071600,3.653071533203125,0.00777776213362813,0.04540662840008736,-0.035282623022794724
1751013471491014700,3.6630146484375,0.004751345608383417,0.03123941272497177,-0.033122267574071884
1751013471500958700,3.672958740234375,-0.001130511867813766,0.02076786197721958,-0.04656430706381798
1751013471510901800,3.68290185546875,-0.002871153876185417,0.002213619416579604,-0.06492786854505539
1751013471520844800,3.6928447265625,-0.0036099147982895374,-0.00863530021160841,-0.07327980548143387
1751013471530788600,3.70278857421875,-0.003950266633182764,-0.00714765815064311,-0.07579915970563889
1751013471540731600,3.712731689453125,-0.003492203075438738,0.00436119269579649,-0.06620698422193527
1751013471550674700,3.7226748046875,-0.008053398691117764,0.015956329181790352,-0.05219263210892677
1751013471560618800,3.73261865234375,-0.007533816155046225,0.026161296293139458,-0.03712153434753418
1751013471570561500,3.7425615234375,-0.0004269047058187425,0.03019651770591736,-0.02544996701180935
1751013471580504600,3.752504638671875,0.0029800771735608578,0.02039475366473198,-0.01852414943277836
1751013471590447600,3.762447509765625,0.0038951393216848373,0.00845367182046175,-0.01744849793612957
1751013471600391700,3.7723916015625,-0.00047617321251891553,0.002623746171593666,-0.023182284086942673
1751013471610334700,3.782334716796875,-0.0010194580536335707,-0.002546248259022832,-0.03014511987566948
1751013471620277800,3.79227783203125,0.004070907831192017,0.0005909554311074317,-0.0321882963180542
1751013471630221600,3.8022216796875,0.0028748824261128902,0.0012415656819939613,-0.033238645642995834
1751013471640164600,3.81216455078125,0.0005547364708036184,0.009975668974220753,-0.028442027047276497
1751013471650107600,3.822107666015625,-0.001957689644768834,0.015419969335198402,-0.027760790660977364
1751013471660050700,3.83205078125,-0.007755391299724579,0.010142115876078606,-0.029017003253102303
1751013471669994500,3.841994384765625,-0.013974671252071857,0.013354421593248844,-0.03767573833465576
1751013471679937500,3.8519375,-0.017308948561549187,0.021408885717391968,-0.04204199090600014
1751013471689880600,3.861880615234375,-0.01895744539797306,0.018545188009738922,-0.04837845265865326
1751013471699824600,3.87182470703125,-0.018217619508504868,0.012741095386445522,-0.05570374056696892
1751013471709767700,3.881767578125,-0.01872415281832218,-0.002641589380800724,-0.06045988202095032
1751013471719710500,3.89171044921875,-0.016405338421463966,-0.021921543404459953,-0.06259866803884506
1751013471729654500,3.901654541015625,-0.006420615129172802,-0.03319976478815079,-0.06216856464743614
1751013471739597600,3.91159765625,-0.005113002844154835,-0.03669889271259308,-0.057380735874176025
1751013471749540600,3.92154052734375,0.00005352953667170368,-0.025840651243925095,-0.047202400863170624
1751013471759483600,3.931483642578125,0.0005792375304736197,-0.020367588847875595,-0.0407295860350132
1751013471769427500,3.941427490234375,0.0008870989549905062,-0.001972869737073779,-0.027161313220858574
1751013471779370500,3.95137060546875,0.008832107298076153,0.01019990723580122,-0.003081809962168336
1751013471789313500,3.9613134765625,0.009289638139307499,0.02034788206219673,0.012790363281965256
1751013471799257600,3.971257568359375,0.010732006281614304,0.022487198933959007,0.025718413293361664
1751013471809200600,3.98120068359375,0.00743181724101305,0.018131332471966743,0.023426229134202003
1751013471819143400,3.991143310546875,0.0046362970024347305,0.015295066870748997,0.012148807756602764
1751013471829086500,4.00108642578125,-0.001654622028581798,0.0065465825609862804,-0.007443801499903202
1751013471839030500,4.011030517578125,-0.011094463057816029,0.0011526161106303334,-0.03725815564393997
1751013471848973600,4.0209736328125,-0.02299080230295658,-0.01098713744431734,-0.059529904276132584
1751013471858916600,4.03091650390625,-0.024153539910912514,-0.011606056243181229,-0.06825681775808334
1751013471868860700,4.040860595703125,-0.0207540150731802,-0.0032615733798593283,-0.06423917412757874
1751013471878803500,4.050803466796875,-0.022397717460989952,0.01925997994840145,-0.04370114207267761
1751013471888746500,4.06074658203125,-0.020061591640114784,0.03177417442202568,-0.014628477394580841
1751013471898690800,4.07069091796875,-0.013348829001188278,0.0461544468998909,0.023515978828072548
1751013471908633600,4.080633544921875,-0.012222577817738056,0.04253307729959488,0.043291281908750534
1751013471918576600,4.09057666015625,-0.011739480309188366,0.04231629893183708,0.055276572704315186
1751013471928519700,4.100519775390625,-0.006428338121622801,0.03603975847363472,0.04863891005516052
1751013471938463700,4.110463623046875,-0.000743554555810988,0.03032914362847805,0.037281326949596405
1751013471948406800,4.12040673828125,0.0021457087714225054,0.03117975778877735,0.018879948183894157
1751013471958349800,4.130349853515625,0.005062935408204794,0.02208080142736435,-0.0038860845379531384
1751013471968293600,4.140293701171875,0.005986253265291452,0.012763732112944126,-0.029814088717103004
1751013471978236700,4.150236572265625,0.009995908476412296,0.005440571811050177,-0.05577724426984787
1751013471988179700,4.1601796875,0.012222577817738056,0.006792126223444939,-0.07409047335386276
1751013471998123500,4.17012353515625,0.01206838060170412,0.010172209702432156,-0.07832809537649155
1751013472008066600,4.180066650390625,0.01173282228410244,0.005227785091847181,-0.07604096829891205
1751013472018009600,4.190009521484375,0.012682239525020123,-0.0009856359101831913,-0.05865345895290375
1751013472027952600,4.19995263671875,0.01727592572569847,-0.0014761901693418622,-0.037648577243089676
1751013472037896700,4.209896728515625,0.021205952391028404,0.002457032445818186,-0.011966114863753319
1751013472047839700,4.21983984375,0.02088876999914646,0.003905259305611253,0.007174289785325527
1751013472057782500,4.229782470703125,0.01914253458380699,0.0049556102603673935,0.014519820921123028
1751013472067726600,4.2397265625,0.015790147706866264,0.0028069717809557915,0.015914518386125565
1751013472077669600,4.249669677734375,0.00869149249047041,0.0011475561186671257,0.006160424090921879
1751013472087612700,4.25961279296875,0.0033342777751386166,0.0027092336677014828,-0.011378621682524681
1751013472097555700,4.2695556640625,-0.00022743394947610795,-0.00009693906031316146,-0.022756977006793022
1751013472107499500,4.27949951171875,-0.00364666641689837,-0.0006119944155216217,-0.028903286904096603
1751013472117442600,4.289442626953125,-0.002626942005008459,0.0005898901727050543,-0.025605227798223495
1751013472127385600,4.299385498046875,-0.0015986956423148513,0.0016495619202032685,-0.014427142217755318
1751013472137329700,4.30932958984375,0.0033097765408456326,0.00007084008393576369,0.000032490566809428856
1751013472147272700,4.319272705078125,0.00632074661552906,0.006717557553201914,0.0059958407655358315
1751013472157215500,4.329215576171875,0.013214604929089546,0.012650547549128532,0.01606418751180172
1751013472167159600,4.33915966796875,0.016503077000379562,0.014957377687096596,0.019289808347821236
1751013472177102600,4.3491025390625,0.016538230702280998,0.015802131965756416,0.027486750856041908
1751013472187045600,4.359045654296875,0.015413844026625156,0.01595206931233406,0.0398227795958519
1751013472196988700,4.36898876953125,0.019539080560207367,0.01671905815601349,0.053591854870319366
1751013472206932500,4.378932373046875,0.024578846991062164,0.006957508157938719,0.0689881220459938
1751013472216875500,4.38887548828125,0.02598845772445202,0.006887200754135847,0.07381723076105118
1751013472226818600,4.398818603515625,0.026622822508215904,0.012314456515014172,0.06647809594869614
1751013472236762600,4.4087626953125,0.028549352660775185,0.02731737494468689,0.05803081393241882
1751013472246705400,4.418705322265625,0.03002527728676796,0.03948003053665161,0.04267901927232742
1751013472256648400,4.4286484375,0.026255572214722633,0.04517946392297745,0.02791285701096058
1751013472266592500,4.438592529296875,0.01992843486368656,0.0404914990067482,0.00478463526815176
1751013472276535600,4.44853564453125,0.010691792704164982,0.032099612057209015,-0.009152485989034176
1751013472286478600,4.458478515625,0.005306880921125412,0.06131448969244957,-0.020357735455036163
1751013472296421600,4.468421630859375,0.004917527083307505,0.0710025355219841,-0.026692863553762436
1751013472306365400,4.478365478515625,0.013934724032878876,0.08104851096868515,-0.03230707347393036
1751013472316308500,4.48830859375,0.014118482358753681,0.091519795358181,-0.04212721437215805
1751013472326251500,4.49825146484375,0.0199835617095232,0.11751917004585266,-0.04884690046310425
1751013472336195600,4.508195556640625,0.02261769399046898,0.12641732394695282,-0.052323125302791595
1751013472346138600,4.518138671875,0.025414280593395233,0.11781052500009537,-0.049678605049848557
1751013472356081700,4.52808154296875,0.02792750485241413,0.08238941431045532,-0.044193293899297714
1751013472366025700,4.538025634765625,0.026375148445367813,0.06101088970899582,-0.03617025539278984
1751013472375968800,4.54796875,0.027938157320022583,0.05303578823804855,-0.015559252351522446
1751013472385912000,4.557912109375,0.028503812849521637,0.03934740647673607,0.005008340813219547
1751013472395854800,4.567854736328125,0.02700738236308098,0.032767798751592636,0.028075043112039566
1751013472405799000,4.577798828125,0.019176091998815536,0.02827957458794117,0.04712516814470291
1751013472415742000,4.587741943359375,0.013043363578617573,0.030659908428788185,0.06592442095279694
1751013472425685000,4.59768505859375,0.0073199644684791565,0.031265512108802795,0.07217033207416534
1751013472435628800,4.60762890625,-0.0027031085919588804,0.03098641149699688,0.07135753333568573
1751013472445571800,4.61757177734375,-0.009132245555520058,0.022174810990691185,0.0662597119808197
1751013472455515000,4.627514892578125,-0.014508368447422981,0.009602293372154236,0.07724551856517792
1751013472465458000,4.6374580078125,-0.027400465682148933,-0.012198875658214092,0.10545878112316132
1751013472475402000,4.647402099609375,-0.04724287986755371,-0.044126447290182114,0.14671088755130768
1751013472485344800,4.6573447265625,-0.056344497948884964,-0.032467395067214966,0.1772157996892929
1751013472495287800,4.667287841796875,-0.05020484700798988,0.0018306568963453174,0.1685674488544464
1751013472505232000,4.67723193359375,-0.027787689119577408,0.03982863947749138,0.12553662061691284
1751013472515175000,4.6871748046875,-0.014971226453781128,0.07824020832777023,0.046429816633462906
1751013472525118000,4.697117919921875,-0.008067247457802296,0.11088576912879944,-0.03912476450204849
1751013472535061800,4.707061767578125,0.0029489181470125914,0.13811393082141876,-0.11574124544858932
1751013472545004800,4.7170048828125,0.013578127138316631,0.15825435519218445,-0.15078498423099518
1751013472554947800,4.72694775390625,0.013978133909404278,0.16530880331993103,-0.1405576467514038
1751013472564891000,4.736890869140625,0.017837319523096085,0.14205648005008698,-0.11449754983186722
1751013472574835000,4.7468349609375,0.030838873237371445,0.09973804652690887,-0.07735098153352737
1751013472584777700,4.75677783203125,0.04427505284547806,0.06045908108353615,-0.03934500738978386
1751013472594720800,4.766720703125,0.05393140763044357,0.0215377826243639,-0.01088753528892994
1751013472604664800,4.776664794921875,0.04704207554459572,-0.00806085579097271,0.008318915963172913
1751013472614608000,4.78660791015625,0.03695695102214813,-0.0461437925696373,0.030883347615599632
1751013472624551000,4.796551025390625,0.027787422761321068,-0.07874274998903275,0.04818297550082207
1751013472634494000,4.806493896484375,0.027708860114216805,-0.09576328098773956,0.07410911470651627
1751013472644437800,4.816437744140625,0.036383308470249176,-0.08913014084100723,0.0961339920759201
1751013472654380800,4.826380859375,0.04713049530982971,-0.068132184445858,0.108639657497406
1751013472664323800,4.83632373046875,0.047315049916505814,-0.04962028190493584,0.09852657467126846
1751013472674267600,4.846267578125,0.04098019003868103,-0.03917669877409935,0.0705183744430542
1751013472684210700,4.856210693359375,0.030246052891016006,-0.03581925109028816,0.024341292679309845
1751013472694153700,4.86615380859375,0.020857878029346466,-0.035648539662361145,-0.022359101101756096
1751013472704097800,4.876097900390625,0.01278610248118639,-0.028110729530453682,-0.05331036075949669
1751013472714040800,4.886040771484375,0.0029614351224154234,-0.024413730949163437,-0.0651337280869484
1751013472723984000,4.89598388671875,-0.003043194068595767,-0.015054050832986832,-0.059353604912757874
1751013472733926700,4.9059267578125,0.0018439727136865258,0.003385410411283374,-0.046004243195056915
1751013472743871000,4.91587109375,-0.0032983249984681606,0.0173808541148901,-0.036183036863803864
1751013472753813800,4.925813720703125,-0.009189236909151077,0.02743242308497429,-0.03112143464386463
1751013472763756800,4.9357568359375,-0.018129203468561172,0.02755572833120823,-0.0357646569609642
1751013472773700900,4.945700927734375,-0.030422087758779526,0.023196399211883545,-0.04013090953230858
1751013472783644000,4.955643798828125,-0.03644722327589989,0.03020876832306385,-0.04373522847890854
1751013472793587000,4.9655869140625,-0.042638540267944336,0.03934580832719803,-0.044607147574424744
1751013472803531000,4.975531005859375,-0.041316546499729156,0.04195756837725639,-0.04830441623926163
1751013472813474000,4.98547412109375,-0.039994288235902786,0.04236609861254692,-0.058633752167224884
1751013472823416800,4.995416748046875,-0.04404628649353981,0.05465925112366676,-0.05687420070171356
1751013472833360000,5.00535986328125,-0.03678011894226074,0.0627259686589241,-0.04423297569155693
1751013472843304000,5.015303955078125,-0.03127057105302811,0.048344362527132034,-0.018155833706259727
1751013472853247000,5.0252470703125,-0.019816048443317413,0.0075671058148145676,0.021829131990671158
1751013472863190000,5.03518994140625,-0.016525181010365486,-0.04595710709691048,0.06562002003192902
1751013472873133800,5.0451337890625,-0.028004735708236694,-0.11872106045484543,0.11220510303974152
1751013472883076900,5.055076904296875,-0.06347830593585968,-0.153485968708992,0.1378076672554016
1751013472893020000,5.06502001953125,-0.1367914080619812,-0.1666499674320221,0.13076041638851166
1751013472902964000,5.0749638671875,-0.17243409156799316,-0.14227165281772614,0.07381217181682587
1751013472912907000,5.084906982421875,-0.15532568097114563,-0.10130957514047623,0.022764701396226883
1751013472922849800,5.094849853515625,-0.11851280182600021,-0.08880364149808884,-0.014536865055561066
1751013472932792800,5.104792724609375,-0.08696525543928146,-0.0807771384716034,-0.03339630737900734
1751013472942737000,5.11473681640625,-0.07774912565946579,-0.06203780323266983,-0.041366081684827805
1751013472952680000,5.124679931640625,-0.07749638706445694,-0.032532110810279846,-0.03879133611917496
1751013472962623000,5.134623046875,-0.07385425269603729,0.012894227169454098,-0.040395624935626984
1751013472972566800,5.14456689453125,-0.06677024066448212,0.061043113470077515,-0.06139518320560455
1751013472982509800,5.154509765625,-0.04160070791840553,0.07605934888124466,-0.0884917825460434
1751013472992452900,5.164452880859375,-0.015074823051691055,0.056841179728507996,-0.09852337837219238
1751013473002396000,5.17439599609375,-0.002326803747564554,0.017734255641698837,-0.08576976507902145
1751013473012339700,5.184339599609375,-0.01512968447059393,-0.01696407049894333,-0.05416256934404373
1751013473022282800,5.19428271484375,-0.03398086875677109,-0.023061111569404602,-0.020314060151576996
1751013473032225800,5.204225830078125,-0.05536685138940811,-0.01948981173336506,0.00509862182661891
1751013473042169900,5.214169921875,-0.0678781196475029,-0.027754932641983032,0.011224690824747086
1751013473052113000,5.22411279296875,-0.08070949465036392,-0.04326651245355606,0.006585997529327869
1751013473062056000,5.234055908203125,-0.08274973928928375,-0.050998203456401825,-0.010448645800352097
1751013473071999700,5.243999755859375,-0.07822716236114502,-0.046909984201192856,-0.02412957139313221
1751013473081942800,5.25394287109375,-0.07118123769760132,-0.04886634275317192,-0.03423067554831505
1751013473091885800,5.2638857421875,-0.06600884348154068,-0.0473153181374073,-0.03260454908013344
1751013473101828900,5.273828857421875,-0.0695098340511322,-0.03255075216293335,-0.012680108658969402
1751013473111772700,5.283772705078125,-0.07214343547821045,-0.023367639631032944,0.013395167887210846
1751013473121715700,5.2937158203125,-0.06821048259735107,-0.02149224281311035,0.04104756936430931
1751013473131658800,5.30365869140625,-0.04992441460490227,-0.019834958016872406,0.05782148614525795
1751013473141602800,5.313602783203125,-0.027995947748422623,-0.004057059530168772,0.06534944474697113
1751013473151545900,5.3235458984375,-0.023429425433278084,-0.01787726767361164,0.05871524289250374
1751013473161489000,5.333489013671875,-0.02129383757710457,-0.01774171181023121,0.049500707536935806
1751013473171433000,5.343432861328125,-0.01906397193670273,-0.014491590671241283,0.0423613041639328
1751013473181375700,5.353375732421875,-0.015430888161063194,-0.010761833749711514,0.023433953523635864
1751013473191318800,5.36331884765625,-0.025064872577786446,-0.018918829038739204,0.003853061469271779
1751013473201261800,5.37326171875,-0.022534070536494255,-0.024396685883402824,-0.010832141153514385
1751013473211206000,5.383205810546875,-0.022544456645846367,-0.020717795938253403,-0.023668844252824783
1751013473221149000,5.39314892578125,-0.019091403111815453,-0.012537629343569279,-0.031810127198696136
1751013473231091700,5.403091796875,-0.021193169057369232,-0.013762949965894222,-0.033427998423576355
1751013473241036000,5.4130361328125,-0.026315227150917053,-0.01745515689253807,-0.028065456077456474
1751013473250979000,5.42297900390625,-0.02845188044011593,-0.022300777956843376,-0.023074159398674965
1751013473260921900,5.432921875,-0.034508708864450455,-0.027961859479546547,-0.016514528542757034
1751013473270865000,5.442864990234375,-0.04014129564166069,-0.030494792386889458,-0.018024805933237076
1751013473280809000,5.45280908203125,-0.03795483708381653,-0.028306739404797554,-0.026754915714263916
1751013473290752000,5.462751953125,-0.03309297189116478,-0.018039986491203308,-0.03257179260253906
1751013473300695000,5.472695068359375,-0.025551965460181236,-0.00003488740912871435,-0.03208310157060623
1751013473310638800,5.482638916015625,-0.023385483771562576,0.015321431681513786,-0.024816665798425674
1751013473320582000,5.492581787109375,-0.024215057492256165,0.018326010555028915,-0.016439426690340042
1751013473330525000,5.50252490234375,-0.019410982728004456,0.021042700856924057,-0.009277387522161007
1751013473340469000,5.512468994140625,-0.017356885597109795,0.026161562651395798,-0.004857605788856745
1751013473350411800,5.522411865234375,-0.019960392266511917,0.02864016592502594,-0.00029827404068782926
1751013473360354800,5.532354736328125,-0.023028885945677757,0.028688902035355568,-0.008070709183812141
1751013473370297900,5.5422978515625,-0.0252198688685894,0.029760824516415596,-0.01750921830534935
1751013473380245500,5.55224560546875,-0.02395513467490673,0.035114578902721405,-0.020955881103873253
1751013473390188500,5.5621884765625,-0.02214072272181511,0.03995274379849434,-0.02768435887992382
1751013473400131600,5.572131591796875,-0.0243759136646986,0.03497130051255226,-0.03308924287557602
1751013473410075400,5.582075439453125,-0.021615812554955482,0.0355854257941246,-0.028540564700961113
1751013473420018400,5.592018310546875,-0.013081713579595089,0.03506983816623688,-0.025772208347916603
1751013473429961500,5.60196142578125,-0.007846471853554249,0.02803696133196354,-0.03307512775063515
1751013473439905300,5.6119052734375,-0.007901332341134548,0.019930299371480942,-0.02924390509724617
1751013473449848300,5.621848388671875,-0.007927165366709232,0.012314722873270512,-0.021919414401054382
1751013473459791400,5.631791259765625,-0.00802996288985014,0.010201504454016685,-0.00926114246249199
1751013473469734400,5.641734375,-0.0008274441352114081,0.007405185606330633,0.007701595313847065
1751013473479678500,5.651678466796875,0.00515801040455699,0.0008934905636124313,0.03339257836341858
1751013473489621500,5.66162158203125,0.008117581717669964,-0.013248959556221962,0.04783330112695694
1751013473499564300,5.671564208984375,0.011007376946508884,-0.01967729814350605,0.055150337517261505
1751013473509508400,5.68150830078125,0.013483584858477116,-0.019633090123534203,0.04675126075744629
1751013473519451400,5.691451416015625,0.018219217658042908,-0.007330616936087608,0.03791942074894905
1751013473529394400,5.70139453125,0.022818230092525482,-0.001062334980815649,0.02154763601720333
1751013473539337500,5.71133740234375,0.02484995685517788,0.004636829718947411,-0.0011467571603134274
1751013473549281300,5.72128125,0.022638466209173203,0.013650298118591309,-0.01865624263882637
1751013473559224300,5.731224365234375,0.022070948034524918,0.017798971384763718,-0.023795077577233315
1751013473569167400,5.74116748046875,0.01980113610625267,0.024228906258940697,-0.015898272395133972
1751013473579111400,5.751111328125,0.016754744574427605,0.02984577976167202,-0.002043443499132991
1751013473589054500,5.761054443359375,0.018692728132009506,0.034269824624061584,0.012657205574214458
1751013473598997200,5.770997314453125,0.012015650048851967,0.03081676922738552,0.023126624524593353
1751013473608941300,5.78094140625,0.012938168831169605,0.020074907690286636,0.018755577504634857
1751013473618884400,5.79088427734375,0.005242965184152126,0.007938883267343044,0.0013662016717717052
1751013473628827400,5.800827392578125,0.00780705688521266,0.0013108078856021166,-0.013016732409596443
1751013473638770400,5.8107705078125,0.003919906914234161,-0.0008130630594678223,-0.018339326605200768
1751013473648714200,5.82071435546875,0.005357214715331793,0.003890878288075328,-0.013826332986354828
1751013473658657300,5.8306572265625,0.007467237301170826,0.01775050163269043,-0.003916178364306688
1751013473668600300,5.840600341796875,0.012617524713277817,0.02250451035797596,0.009408415295183659
1751013473678544400,5.85054443359375,0.01619335077702999,0.017655426636338234,0.0126393623650074
1751013473688487200,5.860487060546875,0.013769341632723808,0.0164953526109457,0.011258247308433056
1751013473698430200,5.87043017578125,0.015425029210746288,0.012036156840622425,-0.0030951257795095444
1751013473708373200,5.880373291015625,0.017607223242521286,0.005110073368996382,-0.013885455206036568
1751013473718317300,5.8903173828125,0.020654944702982903,0.004452006425708532,-0.019593941047787666
1751013473728260400,5.90026025390625,0.023075224831700325,0.009585515595972538,-0.01618429645895958
1751013473738203400,5.910203369140625,0.02130475640296936,0.003353186184540391,-0.007331149652600288
1751013473748147200,5.920147216796875,0.018157964572310448,-0.00803022924810648,-0.0065377941355109215
1751013473758090200,5.93009033203125,0.01617790386080742,-0.008904545567929745,-0.0008777778712101281
1751013473768033300,5.940033203125,0.013618607074022293,-0.004229099955409765,0.005025118589401245
1751013473777977300,5.949977294921875,0.009468869306147099,0.004619252867996693,0.00939137116074562
1751013473787920400,5.95992041015625,0.010685933753848076,0.013432451523840427,0.012865198776125908
1751013473797863200,5.96986328125,0.011266502551734447,0.015477493405342102,0.013585050590336323
1751013473807806200,5.97980615234375,0.012705142609775066,0.006016347091645002,0.014330736361443996
1751013473817750500,5.98975048828125,0.009281382896006107,0.005628058221191168,0.016451677307486534
1751013473827693600,5.999693603515625,0.002977414056658745,0.003942277282476425,0.02298627607524395
1751013473837636400,6.00963623046875,-0.0011470235185697675,0.007457649800926447,0.019950006157159805
1751013473847580400,6.019580322265625,-0.0037382792215794325,0.02334846556186676,0.02165176533162594
1751013473857523500,6.0295234375,-0.00974477268755436,0.03464559465646744,0.012397014535963535
1751013473867466500,6.039466552734375,-0.013398629613220692,0.03376834839582443,0.0013145363191142678
1751013473877410300,6.049410400390625,-0.019879166036844254,0.017424529418349266,-0.009338906966149807
1751013473887353300,6.059353271484375,-0.022339927032589912,0.007107444107532501,-0.013814881443977356
1751013473897296400,6.06929638671875,-0.02677115984261036,0.00014514227223116904,0.0006450176006183028
1751013473907239400,6.079239501953125,-0.02754960209131241,0.005614209920167923,0.026071814820170403
1751013473917183500,6.08918359375,-0.027518710121512413,0.015058311633765697,0.05547524243593216
1751013473927126500,6.09912646484375,-0.02201928198337555,0.027513382956385612,0.08116196095943451
1751013473937069300,6.1090693359375,-0.008581770583987236,0.03929813578724861,0.08538281172513962
1751013473947013400,6.119013427734375,-0.004429635591804981,0.04633607342839241,0.07550621032714844
1751013473956956400,6.128956298828125,-0.002569684060290456,0.0435810312628746,0.05625900998711586
1751013473966899500,6.1388994140625,0.0004697816038969904,0.034396857023239136,0.03358379378914833
1751013473976843300,6.14884326171875,0.006375607568770647,0.025588184595108032,0.019591543823480606
1751013473986786300,6.158786376953125,0.008196943439543247,0.01587829925119877,0.017124924808740616
1751013473996729300,6.168729248046875,0.0030807447619736195,0.014570953324437141,0.020720457658171654
1751013474006672400,6.17867236328125,-0.0013076120521873236,0.022525548934936523,0.02449948340654373
1751013474016616400,6.188616455078125,-0.0038312235847115517,0.021146830171346664,0.035106588155031204
1751013474026559200,6.198559326171875,-0.008711732923984528,0.01895212009549141,0.04650012403726578
1751013474036502300,6.208502197265625,-0.01068114023655653,0.007552991155534983,0.05783240869641304
1751013474046446300,6.2184462890625,-0.011188738979399204,0.0010551444720476866,0.07178204506635666
1751013474056389400,6.228389404296875,-0.008412126451730728,0.005209143273532391,0.08912854641675949
1751013474066332400,6.23833251953125,-0.006306897848844528,0.01937263272702694,0.09655450284481049
1751013474076275500,6.248275390625,-0.0062339273281395435,0.027301128953695297,0.08700786530971527
1751013474086219300,6.25821923828125,-0.005643771030008793,0.031565647572278976,0.0711468830704689
1751013474096162300,6.268162353515625,-0.0068211546167731285,0.032997097820043564,0.04904690384864807
1751013474106105300,6.278105224609375,-0.009273393079638481,0.0387580469250679,0.018266089260578156
1751013474116049400,6.28804931640625,-0.013467338867485523,0.03779345005750656,-0.010175406001508236
1751013474125992200,6.2979921875,-0.006623281631618738,0.040888577699661255,-0.031673505902290344
1751013474135935200,6.307935302734375,-0.005138569511473179,0.03964408114552498,-0.0419599674642086
1751013474145879300,6.31787939453125,0.0025300029665231705,0.04355946183204651,-0.03682885318994522
1751013474155822300,6.327822265625,0.0029800771735608578,0.052142564207315445,-0.01576165296137333
1751013474165765400,6.337765380859375,0.0028847360517829657,0.053588125854730606,0.012409531511366367
1751013474175708400,6.34770849609375,0.005402488633990288,0.047451406717300415,0.038065627217292786
1751013474185652200,6.35765234375,0.007203318178653717,0.037764158099889755,0.05751575529575348
1751013474195595300,6.36759521484375,0.006588660646229982,0.021638182923197746,0.06491827964782715
1751013474205538300,6.377538330078125,0.0020061591640114784,0.00983478780835867,0.05571306496858597
1751013474215482400,6.387482421875,0.002332396572455764,-0.0032495891209691763,0.040176715701818466
1751013474225425200,6.397425048828125,-0.0022021678742021322,-0.004602475091814995,0.026154905557632446
1751013474235368200,6.4073681640625,0.0026045716367661953,0.0018287927377969027,0.015801865607500076
1751013474245312500,6.4173125,0.005709018558263779,0.012207397259771824,0.006732471287250519
1751013474255255600,6.427255615234375,0.003769704606384039,0.003952929750084877,0.002879942301660776
1751013474265198600,6.437198486328125,0.0051905009895563126,0.006197175942361355,0.0006343649583868682
1751013474275141000,6.44714111328125,0.006444583646953106,0.014622618444263935,0.002323075430467725
1751013474285085400,6.45708544921875,0.006341519299894571,0.020903417840600014,0.008882175199687481
1751013474295028500,6.467028564453125,0.012975187040865421,0.030404778197407722,0.011068896390497684
1751013474304971500,6.476971435546875,0.011431352235376835,0.032644763588905334,0.013442572206258774
1751013474314915300,6.486915283203125,0.012557869777083397,0.0289970301091671,0.011214571073651314
1751013474324858400,6.4968583984375,0.010714163072407246,0.02678207866847515,0.014231400564312935
1751013474334801400,6.506801513671875,0.0065561700612306595,0.021077854558825493,0.0048767803236842155
1751013474344745500,6.516745361328125,-0.0008815063047222793,0.021769477054476738,0.00037683729897253215
1751013474354688500,6.5266884765625,-0.010231065563857555,0.017965417355298996,-0.002472745021805167
1751013474364631300,6.53663134765625,-0.01236505713313818,0.014990135096013546,0.0035260252188891172
1751013474374574300,6.54657421875,-0.011461179703474045,0.012782907113432884,0.009972472675144672
1751013474384513800,6.556513671875,-0.010523747652769089,0.017645839601755142,0.019359583035111427
1751013474394456800,6.566456787109375,-0.01305375061929226,0.02496686950325966,0.024562867358326912
1751013474404399900,6.57639990234375,-0.008266984485089779,0.03568049892783165,0.025356754660606384
1751013474414344000,6.586343994140625,-0.003156911116093397,0.04182680696249008,0.014969361945986748
1751013474424286700,6.59628662109375,0.0009672601008787751,0.04146302118897438,-0.005993976723402739
1751013474434229800,6.606229736328125,0.004338289611041546,0.030950192362070084,-0.02640604041516781
1751013474444173800,6.616173828125,0.002514290390536189,0.018026936799287796,-0.04012718051671982
1751013474454116900,6.626116943359375,0.005391569808125496,0.004583566449582577,-0.03759424760937691
1751013474464060000,6.636059814453125,0.0027087011840194464,-0.012095012702047825,-0.019152123481035233
1751013474474003000,6.6460029296875,-0.008709335699677467,-0.023908529430627823,0.003631752682849765
1751013474483946800,6.65594677734375,-0.010380735620856285,-0.024923458695411682,0.021141238510608673
1751013474493889800,6.665889892578125,-0.011759720742702484,-0.012825783342123032,0.027547471225261688
1751013474503832800,6.675832763671875,-0.011361843906342983,-0.0017630126094445586,0.02846253477036953
1751013474513777000,6.68577685546875,-0.009326389990746975,0.006347111891955137,0.009549296461045742
1751013474523719700,6.6957197265625,-0.007187605369836092,0.012177304364740849,-0.008413990959525108
1751013474533662700,6.705662841796875,-0.006418484263122082,0.01543355081230402,-0.030176278203725815
1751013474543606800,6.715606689453125,-0.004661597311496735,0.020539363846182823,-0.04489423707127571
1751013474553549800,6.7255498046875,0.000005592638444795739,0.01534699834883213,-0.05178596451878548
1751013474563492900,6.735492919921875,-0.0020961740519851446,0.019093533977866173,-0.05690988898277283
1751013474573436000,6.745435791015625,0.00001997370782191865,0.017241304740309715,-0.056170862168073654
1751013474583379700,6.755379638671875,0.0007265103631652892,0.017233848571777344,-0.059590358287096024
1751013474593322800,6.76532275390625,0.0023161512799561024,0.022190257906913757,-0.06123459339141846
1751013474603265800,6.775265869140625,0.000559263804461807,0.021579859778285027,-0.0601126067340374
1751013474613209900,6.7852099609375,-0.003728159237653017,0.025195633992552757,-0.06036240980029106
1751013474623153000,6.79515283203125,-0.0011832424206659198,0.02262994460761547,-0.048715606331825256
1751013474633095700,6.805095703125,0.000713993504177779,0.014608236961066723,-0.026322416961193085
1751013474643040000,6.8150400390625,0.001633316627703607,0.006483998149633408,-0.0008892294717952609
1751013474652983000,6.824983154296875,0.002243713242933154,0.003337739733979106,0.02725558914244175
1751013474662926000,6.834926025390625,0.007936219684779644,-0.0003304982965346426,0.05331435427069664
1751013474672868900,6.844868896484375,0.008769789710640907,-0.006659500766545534,0.062012504786252975
1751013474682813000,6.85481298828125,0.007327155210077763,-0.011215103790163994,0.05282380059361458
1751013474692756000,6.864755859375,0.005403553601354361,-0.013335512951016426,0.03615347668528557
1751013474702699000,6.874698974609375,0.009051818400621414,-0.014821290038526058,0.01501170638948679
1751013474712642800,6.884642822265625,0.006166016682982445,-0.0076422072015702724,-0.008292551152408123
1751013474722585900,6.8945859375,0.006791593506932259,0.01483327429741621,-0.02647927775979042
1751013474732529000,6.90452880859375,0.013314207084476948,0.034145187586545944,-0.034820299595594406
1751013474742473000,6.914472900390625,0.012368518859148026,0.032517462968826294,-0.029223399236798286
1751013474752416000,6.924416015625,0.01155439019203186,0.02160942181944847,-0.017246365547180176
1751013474762358800,6.93435888671875,0.010130397975444794,0.012498481199145317,0.009342368692159653
1751013474772301800,6.9443017578125,0.009906427003443241,0.01564713567495346,0.03349990397691727
1751013474782246000,6.954245849609375,0.00947898905724287,0.015086274594068527,0.04748336225748062
1751013474792189000,6.96418896484375,0.004677309654653072,0.005714611150324345,0.04283135384321213
1751013474802132000,6.974132080078125,0.00216568261384964,-0.006759369280189276,0.02466806210577488
1751013474812075800,6.98407568359375,-0.005336974747478962,-0.015079882927238941,-0.00023542344570159912
1751013474822018800,6.994018798828125,-0.007908789440989494,-0.013883325271308422,-0.01938807964324951
1751013474831961900,7.0039619140625,-0.012151737697422504,-0.01095651090145111,-0.034279145300388336
1751013474841906000,7.013906005859375,-0.011420433409512043,0.002100168727338314,-0.04574298858642578
1751013474851849000,7.023848876953125,-0.006499178241938353,0.01932496204972267,-0.048951297998428345
1751013474861791700,7.033791748046875,-0.009353553876280785,0.02587953396141529,-0.042284607887268066
1751013474871735800,7.04373583984375,-0.006204632576555014,0.032455943524837494,-0.030008764937520027
1751013474881678800,7.053678955078125,-0.006022206041961908,0.04009229317307472,-0.014395451173186302
1751013474891622000,7.063621826171875,-0.004777444526553154,0.030838606879115105,-0.003805124433711171
1751013474901565000,7.07356494140625,-0.004899151157587767,0.006570817437022924,0.0006567355012521148
1751013474911508700,7.0835087890625,-0.009928264655172825,-0.006272276863455772,0.00817830115556717
1751013474921451800,7.09345166015625,-0.021616877987980843,-0.012734703719615936,0.015443405136466026
1751013474931394800,7.103394775390625,-0.022887738421559334,-0.02317322976887226,0.021649101749062538
1751013474941339000,7.1133388671875,-0.023431023582816124,-0.0237045306712389,0.021763352677226067
1751013474951281700,7.12328173828125,-0.018693527206778526,-0.01483673695474863,0.020362263545393944
1751013474961224700,7.133224609375,-0.016774453222751617,0.001377919572405517,0.012208729051053524
1751013474971168800,7.143168701171875,-0.01702798530459404,0.022493325173854828,-0.0004820321628358215
1751013474981111800,7.15311181640625,-0.013740313239395618,0.03386981785297394,-0.01696833036839962
1751013474991054800,7.163054931640625,-0.017188308760523796,0.029202893376350403,-0.03912796080112457
1751013475000998000,7.172997802734375,-0.02207973599433899,0.01673583686351776,-0.058336276561021805
1751013475010941700,7.182941650390625,-0.02497725561261177,0.0024868599139153957,-0.058649998158216476
1751013475020884700,7.192884765625,-0.027178358286619186,-0.002936401404440403,-0.05113641917705536
1751013475030827800,7.202827880859375,-0.028905684128403664,-0.005447762086987495,-0.02526594139635563
1751013475040771800,7.212771728515625,-0.027039073407649994,0.0033965955954045057,0.00395825644955039
1751013475050715000,7.22271484375,-0.03021542727947235,0.007863515987992287,0.030855916440486908
1751013475060657700,7.23265771484375,-0.026985811069607735,0.007731422781944275,0.04201669245958328
1751013475070602000,7.24260205078125,-0.023725569248199463,0.00700970645993948,0.04115036502480507
1751013475080545000,7.252544921875,-0.017110010609030724,0.012112323194742203,0.033601634204387665
1751013475090488000,7.262488037109375,-0.01104492787271738,0.022829415276646614,0.01587750017642975
1751013475100430800,7.272430908203125,-0.00304718897677958,0.0294289942830801,-0.001160339335910976
1751013475110375000,7.282375,-0.0005030711181461811,0.03193609416484833,-0.016807476058602333
1751013475120318000,7.29231787109375,-0.005557750817388296,0.02894669584929943,-0.02129543572664261
1751013475130261000,7.302260986328125,-0.009079515002667904,0.01876862719655037,-0.01841549202799797
1751013475140204800,7.312204833984375,-0.017173394560813904,0.005322327371686697,-0.01179514080286026
1751013475150147800,7.32214794921875,-0.01966691203415394,-0.00038988678716123104,-0.00484402384608984
1751013475160091000,7.3320908203125,-0.01780562847852707,0.001865277998149395,0.003828826593235135
1751013475170035000,7.342034912109375,-0.008005994372069836,0.013542973436415195,0.015361911617219448
1751013475179978000,7.35197802734375,-0.003418966196477413,0.024349281564354897,0.017107613384723663
1751013475189921000,7.361921142578125,0.00170815153978765,0.033301498740911484,0.013127786107361317
1751013475199863800,7.37186376953125,0.007918110117316246,0.028385302051901817,-0.0035534559283405542
1751013475209808000,7.381807861328125,0.00780652416869998,0.026619892567396164,-0.020974524319171906
1751013475219751000,7.3917509765625,0.007631287910044193,0.02286270447075367,-0.0378057025372982
1751013475229694000,7.40169384765625,0.007376689929515123,0.02612001821398735,-0.052138835191726685
1751013475239637800,7.4116376953125,0.007620102725923061,0.03694869577884674,-0.05862496420741081
1751013475249580800,7.421580810546875,0.002517486223950982,0.042565036565065384,-0.049908436834812164
1751013475259523800,7.43152392578125,-0.000895621080417186,0.03634389117360115,-0.03684749826788902
1751013475269468000,7.441468017578125,-0.005820338614284992,0.02923831343650818,-0.020372383296489716
1751013475279411000,7.451410888671875,-0.003992078360170126,0.015845276415348053,-0.00863476749509573
1751013475289353700,7.461353759765625,-0.003581685246899724,0.009065666235983372,-0.0023611586075276136
1751013475299296800,7.471296875,-0.00242161238566041,0.010816162452101707,-0.003477555699646473
1751013475309240800,7.48124072265625,0.0010330402292311192,0.01895318552851677,-0.006101568229496479
1751013475319184000,7.491183837890625,0.003629888640716672,0.031183218583464622,-0.013405820354819298
1751013475329127000,7.501126953125,0.005816077347844839,0.03191026300191879,-0.01842188462615013
1751013475339070700,7.51107080078125,0.008989766240119934,0.029998112469911575,-0.015993347391486168
1751013475349013800,7.521013671875,0.005073854699730873,0.028620192781090736,-0.010632137767970562
1751013475358956800,7.530956787109375,0.007191333919763565,0.022896261885762215,-0.0014650048688054085
1751013475368900900,7.54090087890625,0.006511961575597525,0.028066787868738174,0.003936684690415859
1751013475378844000,7.550843994140625,0.008011587895452976,0.025900572538375854,0.006445648614317179
1751013475388790800,7.560790771484375,0.006620352156460285,0.025680063292384148,0.004198473412543535
1751013475398734800,7.57073486328125,0.006966296583414078,0.021988390013575554,-0.004850415047258139
1751013475408678000,7.580677978515625,0.009770605713129044,0.024028370156884193,-0.01846529357135296
1751013475418621000,7.590620849609375,0.015370434150099754,0.029876139014959335,-0.03417368233203888
1751013475428563700,7.600563720703125,0.023144200444221497,0.03617877513170242,-0.04100282862782478
1751013475438507800,7.6105078125,0.02762683480978012,0.036745231598615646,-0.040553018450737
1751013475448450800,7.620450927734375,0.023426495492458344,0.02659991942346096,-0.034806184470653534
1751013475458393900,7.630393798828125,0.02905162423849106,0.009815080091357231,-0.028012992814183235
1751013475468337700,7.640337646484375,0.017890583723783493,0.004691957030445337,-0.02377510443329811
1751013475478280700,7.65028076171875,0.00980549305677414,0.003323092358186841,-0.02617407962679863
1751013475488223700,7.6602236328125,-0.0003427488263696432,0.002126534003764391,-0.033903371542692184
1751013475498167800,7.670167724609375,-0.0035481294617056847,0.005249356850981712,-0.0407429039478302
1751013475508110800,7.68011083984375,-0.006765228230506182,0.012606605887413025,-0.04639865830540657
1751013475518054000,7.690053955078125,-0.00455640209838748,0.020382769405841827,-0.04872679337859154
1751013475527996700,7.69999658203125,0.00015686018741689622,0.028676118701696396,-0.039807867258787155
1751013475537940700,7.709940673828125,0.007110107224434614,0.04416053742170334,-0.027712587267160416
1751013475547883800,7.7198837890625,0.012721920385956764,0.05235747992992401,-0.01931857131421566
1751013475557826800,7.729826904296875,0.010810569860041142,0.045517150312662125,-0.019626963883638382
1751013475567771000,7.73977099609375,0.011126154102385044,0.024401746690273285,-0.027949076145887375
1751013475577714000,7.7497138671875,0.009529856033623219,0.004294081125408411,-0.03762593865394592
1751013475587657000,7.759656982421875,0.0023214775137603283,-0.004369182046502829,-0.034802187234163284
1751013475597601000,7.76960107421875,-0.0057553574442863464,-0.005593969952315092,-0.024473916739225388
1751013475607544000,7.7795439453125,-0.0073266224935650826,0.0014865765115246177,-0.01293177716434002
1751013475617486800,7.78948681640625,-0.00484215933829546,0.015082546509802341,0.0062523032538592815
1751013475627430000,7.799429931640625,-0.005483714863657951,0.022186262533068657,0.02407923713326454
1751013475637374000,7.8093740234375,-0.003553189570084214,0.02822977304458618,0.023782294243574142
1751013475647317000,7.81931689453125,-0.0010463559301570058,0.02381984516978264,0.01594647578895092
1751013475657260000,7.829260009765625,-0.0002748382103163749,0.01607191003859043,-0.008783637546002865
1751013475667203800,7.839203857421875,0.0024232103023678064,0.016640495508909225,-0.036137498915195465
1751013475677147000,7.84914697265625,0.003980360459536314,0.02371864579617977,-0.0566805899143219
1751013475687090000,7.85908984375,0.003989148885011673,0.031611453741788864,-0.06586769968271255
1751013475697034000,7.869033935546875,0.0011672634864225984,0.02689899131655693,-0.0660538524389267
1751013475706976800,7.878976806640625,-0.0006697850185446441,0.021452028304338455,-0.05044186860322952
1751013475716919800,7.888919921875,-0.004159324802458286,0.0022149509750306606,-0.03033047541975975
1751013475726862800,7.89886279296875,-0.006345780100673437,-0.013099823147058487,-0.006688529159873724
1751013475736807000,7.908806884765625,-0.0020700751338154078,-0.020429374650120735,0.013292902149260044
1751013475746750000,7.91875,0.0005763080553151667,-0.0059838565066456795,0.02257401868700981
1751013475756693000,7.92869287109375,0.004740959499031305,0.008822520263493061,0.017962755635380745
1751013475766636800,7.93863671875,0.009228918701410294,0.022337263450026512,0.005930593237280846
1751013475776579800,7.948579833984375,0.013515808619558811,0.03315981850028038,-0.009868077002465725
1751013475786523000,7.95852294921875,0.011574364267289639,0.0314258337020874,-0.02797091379761696
1751013475796467000,7.968467041015625,0.004923652391880751,0.029266541823744774,-0.03232438489794731
1751013475806409700,7.97840966796875,0.005307147279381752,0.0278521366417408,-0.035599008202552795
1751013475816352800,7.988352783203125,-0.004013650119304657,0.01709882542490959,-0.034985680133104324
1751013475826295800,7.9982958984375,-0.008279501460492611,0.008537028916180134,-0.028475848957896233
1751013475836240000,8.008239990234374,-0.013409015722572803,0.005850432440638542,-0.0287669338285923
1751013475846183000,8.018182861328125,-0.015668975189328194,0.010940532200038433,-0.02833869680762291
1751013475856126000,8.0281259765625,-0.013408483006060123,0.01401515118777752,-0.025588717311620712
1751013475866069800,8.03806982421875,-0.011157579720020294,0.01906743459403515,-0.024053404107689857
1751013475876012800,8.0480126953125,-0.011146660894155502,0.022893065586686134,-0.019346000626683235
1751013475885955800,8.057955810546876,-0.011952533386647701,0.023845411837100983,-0.017172861844301224
1751013475895899600,8.067899658203125,-0.007951133884489536,0.020137758925557137,-0.015237276442348957
1751013475905842700,8.0778427734375,-0.006251237820833921,0.02251036837697029,-0.009973271749913692
1751013475915785700,8.08778564453125,-0.00714685907587409,0.017917215824127197,-0.006168147549033165
1751013475925728800,8.097728759765625,-0.004376372788101435,0.016170714050531387,-0.006383863277733326
1751013475935672800,8.1076728515625,-0.006530869752168655,0.013214338570833206,-0.007223824504762888
1751013475945616000,8.117615966796874,-0.009667807258665562,0.01055969949811697,-0.004485828336328268
1751013475955558700,8.12755859375,-0.013677995651960373,0.012808206491172314,-0.005309277679771185
1751013475965502700,8.137502685546876,-0.014901185408234596,0.019184080883860588,-0.003914846573024988
1751013475975445800,8.14744580078125,-0.017716413363814354,0.026980219408869743,-0.009609750472009182
1751013475985388800,8.157388916015625,-0.016742493957281113,0.029694246128201485,-0.020664798095822334
1751013475995332900,8.167332763671874,-0.015898272395133972,0.028056668117642403,-0.034155573695898056
1751013476005276000,8.17727587890625,-0.01962323673069477,0.018430938944220543,-0.04073784127831459
1751013476015219000,8.187218994140625,-0.016986440867185593,0.022184398025274277,-0.046305447816848755
1751013476025161700,8.19716162109375,-0.018492991104722023,0.027883296832442284,-0.048169393092393875
1751013476035106000,8.20710595703125,-0.02273647114634514,0.02978000044822693,-0.049190983176231384
1751013476045048800,8.217048828125,-0.023742880672216415,0.02665664441883564,-0.04358289763331413
1751013476054992000,8.226991943359375,-0.022770293056964874,0.019534818828105927,-0.035597141832113266
1751013476064936000,8.23693603515625,-0.024814270436763763,0.008987636305391788,-0.020230436697602272
1751013476074879000,8.24687890625,-0.02076280303299427,0.002965163439512253,-0.009090966545045376
1751013476084822000,8.256822021484375,-0.012601811438798904,0.008377771824598312,0.008371380157768726
1751013476094765800,8.266765869140626,-0.007801197934895754,0.021208615973591805,0.017523333430290222
1751013476104708900,8.276708984375,-0.00023515711654908955,0.0363505519926548,0.026970364153385162
1751013476114652000,8.28665185546875,0.0059963734820485115,0.043654534965753555,0.023507190868258476
1751013476124595000,8.296594970703126,0.005136971361935139,0.038111697882413864,0.023240873590111732
1751013476134539000,8.3065390625,0.008472047746181488,0.02676849626004696,0.012634302489459515
1751013476144481800,8.316481689453125,0.01113547571003437,0.025003885850310326,0.008304002694785595
1751013476154424800,8.3264248046875,0.0028788771014660597,0.025598570704460144,-0.00021305288828443736
1751013476164369000,8.336368896484375,-0.0036599822342395782,0.01787620224058628,-0.004549744538962841
1751013476174312000,8.34631201171875,-0.0043803672306239605,0.018635204061865807,0.0022892532870173454
1751013476184255000,8.3562548828125,-0.005732986610382795,0.01673903316259384,0.009267267771065235
1751013476194198800,8.36619873046875,-0.012023639865219593,0.01170459296554327,0.013109942898154259
1751013476204141800,8.376141845703126,-0.014334464445710182,0.010928281582891941,0.011619637720286846
1751013476214084900,8.3860849609375,-0.01134027261286974,0.013945110142230988,0.005502623505890369
1751013476224028000,8.39602783203125,-0.009230249561369419,0.01961817592382431,-0.010839864611625671
1751013476233971700,8.4059716796875,-0.0031073763966560364,0.031262580305337906,-0.024042751640081406
1751013476243914800,8.415914794921875,-0.0011283813510090113,0.03936897590756416,-0.0380091667175293
1751013476253857800,8.42585791015625,-0.00019867181254085153,0.04128432273864746,-0.042700592428445816
1751013476263801900,8.4358017578125,0.0011560781858861446,0.03494653105735779,-0.04141481593251228
1751013476273745000,8.445744873046875,-0.001014398061670363,0.02124243788421154,-0.03181944787502289
1751013476283688000,8.45568798828125,-0.00042504051816649735,0.013321930542588234,-0.025117604061961174
1751013476293631700,8.4656318359375,-0.0013816480059176683,0.01594674214720726,-0.020302874967455864
1751013476303574800,8.47557470703125,0.006695719435811043,0.012459865771234035,-0.016636500135064125
1751013476313517800,8.485517822265624,0.006417152937501669,0.0049010151997208595,-0.014946192502975464
1751013476323460900,8.4954609375,0.006031527183949947,0.0001507349224993959,-0.016815731301903725
1751013476333404700,8.50540478515625,0.009289904497563839,0.0006540723843500018,-0.022065620869398117
1751013476343347700,8.51534765625,0.012684103101491928,0.005733519326895475,-0.03135392814874649
1751013476353290800,8.525290771484375,0.01696380414068699,-0.003141731023788452,-0.03972823917865753
1751013476363234800,8.53523486328125,0.022004101425409317,0.0005973470397293568,-0.039148733019828796
1751013476373177900,8.545177734375,0.012347213923931122,0.011894210241734982,-0.03693005442619324
1751013476383117300,8.555117431640625,0.012850284576416016,0.021097028627991676,-0.03749171644449234
1751013476393061000,8.56506103515625,0.009758355095982552,0.010236125439405441,-0.034093257039785385
1751013476403004200,8.575004150390624,0.004089550115168095,0.006432599388062954,-0.03394012525677681
1751013476412947200,8.584947265625,-0.00044048685231246054,0.007743140682578087,-0.028611937537789345
1751013476422890200,8.59489013671875,-0.00016192019393201917,0.022550849243998528,-0.013008209876716137
1751013476432834300,8.604834228515625,0.005565473809838295,0.031378161162137985,0.004602208733558655
1751013476442777000,8.614777099609375,0.007164968643337488,0.030973894521594048,0.007125020958483219
1751013476452720000,8.62472021484375,0.00863050576299429,0.02580869384109974,0.011779161170125008
1751013476462664400,8.63466455078125,0.007668306119740009,0.014968030154705048,0.019569972530007362
1751013476472607500,8.644607421875,0.0054826498962938786,0.010001767426729202,0.01732386276125908
1751013476482550300,8.65455029296875,0.0032258869614452124,0.007771370466798544,0.014653244987130165
1751013476492494300,8.664494384765625,0.0021574266720563173,0.008272577077150345,0.015309713780879974
1751013476502437400,8.674437255859376,0.0009358347742818296,0.019948141649365425,0.01522609032690525
1751013476512380400,8.68438037109375,0.0012415656819939613,0.033491380512714386,0.005948170088231564
1751013476522323500,8.694323486328125,0.0011329087428748608,0.036910880357027054,-0.006968959700316191
1751013476532267300,8.704267333984374,-0.00011424961121520028,0.04442179203033447,-0.024539431557059288
1751013476542210300,8.714210205078125,-0.0049436260014772415,0.04695499315857887,-0.03393959254026413
1751013476552153300,8.7241533203125,-0.004692756105214357,0.04243507608771324,-0.044564805924892426
1751013476562097400,8.734097412109374,-0.005362540949136019,0.028369588777422905,-0.04631290212273598
1751013476572040200,8.744040283203125,-0.006795587949454784,0.017479391768574715,-0.03897589445114136
1751013476581983200,8.753983154296876,-0.0029491845052689314,0.012602344155311584,-0.0255756676197052
1751013476591927300,8.76392724609375,-0.0062797339633107185,0.011285411193966866,-0.013065202161669731
1751013476601870300,8.773870361328125,-0.011897671967744827,0.00108284130692482,-0.003596598980948329
1751013476611813400,8.7838134765625,-0.014398113824427128,-0.0033593112602829933,0.0051774512976408005
1751013476621756400,8.79375634765625,-0.010155165567994118,-0.001755289500579238,0.011385013349354267
1751013476631700200,8.8037001953125,-0.00686003640294075,0.006418218370527029,0.015284414403140545
1751013476641643300,8.813643310546874,-0.0024229439441114664,0.01642291620373726,0.008302937261760235
1751013476651586300,8.82358642578125,-0.00034115093876607716,0.022891733795404434,0.004751079250127077
1751013476661530400,8.8335302734375,0.00355851580388844,0.03207750990986824,0.0005526058957912028
1751013476671473200,8.84347314453125,0.00743101816624403,0.04297702759504318,-0.00267780851572752
1751013476681416200,8.853416259765625,0.008150071837008,0.04134051501750946,-0.018754245713353157
1751013476691360300,8.8633603515625,0.004493551794439554,0.03538675233721733,-0.03929068148136139
1751013476701303300,8.87330322265625,-0.0013883059145882726,0.029635656625032425,-0.06647782772779465
1751013476711246300,8.883246337890625,-0.008585232309997082,0.01973029598593712,-0.08391247689723969
1751013476721189400,8.893189453125,-0.018801650032401085,0.006819556467235088,-0.08756260573863983
1751013476731133200,8.90313330078125,-0.023662984371185303,0.004122839774936438,-0.07367289066314697
1751013476741076200,8.913076171875,-0.024338629096746445,0.012355735525488853,-0.05408986657857895
1751013476751019300,8.923019287109375,-0.02056892402470112,0.02455061674118042,-0.03495931625366211
1751013476760963300,8.93296337890625,-0.017132380977272987,0.034438133239746094,-0.019638415426015854
1751013476770906000,8.942906005859374,-0.006159359123557806,0.03249669075012207,-0.011238539591431618
1751013476780849200,8.95284912109375,-0.00008335694292327389,0.0258044321089983,-0.011748002842068672
1751013476790793200,8.962793212890626,0.00027084347675554454,0.0229929331690073,-0.016534235328435898
1751013476800736300,8.972736328125,0.007758587133139372,0.022432338446378708,-0.03069239854812622
1751013476810679300,8.98267919921875,0.012880644761025906,0.024115189909934998,-0.03303172066807747
1751013476820622000,8.9926220703125,0.011918445117771626,0.015566176734864712,-0.03550153598189354
1751013476830566100,9.002566162109375,0.009561547078192234,0.007339671719819307,-0.026089923456311226
1751013476840509200,9.01250927734375,0.009212406352162361,0.0008990831556729972,-0.010611631907522678
1751013476850452200,9.0224521484375,0.003364105010405183,-0.0007965514669194818,0.004501008428633213
1751013476860396300,9.032396240234375,0.004343349486589432,0.00794127956032753,0.02448776550590992
1751013476870339000,9.042339111328126,0.006745786871761084,0.01950046420097351,0.0331433042883873
1751013476880282000,9.0522822265625,0.009276323020458221,0.023391874507069588,0.042102713137865067
1751013476890225200,9.06222509765625,0.0075718993321061134,0.019049590453505516,0.032346755266189575
1751013476900169500,9.07216943359375,0.0067716194316744804,0.007467237301170826,0.020683707669377327
1751013476910112300,9.0821123046875,0.006927148438990116,0.00631888210773468,0.0030242856591939926
1751013476920055300,9.09205517578125,0.002204298507422209,0.006207029335200787,-0.007227818947285414
1751013476929999400,9.101999267578124,0.003008306724950671,0.007119428366422653,-0.018041051924228668
1751013476939942400,9.1119423828125,-0.00033875409280881286,0.006737264804542065,-0.023272300139069557
1751013476949885400,9.121885498046876,0.004473844077438116,0.006114617921411991,-0.02172713354229927
1751013476959829200,9.131829345703125,0.0028045750223100185,0.004531634971499443,-0.009048622101545334
1751013476969772300,9.141772216796875,0.007194796111434698,0.005790244787931442,0.0051960935816168785
1751013476979715300,9.15171533203125,0.007936752401292324,0.005727660376578569,0.013338708318769932
1751013476989658400,9.161658447265625,0.01236532349139452,0.001868473831564188,0.01230646762996912
1751013476999602400,9.1716025390625,0.012028699740767479,0.0060110208578407764,-0.0032317459117621183
1751013477009545200,9.181545166015624,0.009995109401643276,0.0035364115610718727,-0.0160111915320158
1751013477019488300,9.19148828125,0.009543171152472496,0.005279717035591602,-0.03485092520713806
1751013477029432300,9.201432373046876,0.01239461824297905,0.0014958975370973349,-0.05006955936551094
1751013477039375400,9.211375244140624,0.012352806515991688,0.002662894781678915,-0.050023484975099564
1751013477049318400,9.221318359375,0.014882809482514858,0.01332672405987978,-0.0382256805896759
1751013477059262200,9.23126220703125,0.01955985277891159,0.021761754527688026,-0.01865730807185173
1751013477069205200,9.241205322265625,0.014427408576011658,0.017375795170664787,0.009411345236003399
1751013477079148300,9.251148193359375,0.01293523982167244,0.009518403559923172,0.027360783889889717
1751013477089091300,9.26109130859375,0.008829444646835327,0.004467452876269817,0.03749677538871765
1751013477099035100,9.27103515625,0.00811971165239811,-0.0016940367640927434,0.03874579817056656
1751013477108978200,9.280978271484376,0.007855792529881,-0.004229898564517498,0.03514440357685089
1751013477118921200,9.290921142578124,0.0073535204865038395,0.003893807763233781,0.030419157817959785
1751013477128865300,9.300865234375,0.009575662203133106,0.010700581595301628,0.025614283978939056
1751013477138808300,9.310808349609376,0.014699850231409073,0.014936871826648712,0.018743060529232025
1751013477148751400,9.32075146484375,0.017068732529878616,0.018155034631490707,0.006707703694701195
1751013477158695200,9.330695068359375,0.016511598601937294,0.02485288493335247,-0.006705306936055422
1751013477168638200,9.34063818359375,0.012434299103915691,0.02460947260260582,-0.02256043627858162
1751013477178581200,9.350581298828125,0.011753062717616558,0.012075837701559067,-0.040118925273418427
1751013477188524300,9.360524169921876,0.006107959896326065,0.0032826124224811792,-0.04779974743723869
1751013477198468000,9.370468017578125,0.0054754591546952724,-0.005017395596951246,-0.047214917838573456
1751013477208411100,9.3804111328125,-0.004561994690448046,-0.009620402939617634,-0.03705256059765816
1751013477218354200,9.390354248046876,-0.004288488067686558,-0.0027987160719931126,-0.021589715033769608
1751013477228298200,9.40029833984375,-0.0015954998089000583,0.0026117621455341578,-0.006494118366390467
1751013477238241300,9.4102412109375,0.0018405106384307146,0.01872148923575878,-0.00016218650853261352
1751013477248184300,9.420184326171874,0.008842227049171925,0.029918218031525612,-0.0031033814884722233
1751013477258128100,9.430128173828125,0.009384713135659695,0.03740436211228371,-0.0157717727124691
1751013477268071200,9.4400712890625,0.011329353787004948,0.03592551127076149,-0.03855964168906212
1751013477278014200,9.45001416015625,0.010931476950645447,0.019665313884615898,-0.05090499296784401
1751013477287957200,9.459957275390625,0.004191549029201269,0.00920361839234829,-0.060325659811496735
1751013477297901300,9.4699013671875,-0.0011675298446789384,0.004333761986345053,-0.051896486431360245
1751013477307844000,9.479843994140625,-0.009868343360722065,-0.0029166939202696085,-0.029807163402438164
1751013477317787100,9.489787109375,-0.008332764729857445,-0.003695935010910034,-0.005644835997372866
1751013477327731500,9.4997314453125,-0.008749016560614109,0.000404534162953496,0.019944146275520325
1751013477337674500,9.509674560546875,-0.007196393795311451,-0.00035926041891798377,0.04117326810956001
1751013477347617300,9.5196171875,-0.00038216362008824944,-0.004068244714289904,0.048647698014974594
1751013477357561300,9.529561279296875,-0.0007816377910785377,-0.006542054936289787,0.03718944638967514
1751013477367504400,9.53950439453125,0.006637129932641983,-0.006595051847398281,0.011818842962384224
1751013477377447400,9.549447509765624,0.00854288786649704,-0.004378236830234528,-0.016388028860092163
1751013477387390500,9.559390380859375,0.012132029980421066,0.00039760995423421264,-0.04392271488904953
1751013477397334300,9.569334228515626,0.014405304566025734,0.014753646217286587,-0.05754025653004646
1751013477407277300,9.57927734375,0.016594156622886658,0.013770673424005508,-0.05357081815600395
1751013477417220400,9.589220458984375,0.019036009907722473,0.008802013471722603,-0.025177525356411934
1751013477427164400,9.599164306640626,0.018670091405510902,0.003951864782720804,0.025666480883955956
1751013477437107200,9.609107177734375,0.013854296877980232,-0.0007408913807012141,0.06572947651147842
1751013477447050200,9.61905029296875,0.014860439114272594,-0.0009094694978557527,0.08662570267915726
1751013477456993300,9.6289931640625,0.012288091704249382,-0.004277036525309086,0.08737804740667343
1751013477466937300,9.638937255859375,0.009165801107883453,-0.00791571382433176,0.05566645786166191
1751013477476880400,9.64888037109375,0.005475192796438932,-0.007700263988226652,0.013912620022892952
1751013477486823400,9.658823486328124,0.003400590270757675,-0.0003603257064241916,-0.027892084792256355
1751013477496767200,9.668767333984375,0.00290391081944108,0.005461877211928368,-0.058758653700351715
1751013477506710300,9.678710205078126,0.001957956003025174,0.01920378766953945,-0.07264464348554611
1751013477516653300,9.6886533203125,0.0038280277512967587,0.03309084102511406,-0.06415954232215881
1751013477526597400,9.698597412109375,0.0031819448340684175,0.04206649214029312,-0.04069603234529495
1751013477536540400,9.70854052734375,0.007499195169657469,0.03943049535155296,-0.017943313345313072
1751013477546483500,9.7184833984375,0.00885074958205223,0.03719077631831169,0.0035574506036937237
1751013477556426200,9.72842626953125,0.004936168901622295,0.024537034332752228,0.020302608609199524
1751013477566370600,9.73837060546875,0.0009153284481726587,0.013250557705760002,0.017366738989949226
1751013477576313600,9.748313720703125,-0.001112668658606708,0.0014415690675377846,0.004801146686077118
1751013477586256400,9.75825634765625,-0.002153964713215828,0.004394215997308493,-0.013578658923506737
1751013477596200400,9.768200439453125,-0.007591873407363892,0.006047239992767572,-0.02473117969930172
1751013477606143500,9.7781435546875,-0.005486910697072744,0.01101350225508213,-0.024888038635253906
1751013477616086500,9.78808642578125,-0.0011241203173995018,0.015150190331041813,-0.022458437830209732
1751013477626030300,9.7980302734375,0.00012836436508223414,0.017342504113912582,-0.007502391003072262
1751013477635973400,9.807973388671876,-0.00029587719473056495,0.016151273623108864,0.003591272747144103
1751013477645916400,9.81791650390625,-0.005014732480049133,0.008589493110775948,0.013320332393050194
1751013477655859500,9.827859375,-0.007988683879375458,0.002482066163793206,0.012263057753443718
1751013477665803500,9.837803466796874,-0.007926632650196552,-0.0016128103015944362,0.0043982104398310184
1751013477675746600,9.84774658203125,-0.014243916608393192,0.0016439693281427026,0.001931058126501739
1751013477685689300,9.857689453125,-0.015339008532464504,0.009502691216766834,-0.0019920445047318935
1751013477695633400,9.86763330078125,-0.013041500002145767,0.01895531453192234,0.0008109325426630676
1751013477705576400,9.877576416015625,-0.011810586787760258,0.029760824516415596,0.011769574135541916
1751013477715519500,9.88751953125,-0.014301175251603127,0.03353185951709747,0.020485034212470055
1751013477725463300,9.89746337890625,-0.010935738682746887,0.027515780180692673,0.025898175314068794
1751013477735406300,9.90740625,-0.0073045180179178715,0.03003513067960739,0.03317073732614517
1751013477745349400,9.917349365234376,-0.00817856751382351,0.021311679854989052,0.04194026067852974
1751013477755292400,9.92729248046875,-0.011035873554646969,0.009073123335838318,0.040771130472421646
1751013477765236500,9.937236572265626,-0.013991182669997215,0.0009480853332206607,0.030824758112430573
1751013477775179300,9.94717919921875,-0.007429154124110937,0.001692705205641687,0.026817232370376587
1751013477785122300,9.957122314453125,0.003712979145348072,0.004260791465640068,0.02527020312845707
1751013477795066400,9.96706640625,0.008416388183832169,0.022726085036993027,0.029762156307697296
1751013477805009400,9.977009521484375,0.015026086941361427,0.03838573768734932,0.04108352214097977
1751013477814952400,9.986952392578125,0.005772934295237064,0.04062119498848915,0.04398716613650322
1751013477824895500,9.9968955078125,-0.0018466358305886388,0.04498691484332085,0.03761209174990654
1751013477834839300,10.00683935546875,-0.009379919618368149,0.03434758633375168,0.01272698026150465
1751013477844782300,10.0167822265625,-0.017658090218901634,0.03173103183507919,-0.01635846681892872
1751013477854725400,10.026725341796874,-0.023135945200920105,0.03194887936115265,-0.0453011691570282
1751013477864669400,10.03666943359375,-0.028608208522200584,0.020871194079518318,-0.06735400855541229
1751013477874612200,10.0466123046875,-0.03015470691025257,0.012015383690595627,-0.08257690072059631
1751013477884555300,10.05655517578125,-0.0311691053211689,0.012317386455833912,-0.0921965092420578
1751013477894499300,10.066499267578125,-0.029893450438976288,0.022435801103711128,-0.09540055692195892
1751013477904442400,10.0764423828125,-0.02822205051779747,0.03575693070888519,-0.09237679839134216
1751013477914385400,10.086385498046875,-0.025911225005984306,0.03784564882516861,-0.08674155175685883
1751013477924329200,10.0963291015625,-0.026192720979452133,0.032282039523124695,-0.08647257089614868
1751013477934272300,10.106272216796874,-0.026133865118026733,0.028355741873383522,-0.08609307557344437
1751013477944215300,10.11621533203125,-0.01587750017642975,0.026675019413232803,-0.08716393262147903
1751013477954158300,10.126158447265626,-0.009427590295672417,0.02598712593317032,-0.08033531904220581
1751013477964102400,10.136102294921875,-0.004555337131023407,0.022373216226696968,-0.06977961212396622
1751013477974045400,10.14604541015625,-0.004863198380917311,0.015962721779942513,-0.05178756266832352
1751013477983988200,10.15598828125,-0.0003664509567897767,0.00818203017115593,-0.03558063134551048
1751013477993932500,10.1659326171875,0.006393184419721365,0.002371278591454029,-0.016711335629224777
1751013478003875600,10.17587548828125,0.006482666824012995,0.004030960611999035,-0.002633600030094385
1751013478013818600,10.185818603515624,0.01164387259632349,-0.0011701929615810513,0.012164254672825336
1751013478023761400,10.195761474609375,0.013450294733047485,-0.0038277613930404186,0.016586167737841606
1751013478033705500,10.20570556640625,0.017582455649971962,-0.006363356951624155,0.012770656496286392
1751013478043648500,10.2156484375,0.02287042886018753,-0.0036738307680934668,0.005660282447934151
1751013478053591600,10.225591552734375,0.024502146989107132,0.0018809906905516982,-0.0017427726415917277
1751013478063535400,10.235535400390624,0.026451580226421356,0.0036706349346786737,-0.007771104108542204
1751013478073478400,10.245478515625,0.026498984545469284,-0.0024983114562928677,-0.003359045134857297
1751013478083421400,10.25542138671875,0.026556510478258133,-0.008993228897452354,0.008737298659980297
1751013478093365500,10.265365478515625,0.02671709842979908,-0.0035518580116331577,0.021675201132893562
1751013478103308500,10.27530859375,0.02641056850552559,0.0043910201638937,0.037282392382621765
1751013478113251300,10.285251220703126,0.02895335480570793,0.008685899898409843,0.04825408011674881
1751013478123194400,10.2951943359375,0.026388464495539665,0.0166732519865036,0.050749994814395905
1751013478133138400,10.305138427734375,0.02768276073038578,0.018558770418167114,0.05059872940182686
1751013478143081500,10.31508154296875,0.023677632212638855,0.011858790181577206,0.03877615928649902
1751013478153024500,10.3250244140625,0.025480858981609344,0.008111456409096718,0.02183898538351059
1751013478162968300,10.33496826171875,0.028422852978110313,0.009179383516311646,0.004444549325853586
1751013478172911400,10.344911376953124,0.026578081771731377,0.014147510752081871,-0.00974716991186142
1751013478182854400,10.3548544921875,0.026252908632159233,0.020709272474050522,-0.0073351445607841015
1751013478192798500,10.364798583984374,0.019179819151759148,0.023153256624937057,0.0023441144730895758
1751013478202741500,10.374741455078125,0.018317755311727524,0.017538247630000114,0.011475561186671257
1751013478212684300,10.384684326171875,0.014988803304731846,0.005966812372207642,0.025378860533237457
1751013478222627300,10.39462744140625,0.010946923866868019,0.03472202643752098,0.040578585118055344
1751013478232571400,10.4045712890625,0.016756076365709305,0.08352605253458023,0.04260391741991043
1751013478242514400,10.414514404296876,0.022827284410595894,0.06378057599067688,0.011812984012067318
1751013478252457500,10.42445751953125,0.01998382806777954,0.04490862041711807,-0.02359800413250923
1751013478262401300,10.4344013671875,0.009694971144199371,0.026449983939528465,-0.052688512951135635
1751013478272344300,10.44434423828125,0.005048820748925209,0.021619275212287903,-0.061960574239492416
1751013478282287400,10.454287353515625,-0.0017667410429567099,0.024224113672971725,-0.06316006183624268
1751013478292231400,10.4642314453125,0.0041156490333378315,0.02406192570924759,-0.06344448775053024
1751013478302174200,10.47417431640625,0.0036647759843617678,0.020912205800414085,-0.06003643944859505
1751013478312117200,10.4841171875,0.0026937874499708414,0.028376514092087746,-0.05968516692519188
1751013478322060300,10.494060302734376,-0.0010831075487658381,0.02919011004269123,-0.05323126167058945
1751013478332004400,10.50400439453125,-0.003242931328713894,0.02642015554010868,-0.04826606437563896
1751013478341947400,10.513947509765625,-0.010838799178600311,0.031687356531620026,-0.051538556814193726
1751013478351890400,10.523890380859376,-0.005137237720191479,0.01830017752945423,-0.04832412302494049
1751013478361834200,10.533834228515625,-0.0003808320325333625,0.025472337380051613,-0.03960413485765457
1751013478371777300,10.54377734375,0.0016495619202032685,0.04364068806171417,-0.02184750884771347
1751013478381720300,10.55372021484375,-0.0034314829390496016,0.04716484993696213,0.005529255140572786
1751013478391663600,10.56366357421875,-0.006129531655460596,0.05944442003965378,0.028191957622766495
1751013478401607700,10.573607666015626,-0.007389739155769348,0.07489155232906342,0.049246907234191895
1751013478411550700,10.58355078125,-0.014378407038748264,0.06233101710677147,0.0530158132314682
1751013478421493500,10.593493408203125,-0.015794942155480385,0.02971794828772545,0.04562447592616081
1751013478431437800,10.603437744140624,-0.02580949291586876,0.05293911322951317,0.08772213011980057
1751013478441380900,10.613380859375,-0.04343003034591675,-0.0018612833227962255,0.12737180292606354
1751013478451323600,10.62332373046875,-0.03567171096801758,-0.04100176319479942,0.16969555616378784
1751013478461267700,10.633267822265625,-0.012093148194253445,-0.06308309733867645,0.20580828189849854
1751013478471210800,10.643210693359375,0.004334561061114073,-0.08813411742448807,0.21581432223320007
1751013478481153800,10.65315380859375,0.010386328212916851,-0.092921681702137,0.1946222186088562
1751013478491096800,10.663096923828125,0.018633872270584106,-0.07491685450077057,0.15481221675872803
1751013478501040600,10.67304052734375,0.02953951619565487,-0.04508332163095474,0.09621068835258484
1751013478510983700,10.682983642578124,0.04284120723605156,-0.018692994490265846,0.025957031175494194
1751013478520926700,10.6929267578125,0.05098302289843559,0.0008333030855283141,-0.06731326133012772
1751013478530870800,10.702870849609376,0.052628591656684875,0.023573769256472588,-0.1638059765100479
1751013478540813600,10.7128134765625,0.03158855065703392,0.03984062373638153,-0.24758076667785645
1751013478550756600,10.722756591796875,0.008083492517471313,0.050216298550367355,-0.27881619334220886
