time,seconds_elapsed,z,y,x
1751013947553783300,0.121783203125,-0.99609375,-0.0630035400390625,0.0031280517578125
1751013947563727400,0.131727294921875,-0.9936370849609375,-0.0667572021484375,0.0042877197265625
1751013947573671700,0.141671630859375,-0.995635986328125,-0.067718505859375,0.00543212890625
1751013947583614500,0.151614501953125,-0.999542236328125,-0.066558837890625,0.009796142578125
1751013947593558500,0.16155859375,-1.000885009765625,-0.0680389404296875,0.00970458984375
1751013947603502600,0.171502685546875,-1.008392333984375,-0.0720367431640625,0.0042877197265625
1751013947613445600,0.181445556640625,-1.01507568359375,-0.0721435546875,0.00146484375
1751013947623389400,0.191389404296875,-1.0126190185546875,-0.0682220458984375,-0.00390625
1751013947633332500,0.20133251953125,-1.010711669921875,-0.0633087158203125,-0.009674072265625
1751013947643276500,0.211276611328125,-1.01580810546875,-0.059661865234375,-0.0128936767578125
1751013947653220400,0.221220458984375,-1.0186309814453125,-0.055023193359375,-0.0101776123046875
1751013947663163400,0.231163330078125,-1.0213165283203125,-0.0493621826171875,-0.009490966796875
1751013947673107500,0.241107421875,-1.0206298828125,-0.044036865234375,-0.0091552734375
1751013947683051300,0.25105126953125,-1.015106201171875,-0.0442047119140625,-0.0043487548828125
1751013947692994300,0.260994384765625,-1.01220703125,-0.0539093017578125,-0.0091705322265625
1751013947702938600,0.270938720703125,-1.010162353515625,-0.066680908203125,-0.016998291015625
1751013947712881700,0.280881591796875,-1.0067596435546875,-0.0755767822265625,-0.0209197998046875
1751013947722825500,0.290825439453125,-1.01263427734375,-0.07940673828125,-0.02325439453125
1751013947732769500,0.30076953125,-1.0198211669921875,-0.0803375244140625,-0.021087646484375
1751013947742712600,0.310712646484375,-1.021697998046875,-0.078704833984375,-0.025238037109375
1751013947752656400,0.320656494140625,-1.0351104736328125,-0.0718994140625,-0.0266876220703125
1751013947762600400,0.330600341796875,-1.038238525390625,-0.0592041015625,-0.018798828125
1751013947772543500,0.34054345703125,-1.0270538330078125,-0.048858642578125,-0.019500732421875
1751013947782487300,0.3504873046875,-1.024810791015625,-0.04071044921875,-0.02471923828125
1751013947792431400,0.360431396484375,-1.0325775146484375,-0.0317840576171875,-0.02703857421875
1751013947802374400,0.37037451171875,-1.0364990234375,-0.029388427734375,-0.0330352783203125
1751013947812318500,0.380318359375,-1.0346832275390625,-0.0337371826171875,-0.04217529296875
1751013947822261500,0.390261474609375,-1.038299560546875,-0.0463104248046875,-0.0425567626953125
1751013947832205600,0.40020556640625,-1.036773681640625,-0.06134033203125,-0.040618896484375
1751013947842149400,0.4101494140625,-1.031005859375,-0.0709381103515625,-0.037841796875
1751013947852092400,0.420092529296875,-1.0243072509765625,-0.0762786865234375,-0.0361328125
1751013947862036500,0.430036376953125,-1.0142669677734375,-0.07763671875,-0.026092529296875
1751013947871980500,0.43998046875,-1.0035858154296875,-0.0763397216796875,-0.016143798828125
1751013947881923300,0.44992333984375,-1.0034942626953125,-0.0751953125,-0.0091400146484375
1751013947891867400,0.459867431640625,-1.0092620849609375,-0.0751495361328125,-0.0055389404296875
1751013947901811500,0.4698115234375,-1.011749267578125,-0.0777130126953125,-0.007232666015625
1751013947911754500,0.47975439453125,-1.0179595947265625,-0.081146240234375,-0.009368896484375
1751013947921698600,0.489698486328125,-1.0233306884765625,-0.0811920166015625,-0.0078277587890625
1751013947931641600,0.4996416015625,-1.02398681640625,-0.0835723876953125,-0.0119171142578125
1751013947941585700,0.509585693359375,-1.022796630859375,-0.0869598388671875,-0.019195556640625
1751013947951529500,0.519529541015625,-1.0216827392578125,-0.092803955078125,-0.034942626953125
1751013947961472500,0.529472412109375,-1.0232086181640625,-0.107208251953125,-0.0462646484375
1751013947971416600,0.53941650390625,-1.0181884765625,-0.1219940185546875,-0.03448486328125
1751013947981360400,0.5493603515625,-1.0220489501953125,-0.1269073486328125,-0.0116424560546875
1751013947991303400,0.559303466796875,-1.0302581787109375,-0.12158203125,0.019622802734375
1751013948001247500,0.56924755859375,-1.0294036865234375,-0.110931396484375,0.04168701171875
1751013948011191300,0.57919140625,-1.03533935546875,-0.09796142578125,0.057891845703125
1751013948021134300,0.58913427734375,-1.0356292724609375,-0.0838470458984375,0.063751220703125
1751013948031078700,0.59907861328125,-1.0221099853515625,-0.075164794921875,0.053924560546875
1751013948041021400,0.609021484375,-1.0073699951171875,-0.07049560546875,0.0331878662109375
1751013948050965500,0.618965576171875,-0.9943084716796875,-0.063323974609375,0.022979736328125
1751013948060909600,0.62890966796875,-0.98028564453125,-0.0552825927734375,0.0282440185546875
1751013948070852600,0.6388525390625,-0.972747802734375,-0.0531005859375,0.031219482421875
1751013948080796400,0.64879638671875,-0.9746551513671875,-0.0572052001953125,0.0330963134765625
1751013948090740500,0.658740478515625,-0.9825286865234375,-0.06451416015625,0.0317840576171875
1751013948100683500,0.66868359375,-0.98944091796875,-0.0759429931640625,0.0266571044921875
1751013948110627300,0.67862744140625,-0.999481201171875,-0.0842742919921875,0.020050048828125
1751013948120570400,0.6885703125,-1.0116729736328125,-0.08306884765625,0.0203857421875
1751013948130514400,0.698514404296875,-1.01483154296875,-0.08343505859375,0.0225677490234375
1751013948140458200,0.708458251953125,-1.0144500732421875,-0.0874481201171875,0.016571044921875
1751013948150401300,0.7184013671875,-1.011932373046875,-0.0858612060546875,0.0103302001953125
1751013948160345600,0.728345703125,-1.0074005126953125,-0.0792236328125,0.01025390625
1751013948170289400,0.738289306640625,-1.002960205078125,-0.07684326171875,0.016632080078125
1751013948180232400,0.748232421875,-1.0047607421875,-0.0751953125,0.0185546875
1751013948190176500,0.758176513671875,-1.00445556640625,-0.0755157470703125,0.018218994140625
1751013948200119600,0.76811962890625,-0.9985809326171875,-0.077301025390625,0.0227203369140625
1751013948210063400,0.7780634765625,-0.9932403564453125,-0.0775909423828125,0.02508544921875
1751013948220007400,0.78800732421875,-0.9922637939453125,-0.075714111328125,0.025909423828125
1751013948229950500,0.797950439453125,-0.990081787109375,-0.0735321044921875,0.0271453857421875
1751013948239894300,0.807894287109375,-0.9894256591796875,-0.0701904296875,0.027801513671875
1751013948249838300,0.81783837890625,-0.98980712890625,-0.069976806640625,0.0240936279296875
1751013948259781400,0.827781494140625,-0.99212646484375,-0.073333740234375,0.0170135498046875
1751013948269725400,0.837725341796875,-0.99981689453125,-0.0758209228515625,0.0071563720703125
1751013948279668500,0.84766845703125,-1.004608154296875,-0.0756378173828125,0.0018310546875
1751013948289612500,0.857612548828125,-1.009185791015625,-0.07806396484375,-0.0051727294921875
1751013948299556600,0.867556640625,-1.0113983154296875,-0.084808349609375,-0.0143280029296875
1751013948309499400,0.87749951171875,-1.013153076171875,-0.088836669921875,-0.0161895751953125
1751013948319443500,0.887443359375,-1.0189971923828125,-0.0908966064453125,-0.0142364501953125
1751013948329387500,0.897387451171875,-1.0241851806640625,-0.0938720703125,-0.013824462890625
1751013948339330600,0.90733056640625,-1.029510498046875,-0.0959320068359375,-0.0049285888671875
1751013948349274400,0.9172744140625,-1.03594970703125,-0.0939483642578125,0.0052032470703125
1751013948359217400,0.927217529296875,-1.030120849609375,-0.082122802734375,0.0016632080078125
1751013948369161500,0.937161376953125,-1.0056915283203125,-0.069549560546875,-0.0006561279296875
1751013948379105500,0.94710546875,-0.9911651611328125,-0.0670013427734375,0.0045166015625
1751013948389048600,0.957048583984375,-0.9869232177734375,-0.070220947265625,0.0135650634765625
1751013948398992600,0.96699267578125,-0.98175048828125,-0.076629638671875,0.0172119140625
1751013948408936400,0.9769365234375,-0.978729248046875,-0.0808868408203125,0.0148162841796875
1751013948418879500,0.98687939453125,-0.9751434326171875,-0.0859527587890625,0.0140380859375
1751013948428823600,0.996823486328125,-0.9774169921875,-0.0932464599609375,0.013885498046875
1751013948438767400,1.006767333984375,-0.986907958984375,-0.0954437255859375,0.016876220703125
1751013948448710400,1.01671044921875,-0.9922332763671875,-0.096160888671875,0.01678466796875
1751013948458654500,1.026654541015625,-1.0015869140625,-0.09527587890625,0.014617919921875
1751013948468597500,1.036597412109375,-1.0118408203125,-0.0931243896484375,0.01165771484375
1751013948478541300,1.046541259765625,-1.012939453125,-0.0934295654296875,0.0079193115234375
1751013948488485600,1.056485595703125,-1.013214111328125,-0.093414306640625,0.00323486328125
1751013948498428400,1.066428466796875,-1.01824951171875,-0.091796875,0.0001220703125
1751013948508372500,1.07637255859375,-1.022491455078125,-0.091766357421875,0.00189208984375
1751013948518316500,1.086316650390625,-1.0260009765625,-0.0888214111328125,0.0082550048828125
1751013948528259600,1.096259521484375,-1.025665283203125,-0.0814208984375,0.01739501953125
1751013948538203400,1.106203369140625,-1.0243072509765625,-0.0762481689453125,0.0180206298828125
1751013948548146400,1.116146484375,-1.0274505615234375,-0.0761260986328125,0.015411376953125
1751013948558090500,1.126090576171875,-1.0340728759765625,-0.077545166015625,0.0125579833984375
1751013948568034300,1.136034423828125,-1.0365142822265625,-0.079803466796875,0.0104827880859375
1751013948577977300,1.145977294921875,-1.033966064453125,-0.081939697265625,0.0074920654296875
1751013948587921400,1.15592138671875,-1.0277557373046875,-0.087554931640625,0.0029449462890625
1751013948597865200,1.165865234375,-1.024139404296875,-0.0965423583984375,0.0026397705078125
1751013948607808300,1.175808349609375,-1.02215576171875,-0.1042938232421875,0.0095062255859375
1751013948617752600,1.185752685546875,-1.014556884765625,-0.110076904296875,0.0098419189453125
1751013948627695600,1.195695556640625,-1.0001373291015625,-0.1102752685546875,0.0054931640625
1751013948637639400,1.205639404296875,-0.9912109375,-0.106597900390625,-0.00079345703125
1751013948647583500,1.21558349609375,-0.9823760986328125,-0.102752685546875,-0.002777099609375
1751013948657526500,1.225526611328125,-0.9792022705078125,-0.0961761474609375,0.0020751953125
1751013948667470300,1.23547021484375,-0.982574462890625,-0.088897705078125,0.0120086669921875
1751013948677414400,1.245414306640625,-0.9891510009765625,-0.087646484375,0.0194854736328125
1751013948687357400,1.255357421875,-0.9993743896484375,-0.0901031494140625,0.0211639404296875
1751013948697301500,1.265301513671875,-1.0082550048828125,-0.091339111328125,0.018157958984375
1751013948707244300,1.275244384765625,-1.0106353759765625,-0.0902862548828125,0.0187530517578125
1751013948717188400,1.285188232421875,-1.0130462646484375,-0.08746337890625,0.0178375244140625
1751013948727132700,1.295132568359375,-1.01702880859375,-0.0861053466796875,0.0128326416015625
1751013948737075500,1.305075439453125,-1.0189666748046875,-0.08502197265625,0.00994873046875
1751013948747019500,1.31501953125,-1.0205841064453125,-0.0835418701171875,0.0073089599609375
1751013948756963600,1.324963623046875,-1.0229644775390625,-0.084136962890625,0.0024261474609375
1751013948766906600,1.33490673828125,-1.02294921875,-0.0879058837890625,0.0001373291015625
1751013948776850400,1.344850341796875,-1.0235137939453125,-0.0918731689453125,0.0013427734375
1751013948786793500,1.35479345703125,-1.0256195068359375,-0.097015380859375,0.0006256103515625
1751013948796737500,1.364737548828125,-1.026397705078125,-0.099761962890625,0.0013427734375
1751013948806681300,1.374681396484375,-1.031707763671875,-0.1021728515625,0.0028228759765625
1751013948816624400,1.384624267578125,-1.0382843017578125,-0.10504150390625,0.0026092529296875
1751013948826568400,1.394568359375,-1.039581298828125,-0.102508544921875,0.00103759765625
1751013948836516600,1.4045166015625,-1.034942626953125,-0.0964813232421875,0.0031585693359375
1751013948846459600,1.414459716796875,-1.028961181640625,-0.0880126953125,0.005279541015625
1751013948856403700,1.42440380859375,-1.0235137939453125,-0.078033447265625,0.006011962890625
1751013948866346500,1.434346435546875,-1.0229339599609375,-0.06964111328125,0.008270263671875
1751013948876290600,1.44429052734375,-1.0218658447265625,-0.0662384033203125,0.00860595703125
1751013948886234600,1.454234619140625,-1.0174407958984375,-0.06549072265625,0.0088348388671875
1751013948896177400,1.464177490234375,-1.0132293701171875,-0.065673828125,0.009490966796875
1751013948906121500,1.47412158203125,-1.0115966796875,-0.0685577392578125,0.007232666015625
1751013948916065800,1.484065673828125,-1.0045928955078125,-0.0732421875,0.00738525390625
1751013948926008600,1.494008544921875,-0.9982147216796875,-0.07696533203125,0.0111083984375
1751013948935952600,1.50395263671875,-0.9963836669921875,-0.0812225341796875,0.0127410888671875
1751013948945895700,1.513895751953125,-0.9951934814453125,-0.087432861328125,0.008575439453125
1751013948955839700,1.52383984375,-0.9900970458984375,-0.09088134765625,0.009429931640625
1751013948965783600,1.533783447265625,-0.9911041259765625,-0.0887603759765625,0.0138702392578125
1751013948975726600,1.5437265625,-0.99627685546875,-0.0859222412109375,0.0135345458984375
1751013948985670700,1.553670654296875,-0.999053955078125,-0.083984375,0.0078582763671875
1751013948995614500,1.563614501953125,-0.999237060546875,-0.0828857421875,0.0018310546875
1751013949005557500,1.5735576171875,-1.000396728515625,-0.0791778564453125,0.0002899169921875
1751013949015501600,1.58350146484375,-1.0030670166015625,-0.077178955078125,0.00018310546875
1751013949025444600,1.593444580078125,-1.0044403076171875,-0.079833984375,0
1751013949035388400,1.603388427734375,-1.00634765625,-0.08489990234375,0.00006103515625
1751013949045332700,1.613332763671875,-1.0107879638671875,-0.0863494873046875,0.00421142578125
1751013949055275800,1.62327587890625,-1.0123138427734375,-0.08563232421875,0.00262451171875
1751013949065219600,1.633219482421875,-1.01031494140625,-0.087615966796875,-0.0001220703125
1751013949075163600,1.64316357421875,-1.00726318359375,-0.0889129638671875,-0.0010833740234375
1751013949085106700,1.653106689453125,-1.010772705078125,-0.0890350341796875,-0.0004119873046875
1751013949095050500,1.663050537109375,-1.0091094970703125,-0.0872650146484375,0.0015411376953125
1751013949104993500,1.67299365234375,-1.007904052734375,-0.0860595703125,0.00299072265625
1751013949114937600,1.6829375,-1.0093536376953125,-0.0850982666015625,0.0057373046875
1751013949124881400,1.69288134765625,-1.007598876953125,-0.084503173828125,0.00689697265625
1751013949134824400,1.702824462890625,-1.00677490234375,-0.0842437744140625,0.0067291259765625
1751013949144768500,1.7127685546875,-1.0152740478515625,-0.083953857421875,0.0047149658203125
1751013949154712600,1.722712646484375,-1.021453857421875,-0.0836334228515625,0.0012969970703125
1751013949164655600,1.732655517578125,-1.021881103515625,-0.0838470458984375,-0.0034332275390625
1751013949174599700,1.742599609375,-1.0189056396484375,-0.0846099853515625,-0.0052032470703125
1751013949184542700,1.752542724609375,-1.0133056640625,-0.0861663818359375,-0.005157470703125
1751013949194486500,1.762486572265625,-1.011810302734375,-0.085723876953125,-0.0040283203125
1751013949204430600,1.7724306640625,-1.0113372802734375,-0.087371826171875,-0.0044708251953125
1751013949214373600,1.78237353515625,-1.0058441162109375,-0.0904693603515625,0.0001983642578125
1751013949224317400,1.7923173828125,-1.0054168701171875,-0.091461181640625,0.00396728515625
1751013949234261500,1.802261474609375,-1.0057525634765625,-0.088653564453125,0.0062255859375
1751013949244204500,1.81220458984375,-1.0051116943359375,-0.08502197265625,0.008087158203125
1751013949254148600,1.822148681640625,-1.0037078857421875,-0.081207275390625,0.0082550048828125
1751013949264091400,1.83209130859375,-1.003692626953125,-0.0801849365234375,0.0038299560546875
1751013949274035700,1.84203564453125,-1.0064849853515625,-0.0802764892578125,-0.003753662109375
1751013949283979800,1.851979736328125,-1.011810302734375,-0.0789031982421875,-0.0076904296875
1751013949293922600,1.861922607421875,-1.0116424560546875,-0.080047607421875,-0.0055694580078125
1751013949303866600,1.87186669921875,-1.014312744140625,-0.0823516845703125,-0.0045013427734375
1751013949313810700,1.881810791015625,-1.01910400390625,-0.086822509765625,-0.0045318603515625
1751013949323753500,1.89175341796875,-1.0193328857421875,-0.091552734375,-0.005157470703125
1751013949333697500,1.901697509765625,-1.018463134765625,-0.0952301025390625,-0.0063323974609375
1751013949343640600,1.911640625,-1.0155792236328125,-0.095184326171875,-0.001983642578125
1751013949353584600,1.921584716796875,-1.009521484375,-0.0927886962890625,0.0012054443359375
1751013949363528400,1.931528564453125,-1.00445556640625,-0.0880584716796875,0.0054779052734375
1751013949373471500,1.941471435546875,-1.002105712890625,-0.084808349609375,0.0102691650390625
1751013949383415800,1.951415771484375,-1.0014801025390625,-0.0816497802734375,0.011199951171875
1751013949393359600,1.961359619140625,-1.00299072265625,-0.0811004638671875,0.0071868896484375
1751013949403302700,1.971302734375,-1.0095672607421875,-0.0836944580078125,0.002716064453125
1751013949413246700,1.981246826171875,-1.01837158203125,-0.0867767333984375,-0.0022430419921875
1751013949423189800,1.991189697265625,-1.0233917236328125,-0.0899505615234375,-0.004119873046875
1751013949433133600,2.001133544921875,-1.0228729248046875,-0.0906524658203125,-0.00408935546875
1751013949443077600,2.01107763671875,-1.0230560302734375,-0.0891876220703125,-0.00189208984375
1751013949453020700,2.021020751953125,-1.0209197998046875,-0.086212158203125,0.00201416015625
1751013949462964500,2.030964599609375,-1.0163116455078125,-0.084503173828125,0.0059051513671875
1751013949472908500,2.040908447265625,-1.01568603515625,-0.083892822265625,0.0065460205078125
1751013949482851600,2.0508515625,-1.0145721435546875,-0.084014892578125,0.00433349609375
1751013949492795400,2.06079541015625,-1.0112152099609375,-0.084747314453125,0.004180908203125
1751013949502738400,2.070738525390625,-1.011077880859375,-0.08612060546875,0.0044097900390625
1751013949512682800,2.080682861328125,-1.01422119140625,-0.089752197265625,0.0049591064453125
1751013949522626600,2.09062646484375,-1.013885498046875,-0.0929107666015625,0.002685546875
1751013949532569600,2.100569580078125,-1.01055908203125,-0.0951385498046875,0.0028839111328125
1751013949542513700,2.110513671875,-1.0108795166015625,-0.094268798828125,0.002532958984375
1751013949552457500,2.12045751953125,-1.0134124755859375,-0.091949462890625,0.005584716796875
1751013949562400500,2.130400390625,-1.014007568359375,-0.088714599609375,0.0069732666015625
1751013949572344600,2.140344482421875,-1.0127716064453125,-0.0865325927734375,0.0055999755859375
1751013949582287600,2.15028759765625,-1.00982666015625,-0.0855560302734375,0.0070953369140625
1751013949592231400,2.1602314453125,-1.0131378173828125,-0.084197998046875,0.0097198486328125
1751013949602175500,2.170175537109375,-1.018585205078125,-0.085601806640625,0.0063018798828125
1751013949612118500,2.180118408203125,-1.017852783203125,-0.0881805419921875,0.0064697265625
1751013949622062600,2.1900625,-1.0105133056640625,-0.088958740234375,0.0069427490234375
1751013949632006700,2.200006591796875,-1.0021209716796875,-0.0864105224609375,0.011444091796875
1751013949641949700,2.20994970703125,-0.997711181640625,-0.083526611328125,0.0147552490234375
1751013949651893500,2.2198935546875,-0.9982147216796875,-0.08343505859375,0.0118865966796875
1751013949661837600,2.229837646484375,-1.0000152587890625,-0.0791778564453125,0.008544921875
1751013949671780600,2.239780517578125,-1.0050506591796875,-0.0779266357421875,0.0106048583984375
1751013949681724700,2.249724609375,-1.006561279296875,-0.0790557861328125,0.0105133056640625
1751013949691667500,2.25966748046875,-1.0059356689453125,-0.0766143798828125,0.0101776123046875
1751013949701611500,2.269611572265625,-1.0106048583984375,-0.0782318115234375,0.0024871826171875
1751013949711555600,2.2795556640625,-1.0124359130859375,-0.0801544189453125,-0.006927490234375
1751013949721498400,2.289498291015625,-1.009765625,-0.0832061767578125,-0.008819580078125
1751013949731442700,2.299442626953125,-1.0128021240234375,-0.0890045166015625,-0.008636474609375
1751013949741386800,2.30938671875,-1.01666259765625,-0.0968475341796875,-0.0084381103515625
1751013949751329500,2.31932958984375,-1.0130767822265625,-0.0972137451171875,-0.006011962890625
1751013949761273600,2.329273681640625,-1.0041961669921875,-0.0954437255859375,-0.005615234375
1751013949771216600,2.339216552734375,-1.003997802734375,-0.0930633544921875,-0.003814697265625
1751013949781160700,2.34916064453125,-1.006744384765625,-0.0923614501953125,-0.0029449462890625
1751013949791104500,2.3591044921875,-1.0070037841796875,-0.0925445556640625,-0.004058837890625
1751013949801047600,2.369047607421875,-1.0121917724609375,-0.094024658203125,-0.006744384765625
1751013949810991600,2.37899169921875,-1.0184783935546875,-0.0940704345703125,-0.0071258544921875
1751013949820935400,2.388935302734375,-1.0200958251953125,-0.092620849609375,-0.0090789794921875
1751013949830878500,2.39887841796875,-1.0205841064453125,-0.0909881591796875,-0.0095367431640625
1751013949840819200,2.408819091796875,-1.0224609375,-0.0885467529296875,-0.0117950439453125
1751013949850762200,2.41876220703125,-1.02294921875,-0.08709716796875,-0.01263427734375
1751013949860706300,2.428706298828125,-1.01611328125,-0.0881500244140625,-0.013641357421875
1751013949870650400,2.438650390625,-1.0100555419921875,-0.091094970703125,-0.013702392578125
1751013949880593400,2.448593505859375,-1.0080413818359375,-0.0925140380859375,-0.0072479248046875
1751013949890537200,2.458537109375,-1.0070648193359375,-0.0940093994140625,-0.00140380859375
1751013949900481300,2.468481201171875,-1.0072021484375,-0.09625244140625,0.0012054443359375
1751013949910424300,2.47842431640625,-1.0036773681640625,-0.0970916748046875,0.0037841796875
1751013949920368000,2.4883681640625,-1.0008392333984375,-0.097076416015625,0.0053863525390625
1751013949930311200,2.498311279296875,-1.0020751953125,-0.0952911376953125,0.00555419921875
1751013949940255200,2.508255126953125,-0.999969482421875,-0.09295654296875,0.0029296875
1751013949950199000,2.518198974609375,-0.996795654296875,-0.091949462890625,0.0011138916015625
1751013949960142000,2.52814208984375,-0.9970855712890625,-0.09027099609375,-0.002227783203125
1751013949970086100,2.538086181640625,-0.9970550537109375,-0.090087890625,-0.003570556640625
1751013949980030200,2.5480302734375,-1.000152587890625,-0.0908660888671875,-0.0042572021484375
1751013949989973200,2.55797314453125,-1.0051422119140625,-0.0896759033203125,-0.0022735595703125
1751013949999917300,2.567917236328125,-1.005706787109375,-0.09320068359375,-0.004119873046875
1751013950009860400,2.5778603515625,-1.0049896240234375,-0.0959625244140625,-0.0069580078125
1751013950019804200,2.58780419921875,-1.0041961669921875,-0.0967254638671875,-0.0047760009765625
1751013950029748200,2.597748291015625,-1.0039520263671875,-0.0933380126953125,-0.0017242431640625
1751013950039691300,2.607691162109375,-1.00433349609375,-0.091278076171875,-0.000335693359375
1751013950049635000,2.617635009765625,-1.0060882568359375,-0.091217041015625,-0.00244140625
1751013950059579100,2.6275791015625,-1.0091705322265625,-0.089996337890625,-0.0052947998046875
1751013950069522200,2.637522216796875,-1.0118560791015625,-0.0883026123046875,-0.0071868896484375
1751013950079466000,2.647466064453125,-1.0154266357421875,-0.0853729248046875,-0.005859375
1751013950089409000,2.657408935546875,-1.018157958984375,-0.0806427001953125,-0.006195068359375
1751013950099353300,2.667353271484375,-1.0177001953125,-0.077606201171875,-0.0068511962890625
1751013950109297200,2.677297119140625,-1.0148162841796875,-0.079925537109375,-0.007080078125
1751013950119240200,2.687240234375,-1.0143585205078125,-0.08380126953125,-0.0059661865234375
1751013950129184300,2.697184326171875,-1.011505126953125,-0.0871734619140625,-0.0037841796875
1751013950139128300,2.70712841796875,-1.0102691650390625,-0.094757080078125,0.0013885498046875
1751013950149071000,2.717071044921875,-1.012420654296875,-0.100189208984375,0.00323486328125
1751013950159015200,2.72701513671875,-1.009613037109375,-0.1012725830078125,0.004730224609375
1751013950168958200,2.736958251953125,-1.00335693359375,-0.0985565185546875,0.00579833984375
1751013950178902300,2.74690234375,-0.995025634765625,-0.0965118408203125,0.0081939697265625
1751013950188846000,2.75684619140625,-0.9932403564453125,-0.0968475341796875,0.0118255615234375
1751013950198789000,2.7667890625,-0.9975128173828125,-0.0972137451171875,0.013458251953125
1751013950208733400,2.7767333984375,-0.9997406005859375,-0.0978240966796875,0.0128173828125
1751013950218677200,2.78667724609375,-0.9999237060546875,-0.1013336181640625,0.0099334716796875
1751013950228620300,2.796620361328125,-1.00592041015625,-0.101409912109375,0.009063720703125
1751013950238564400,2.806564453125,-1.011566162109375,-0.0990142822265625,0.007232666015625
1751013950248508200,2.816508056640625,-1.0102996826171875,-0.1007843017578125,0.003509521484375
1751013950258451200,2.826451171875,-1.00885009765625,-0.104217529296875,0.00213623046875
1751013950268395300,2.836395263671875,-1.0086669921875,-0.1038970947265625,0.000518798828125
1751013950278338300,2.84633837890625,-1.006622314453125,-0.103546142578125,0.0029754638671875
1751013950288282000,2.8562822265625,-1.0061798095703125,-0.10455322265625,0.007110595703125
1751013950298226200,2.86622607421875,-1.0049591064453125,-0.108642578125,0.01007080078125
1751013950308169200,2.876169189453125,-1.0036773681640625,-0.1141815185546875,0.0081024169921875
1751013950318113300,2.88611328125,-1.007080078125,-0.1170501708984375,0.006103515625
1751013950328057300,2.896057373046875,-1.0112457275390625,-0.115814208984375,0.008544921875
1751013950338000400,2.90600048828125,-1.0122222900390625,-0.1143951416015625,0.006256103515625
1751013950347944200,2.915944091796875,-1.0135345458984375,-0.11297607421875,0.0036163330078125
1751013950357887200,2.92588720703125,-1.016998291015625,-0.109039306640625,0.0029144287109375
1751013950367831300,2.935831298828125,-1.019287109375,-0.1015777587890625,0.0057525634765625
1751013950377775000,2.945775146484375,-1.0204010009765625,-0.097015380859375,0.00250244140625
1751013950387718100,2.95571826171875,-1.0201416015625,-0.0958099365234375,-0.0030670166015625
1751013950397662200,2.965662109375,-1.0191497802734375,-0.09771728515625,-0.006439208984375
1751013950407606000,2.97560595703125,-1.019287109375,-0.10076904296875,-0.006500244140625
1751013950417549000,2.985549072265625,-1.0190582275390625,-0.1027984619140625,-0.0052337646484375
1751013950427493000,2.9954931640625,-1.0157012939453125,-0.1045379638671875,-0.0062408447265625
1751013950437436200,3.005436279296875,-1.0091552734375,-0.1078948974609375,-0.0069122314453125
1751013950447380200,3.015380126953125,-1.0094146728515625,-0.113006591796875,-0.001068115234375
1751013950457324300,3.02532421875,-1.0128326416015625,-0.1165618896484375,0.003509521484375
1751013950467267300,3.035267333984375,-1.0124053955078125,-0.1147613525390625,0.0127410888671875
1751013950477211100,3.045211181640625,-1.01104736328125,-0.102752685546875,0.012115478515625
1751013950487155200,3.0551552734375,-1.0093841552734375,-0.0940399169921875,0.0051422119140625
1751013950497098200,3.06509814453125,-1.017242431640625,-0.0924530029296875,-0.0001373291015625
1751013950507042000,3.0750419921875,-1.0231475830078125,-0.0927581787109375,-0.0104522705078125
1751013950516985000,3.084985107421875,-1.019927978515625,-0.0919342041015625,-0.0190582275390625
1751013950526929200,3.09492919921875,-1.0212860107421875,-0.0931243896484375,-0.0208892822265625
1751013950536873200,3.104873291015625,-1.024017333984375,-0.0983123779296875,-0.02508544921875
1751013950546816000,3.11481591796875,-1.0198211669921875,-0.1062469482421875,-0.0236358642578125
1751013950556760300,3.12476025390625,-1.012786865234375,-0.1145172119140625,-0.019378662109375
1751013950566704400,3.134704345703125,-1.0071563720703125,-0.1200103759765625,-0.013458251953125
1751013950576647200,3.144647216796875,-1.00250244140625,-0.126434326171875,-0.0101165771484375
1751013950586591200,3.15459130859375,-1.00042724609375,-0.127410888671875,-0.0048675537109375
1751013950596535300,3.164535400390625,-0.9988861083984375,-0.1230316162109375,-0.001129150390625
1751013950606478300,3.174478271484375,-0.9971466064453125,-0.1160888671875,0.0027313232421875
1751013950616422100,3.184422119140625,-0.998016357421875,-0.1086883544921875,0.001373291015625
1751013950626365200,3.194365234375,-0.9994049072265625,-0.1031951904296875,0.0012664794921875
1751013950636309200,3.204309326171875,-1.0031585693359375,-0.0963287353515625,-0.00286865234375
1751013950646253000,3.214253173828125,-1.010772705078125,-0.0922393798828125,-0.0063323974609375
1751013950656196000,3.224196044921875,-1.0184173583984375,-0.0917510986328125,-0.0089263916015625
1751013950666140400,3.234140380859375,-1.0220794677734375,-0.094818115234375,-0.0131072998046875
1751013950676084200,3.244084228515625,-1.0218963623046875,-0.101837158203125,-0.017913818359375
1751013950686027300,3.25402734375,-1.0177764892578125,-0.106658935546875,-0.018157958984375
1751013950695971300,3.263971435546875,-1.0107574462890625,-0.1115875244140625,-0.014923095703125
1751013950705914400,3.273914306640625,-1.003875732421875,-0.1144561767578125,-0.0097808837890625
1751013950715858200,3.283858154296875,-0.9979705810546875,-0.116607666015625,-0.0045928955078125
1751013950725802200,3.29380224609375,-0.994903564453125,-0.115966796875,-0.0009307861328125
1751013950735745300,3.303745361328125,-0.992706298828125,-0.1157989501953125,0.0028839111328125
1751013950745689000,3.313689208984375,-0.9931640625,-0.113037109375,0.007843017578125
1751013950755633200,3.323633056640625,-0.994140625,-0.10638427734375,0.0089263916015625
1751013950765576200,3.333576171875,-0.995758056640625,-0.1006927490234375,0.004852294921875
1751013950775520300,3.343520263671875,-0.9995269775390625,-0.0963287353515625,0.0003814697265625
1751013950785464300,3.35346435546875,-1.0078277587890625,-0.0921783447265625,-0.0043487548828125
1751013950795407400,3.363407470703125,-1.0169525146484375,-0.0906219482421875,-0.00921630859375
1751013950805351200,3.37335107421875,-1.0232086181640625,-0.095123291015625,-0.01300048828125
1751013950815294200,3.383294189453125,-1.023773193359375,-0.0952301025390625,-0.0095367431640625
1751013950825238300,3.39323828125,-1.0266876220703125,-0.0919342041015625,-0.005615234375
1751013950835182000,3.40318212890625,-1.0255584716796875,-0.0908355712890625,-0.0045318603515625
1751013950845124900,3.413124755859375,-1.0207061767578125,-0.0894622802734375,-0.0046539306640625
1751013950855069000,3.42306884765625,-1.0149078369140625,-0.0879974365234375,-0.0045623779296875
1751013950865013000,3.433012939453125,-1.014129638671875,-0.087890625,-0.004364013671875
1751013950874955800,3.442955810546875,-1.011810302734375,-0.086669921875,-0.0048675537109375
1751013950884900000,3.452900146484375,-1.0071563720703125,-0.084259033203125,-0.00445556640625
1751013950894843100,3.462843017578125,-1.0079498291015625,-0.084808349609375,-0.00762939453125
1751013950904787000,3.472786865234375,-1.0153656005859375,-0.0862884521484375,-0.0131378173828125
1751013950914731000,3.48273095703125,-1.017974853515625,-0.0880126953125,-0.01611328125
1751013950924674000,3.492674072265625,-1.01531982421875,-0.09271240234375,-0.0123748779296875
1751013950934618000,3.5026181640625,-1.017425537109375,-0.0948333740234375,-0.011138916015625
1751013950944562000,3.51256201171875,-1.017425537109375,-0.09344482421875,-0.011810302734375
1751013950954505000,3.5225048828125,-1.0148773193359375,-0.0897674560546875,-0.0083770751953125
1751013950964449000,3.532448974609375,-1.013092041015625,-0.0892486572265625,-0.007965087890625
1751013950974392000,3.54239208984375,-1.0126800537109375,-0.0887298583984375,-0.00567626953125
1751013950984336000,3.5523359375,-1.009765625,-0.0928497314453125,-0.004150390625
1751013950994280200,3.5622802734375,-1.0067138671875,-0.09857177734375,-0.00738525390625
1751013951004223200,3.57222314453125,-1.0108795166015625,-0.1043701171875,-0.009918212890625
1751013951014167000,3.5821669921875,-1.016937255859375,-0.107666015625,-0.0106048583984375
1751013951024111000,3.592111083984375,-1.024627685546875,-0.106048583984375,-0.005767822265625
1751013951034054100,3.60205419921875,-1.034942626953125,-0.0993804931640625,0.00128173828125
1751013951043998000,3.611998046875,-1.043701171875,-0.0902557373046875,0.0044403076171875
1751013951053942000,3.62194189453125,-1.0454559326171875,-0.0825042724609375,-0.00140380859375
1751013951063885000,3.631885009765625,-1.0424346923828125,-0.0782470703125,-0.00726318359375
1751013951073828900,3.641828857421875,-1.0394134521484375,-0.0734710693359375,-0.00933837890625
1751013951083772000,3.65177197265625,-1.03167724609375,-0.0724334716796875,-0.01824951171875
1751013951093716000,3.661716064453125,-1.017974853515625,-0.0742034912109375,-0.0217742919921875
1751013951103660000,3.671659912109375,-1.007476806640625,-0.0797119140625,-0.019073486328125
1751013951113603000,3.68160302734375,-1.00091552734375,-0.0858917236328125,-0.011444091796875
1751013951123547100,3.691547119140625,-0.9969635009765625,-0.0896148681640625,-0.003143310546875
1751013951133491000,3.701490966796875,-0.989349365234375,-0.0941162109375,-0.0001068115234375
1751013951143434000,3.71143408203125,-0.98431396484375,-0.0955047607421875,0.0048828125
1751013951153378000,3.7213779296875,-0.982025146484375,-0.096893310546875,0.007720947265625
1751013951163321000,3.731321044921875,-0.983062744140625,-0.098602294921875,0.006988525390625
1751013951173265000,3.741264892578125,-0.987213134765625,-0.09783935546875,0.0049591064453125
1751013951183209000,3.751208984375,-0.9946136474609375,-0.09686279296875,0.001800537109375
1751013951193152000,3.761152099609375,-1.0001983642578125,-0.094268798828125,-0.0043792724609375
1751013951203095800,3.771095703125,-1.000732421875,-0.0894927978515625,-0.008697509765625
1751013951213040000,3.7810400390625,-0.999298095703125,-0.084014892578125,-0.0101318359375
1751013951222983200,3.790983154296875,-1.004150390625,-0.0801544189453125,-0.0095672607421875
1751013951232927000,3.800927001953125,-1.003265380859375,-0.080535888671875,-0.008544921875
1751013951242871000,3.81087109375,-0.9974822998046875,-0.0831146240234375,-0.007568359375
1751013951252814000,3.82081396484375,-0.9967193603515625,-0.083740234375,-0.0036773681640625
1751013951262758100,3.830758056640625,-0.9980926513671875,-0.079864501953125,0.002227783203125
1751013951272701000,3.840700927734375,-1.000152587890625,-0.0758056640625,0.008331298828125
1751013951282645000,3.85064501953125,-1.0063934326171875,-0.0772705078125,0.0081787109375
1751013951292589000,3.860589111328125,-1.0131988525390625,-0.07708740234375,0.0042877197265625
1751013951302531800,3.87053173828125,-1.0152130126953125,-0.0741424560546875,-0.000335693359375
1751013951312476000,3.880475830078125,-1.016845703125,-0.0695037841796875,-0.0063018798828125
1751013951322420200,3.890420166015625,-1.018829345703125,-0.069305419921875,-0.0092010498046875
1751013951332363000,3.900363037109375,-1.0147247314453125,-0.0740203857421875,-0.0101165771484375
1751013951342307000,3.91030712890625,-1.01275634765625,-0.0748443603515625,-0.0099334716796875
1751013951352250000,3.92025,-1.0117645263671875,-0.0736236572265625,-0.0066375732421875
1751013951362194200,3.930194091796875,-1.009246826171875,-0.0786895751953125,-0.0067291259765625
1751013951372138000,3.940137939453125,-1.0060577392578125,-0.083709716796875,-0.006134033203125
1751013951382081000,3.9500810546875,-0.999786376953125,-0.08624267578125,-0.004974365234375
1751013951392025000,3.960025146484375,-0.997528076171875,-0.0867462158203125,-0.0076751708984375
1751013951401969000,3.969968994140625,-0.9975738525390625,-0.0853118896484375,-0.0045166015625
1751013951411912000,3.979911865234375,-0.9997406005859375,-0.0861968994140625,-0.008819580078125
1751013951421856000,3.98985595703125,-1.0017852783203125,-0.0860748291015625,-0.012451171875
1751013951431799800,3.9997998046875,-1.00335693359375,-0.083770751953125,-0.012786865234375
1751013951441742800,4.009742919921875,-1.0089569091796875,-0.080413818359375,-0.0107421875
1751013951451687200,4.019687255859375,-1.016571044921875,-0.0796661376953125,-0.013153076171875
1751013951461630200,4.029630126953125,-1.019134521484375,-0.0793304443359375,-0.0176239013671875
1751013951471574000,4.039573974609375,-1.019256591796875,-0.0799102783203125,-0.018096923828125
1751013951481518000,4.04951806640625,-1.0206146240234375,-0.0777587890625,-0.0157928466796875
1751013951491461000,4.059461181640625,-1.025146484375,-0.0766448974609375,-0.015777587890625
1751013951501405000,4.069405029296875,-1.028350830078125,-0.079132080078125,-0.0204010009765625
1751013951511349000,4.079348876953125,-1.0236053466796875,-0.07806396484375,-0.0224609375
1751013951521292000,4.0892919921875,-1.0227813720703125,-0.07537841796875,-0.020477294921875
1751013951531235800,4.09923583984375,-1.0213165283203125,-0.0730133056640625,-0.0163726806640625
1751013951541180000,4.109179931640625,-1.0200653076171875,-0.0740966796875,-0.0156707763671875
1751013951551123000,4.119123046875,-1.023712158203125,-0.0784912109375,-0.0190887451171875
1751013951561067000,4.12906689453125,-1.022705078125,-0.07757568359375,-0.0163116455078125
1751013951571010000,4.139010009765625,-1.018035888671875,-0.075836181640625,-0.0136871337890625
1751013951580954000,4.1489541015625,-1.0131683349609375,-0.0760498046875,-0.011749267578125
1751013951590898000,4.15889794921875,-1.0155181884765625,-0.0754852294921875,-0.01361083984375
1751013951600841000,4.168841064453125,-1.016204833984375,-0.07366943359375,-0.0143890380859375
1751013951610785000,4.178784912109375,-1.0152435302734375,-0.0704498291015625,-0.0096588134765625
1751013951620729000,4.18872900390625,-1.01397705078125,-0.0682830810546875,-0.00701904296875
1751013951630672000,4.198671875,-1.0143890380859375,-0.066680908203125,-0.007171630859375
1751013951640616000,4.208615966796875,-1.01104736328125,-0.0633087158203125,-0.008514404296875
1751013951650560000,4.21856005859375,-1.0112762451171875,-0.0631561279296875,-0.0088958740234375
1751013951660502800,4.228502685546875,-1.0111541748046875,-0.0667724609375,-0.0116424560546875
1751013951670447000,4.238447021484375,-1.00787353515625,-0.0710601806640625,-0.01171875
1751013951680390100,4.24839013671875,-1.000701904296875,-0.0734710693359375,-0.006103515625
1751013951690334200,4.258334228515625,-0.9986419677734375,-0.078765869140625,-0.0047149658203125
1751013951700278000,4.268278076171875,-0.9996337890625,-0.083404541015625,-0.005401611328125
1751013951710221000,4.278220947265625,-1.0030975341796875,-0.083221435546875,-0.004058837890625
1751013951720165000,4.2881650390625,-1.0030059814453125,-0.0800018310546875,-0.00164794921875
1751013951730109000,4.29810888671875,-1.0023651123046875,-0.0769805908203125,-0.00421142578125
1751013951740052000,4.308052001953125,-1.0085906982421875,-0.07330322265625,-0.006500244140625
1751013951749996000,4.31799609375,-1.0157318115234375,-0.0665740966796875,-0.0085906982421875
1751013951759939000,4.32793896484375,-1.018402099609375,-0.062469482421875,-0.012451171875
1751013951769883000,4.3378828125,-1.0178375244140625,-0.0590972900390625,-0.0153656005859375
1751013951779827200,4.3478271484375,-1.0137939453125,-0.0569915771484375,-0.0178070068359375
1751013951789770000,4.35777001953125,-1.012176513671875,-0.0580902099609375,-0.0167388916015625
1751013951799714000,4.367714111328125,-1.0125732421875,-0.0603790283203125,-0.0158538818359375
1751013951809658000,4.377658203125,-1.01788330078125,-0.0609283447265625,-0.01153564453125
1751013951819601200,4.38760107421875,-1.02569580078125,-0.0616455078125,-0.0061187744140625
1751013951829545000,4.397544921875,-1.029693603515625,-0.0614776611328125,-0.0026092529296875
1751013951839489000,4.407489013671875,-1.0301971435546875,-0.0643157958984375,-0.0068206787109375
1751013951849436000,4.417435791015625,-1.0299530029296875,-0.0655517578125,-0.01275634765625
1751013951859379700,4.427379638671875,-1.026031494140625,-0.0643157958984375,-0.01361083984375
1751013951869322800,4.43732275390625,-1.0259246826171875,-0.061767578125,-0.0169830322265625
1751013951879266800,4.447266845703125,-1.025970458984375,-0.0605926513671875,-0.0181732177734375
1751013951889210600,4.457210693359375,-1.0252685546875,-0.062713623046875,-0.0190887451171875
1751013951899153700,4.467153564453125,-1.023101806640625,-0.0623931884765625,-0.0205230712890625
1751013951909097700,4.47709765625,-1.0176239013671875,-0.0629119873046875,-0.018463134765625
1751013951919041500,4.48704150390625,-1.006256103515625,-0.0667572021484375,-0.014984130859375
1751013951928984600,4.496984619140625,-1.002166748046875,-0.074676513671875,-0.01397705078125
1751013951938928600,4.5069287109375,-1.0014495849609375,-0.0810699462890625,-0.014373779296875
1751013951948872700,4.516872802734375,-0.994781494140625,-0.0848236083984375,-0.0157928466796875
1751013951958815700,4.526815673828125,-0.9916839599609375,-0.0853424072265625,-0.013427734375
1751013951968759800,4.536759765625,-0.990966796875,-0.0845184326171875,-0.0118865966796875
1751013951978702800,4.546702880859375,-0.990966796875,-0.0836029052734375,-0.012451171875
1751013951988646700,4.556646728515625,-0.99200439453125,-0.0817718505859375,-0.0151214599609375
1751013951998590700,4.5665908203125,-0.9973907470703125,-0.0831756591796875,-0.0194549560546875
1751013952008533800,4.57653369140625,-1.003692626953125,-0.086395263671875,-0.0223236083984375
1751013952018477600,4.5864775390625,-1.0079498291015625,-0.0833587646484375,-0.0222320556640625
1751013952028421600,4.596421630859375,-1.005828857421875,-0.0796661376953125,-0.022918701171875
1751013952038364700,4.60636474609375,-1.0048065185546875,-0.076507568359375,-0.02374267578125
1751013952048308700,4.616308837890625,-1.00518798828125,-0.0736083984375,-0.017852783203125
1751013952058252800,4.626252685546875,-1.006988525390625,-0.069976806640625,-0.01361083984375
1751013952068195800,4.63619580078125,-1.0111541748046875,-0.0695343017578125,-0.0179443359375
1751013952078140000,4.646139892578125,-1.01416015625,-0.067901611328125,-0.0207672119140625
1751013952088083700,4.656083740234375,-1.016021728515625,-0.0672149658203125,-0.0206451416015625
1751013952098026800,4.66602685546875,-1.018463134765625,-0.0657806396484375,-0.0167083740234375
1751013952107970800,4.675970703125,-1.0240020751953125,-0.06427001953125,-0.0170135498046875
1751013952117913600,4.68591357421875,-1.02508544921875,-0.0632781982421875,-0.0211334228515625
1751013952127857700,4.695857666015625,-1.02056884765625,-0.0617218017578125,-0.0225982666015625
1751013952137801700,4.7058017578125,-1.01708984375,-0.061553955078125,-0.0221405029296875
1751013952147744800,4.715744873046875,-1.0167388916015625,-0.061248779296875,-0.0217132568359375
1751013952157688600,4.7256884765625,-1.0174407958984375,-0.063873291015625,-0.02166748046875
1751013952167633000,4.7356328125,-1.0154876708984375,-0.066558837890625,-0.0203704833984375
1751013952177576000,4.745575927734375,-1.0130615234375,-0.0687103271484375,-0.0203704833984375
1751013952187519700,4.755519775390625,-1.0125274658203125,-0.068695068359375,-0.0192718505859375
1751013952197463800,4.7654638671875,-1.013427734375,-0.068572998046875,-0.0201416015625
1751013952207406800,4.77540673828125,-1.0126190185546875,-0.070159912109375,-0.023681640625
1751013952217350700,4.7853505859375,-1.0117034912109375,-0.07232666015625,-0.025054931640625
1751013952227293700,4.795293701171875,-1.0166015625,-0.077301025390625,-0.0285186767578125
1751013952237237800,4.80523779296875,-1.0159912109375,-0.08062744140625,-0.0299072265625
1751013952247181600,4.815181640625,-1.020355224609375,-0.083251953125,-0.0323486328125
1751013952257124600,4.82512451171875,-1.018157958984375,-0.0796051025390625,-0.0220489501953125
1751013952267068700,4.835068603515625,-1.0093536376953125,-0.0779571533203125,-0.020172119140625
1751013952277012700,4.8450126953125,-1.0054779052734375,-0.078948974609375,-0.0241241455078125
1751013952286955500,4.85495556640625,-1.0058746337890625,-0.0778350830078125,-0.02386474609375
1751013952296899800,4.86489990234375,-1.00531005859375,-0.0781707763671875,-0.0196990966796875
1751013952306843600,4.87484375,-1.0028076171875,-0.0802001953125,-0.0169219970703125
1751013952316786700,4.88478662109375,-1.000091552734375,-0.080841064453125,-0.0141754150390625
1751013952326730800,4.894730712890625,-0.9993896484375,-0.0784759521484375,-0.012176513671875
1751013952336674800,4.9046748046875,-1.004913330078125,-0.079345703125,-0.0125579833984375
1751013952346617600,4.91461767578125,-1.00830078125,-0.0851593017578125,-0.0169525146484375
1751013952356561700,4.924561767578125,-1.0075836181640625,-0.08917236328125,-0.017913818359375
1751013952366504700,4.934504638671875,-1.00946044921875,-0.09014892578125,-0.019134521484375
1751013952376448500,4.944448486328125,-1.0093841552734375,-0.09228515625,-0.0164794921875
1751013952386392600,4.954392578125,-1.0072479248046875,-0.08935546875,-0.0132293701171875
1751013952396335600,4.964335693359375,-1.0097198486328125,-0.0864105224609375,-0.0150909423828125
1751013952406279700,4.97427978515625,-1.01068115234375,-0.082672119140625,-0.0157012939453125
1751013952416223700,4.9842236328125,-1.0135345458984375,-0.0777587890625,-0.015716552734375
1751013952426166800,4.994166748046875,-1.016845703125,-0.073211669921875,-0.0167388916015625
1751013952436110800,5.00411083984375,-1.022674560546875,-0.0706939697265625,-0.021270751953125
1751013952446054700,5.0140546875,-1.0244903564453125,-0.0704803466796875,-0.0236053466796875
1751013952455997700,5.023997802734375,-1.0203399658203125,-0.072174072265625,-0.025970458984375
1751013952465941800,5.033941650390625,-1.019439697265625,-0.0743865966796875,-0.027801513671875
1751013952475884800,5.043884765625,-1.0223541259765625,-0.0778961181640625,-0.026153564453125
1751013952485828600,5.05382861328125,-1.0233001708984375,-0.0809783935546875,-0.024993896484375
1751013952495772700,5.063772705078125,-1.0257720947265625,-0.08123779296875,-0.0243072509765625
1751013952505715700,5.0737158203125,-1.02374267578125,-0.0809478759765625,-0.0211181640625
1751013952515659800,5.08365966796875,-1.0179443359375,-0.08135986328125,-0.020355224609375
1751013952525603800,5.093603759765625,-1.0139312744140625,-0.0791015625,-0.0185546875
1751013952535547000,5.103546875,-1.0134429931640625,-0.078643798828125,-0.020843505859375
1751013952545490700,5.11349072265625,-1.011810302734375,-0.0804595947265625,-0.0234832763671875
1751013952555434800,5.123434814453125,-1.011505126953125,-0.077728271484375,-0.023223876953125
1751013952565377800,5.133377685546875,-1.011383056640625,-0.0777740478515625,-0.021820068359375
1751013952575321600,5.143321533203125,-1.008331298828125,-0.0812225341796875,-0.0240020751953125
1751013952585265700,5.153265625,-1.0044708251953125,-0.084259033203125,-0.023834228515625
1751013952595208700,5.163208740234375,-1.00335693359375,-0.08636474609375,-0.0178985595703125
1751013952605152500,5.173152587890625,-1.0026092529296875,-0.0886688232421875,-0.0157623291015625
1751013952615096800,5.183096923828125,-1.008209228515625,-0.0941925048828125,-0.019287109375
1751013952625040000,5.193039794921875,-1.0113067626953125,-0.1004791259765625,-0.020721435546875
1751013952634983700,5.202983642578125,-1.011962890625,-0.0989990234375,-0.0208740234375
1751013952644926700,5.2129267578125,-1.0126953125,-0.0938720703125,-0.018707275390625
1751013952654870800,5.222870849609375,-1.008758544921875,-0.08746337890625,-0.0178070068359375
1751013952664814600,5.232814697265625,-1.0075531005859375,-0.0778656005859375,-0.01953125
1751013952674757600,5.242757568359375,-1.0107421875,-0.06982421875,-0.0211334228515625
1751013952684701700,5.25270166015625,-1.0100250244140625,-0.0658721923828125,-0.025360107421875
1751013952694645800,5.262645751953125,-1.013214111328125,-0.067626953125,-0.025115966796875
1751013952704588500,5.272588623046875,-1.0181884765625,-0.0698699951171875,-0.0230560302734375
1751013952714532600,5.28253271484375,-1.0239715576171875,-0.07318115234375,-0.0243072509765625
1751013952724477000,5.292476806640625,-1.025146484375,-0.079254150390625,-0.0250244140625
1751013952734419700,5.302419677734375,-1.025238037109375,-0.082122802734375,-0.0235748291015625
1751013952744363800,5.31236376953125,-1.025665283203125,-0.0833740234375,-0.024688720703125
1751013952754307800,5.322307861328125,-1.0180511474609375,-0.0834503173828125,-0.0242462158203125
1751013952764251000,5.3322509765625,-1.0084381103515625,-0.0842742919921875,-0.0234832763671875
1751013952774194700,5.342194580078125,-1.0069580078125,-0.08294677734375,-0.021728515625
1751013952784137700,5.3521376953125,-1.00482177734375,-0.0832672119140625,-0.0215301513671875
1751013952794081800,5.362081787109375,-1.00164794921875,-0.0840606689453125,-0.0215301513671875
1751013952804025600,5.372025634765625,-0.998809814453125,-0.0858001708984375,-0.0214080810546875
1751013952813968600,5.38196875,-0.999847412109375,-0.086273193359375,-0.0198211669921875
1751013952823912700,5.39191259765625,-0.998779296875,-0.0862274169921875,-0.0195159912109375
1751013952833856800,5.401856689453125,-1.00396728515625,-0.086822509765625,-0.0205535888671875
1751013952843796500,5.41179638671875,-1.012725830078125,-0.0883026123046875,-0.0260467529296875
1751013952853740800,5.42174072265625,-1.015777587890625,-0.08905029296875,-0.0316619873046875
1751013952863684600,5.4316845703125,-1.014007568359375,-0.0897216796875,-0.032928466796875
1751013952873627600,5.441627685546875,-1.009613037109375,-0.0901947021484375,-0.0308074951171875
1751013952883571700,5.45157177734375,-1.0112762451171875,-0.090576171875,-0.0297088623046875
1751013952893515500,5.461515625,-1.0112152099609375,-0.0883331298828125,-0.0279541015625
1751013952903458600,5.47145849609375,-1.0078277587890625,-0.0849151611328125,-0.0253753662109375
1751013952913402600,5.481402587890625,-1.0052947998046875,-0.0829925537109375,-0.025360107421875
1751013952923345700,5.491345703125,-1.0090484619140625,-0.0814971923828125,-0.0278472900390625
1751013952933289500,5.50128955078125,-1.01336669921875,-0.0844268798828125,-0.0279083251953125
1751013952943233500,5.511233642578125,-1.0135955810546875,-0.0868072509765625,-0.0282440185546875
1751013952953176600,5.521176513671875,-1.0124664306640625,-0.0855255126953125,-0.030548095703125
1751013952963120600,5.53112060546875,-1.0160064697265625,-0.08514404296875,-0.0310516357421875
1751013952973064700,5.541064697265625,-1.020172119140625,-0.08380126953125,-0.0249786376953125
1751013952983007700,5.5510078125,-1.013397216796875,-0.0845947265625,-0.022674560546875
1751013952992951600,5.56095166015625,-1.00970458984375,-0.0864715576171875,-0.02423095703125
1751013953002895600,5.5708955078125,-1.0093231201171875,-0.0891571044921875,-0.022430419921875
1751013953012838700,5.580838623046875,-1.00628662109375,-0.0916595458984375,-0.023162841796875
1751013953022782500,5.590782470703125,-1.0020599365234375,-0.095184326171875,-0.0247650146484375
1751013953032726500,5.6007265625,-0.9990386962890625,-0.0977020263671875,-0.0213775634765625
1751013953042669600,5.610669677734375,-0.9986572265625,-0.0982513427734375,-0.0200042724609375
1751013953052613400,5.62061328125,-1.00225830078125,-0.0985107421875,-0.0160064697265625
1751013953062557700,5.6305576171875,-1.006988525390625,-0.1003265380859375,-0.0168609619140625
1751013953072500500,5.64050048828125,-1.0095367431640625,-0.10009765625,-0.0184478759765625
1751013953082444500,5.650444580078125,-1.0121002197265625,-0.0966796875,-0.0201568603515625
1751013953092387600,5.6603876953125,-1.012115478515625,-0.0948028564453125,-0.021209716796875
1751013953102331600,5.67033154296875,-1.008575439453125,-0.092498779296875,-0.022003173828125
1751013953112275700,5.680275634765625,-1.0060577392578125,-0.0916290283203125,-0.023223876953125
1751013953122218500,5.690218505859375,-1.0069732666015625,-0.091339111328125,-0.023468017578125
1751013953132162600,5.70016259765625,-1.0067291259765625,-0.0854339599609375,-0.0192413330078125
1751013953142106600,5.710106689453125,-1.0074310302734375,-0.0865020751953125,-0.0215301513671875
1751013953152049700,5.720049560546875,-1.0002288818359375,-0.096435546875,-0.0309906005859375
1751013953161993500,5.729993408203125,-1.008636474609375,-0.09796142578125,-0.029998779296875
1751013953171937800,5.739937744140625,-1.018585205078125,-0.097015380859375,-0.0244293212890625
1751013953181880600,5.749880615234375,-1.007904052734375,-0.1011962890625,-0.0218658447265625
1751013953191824600,5.75982470703125,-1.0030975341796875,-0.1040496826171875,-0.0184326171875
1751013953201768700,5.769768798828125,-1.000885009765625,-0.10406494140625,-0.0175933837890625
1751013953211711700,5.779711669921875,-1.0002288818359375,-0.1025543212890625,-0.0177764892578125
1751013953221655600,5.789655517578125,-1.0050506591796875,-0.0999755859375,-0.0186767578125
1751013953231598600,5.7995986328125,-1.011505126953125,-0.0993804931640625,-0.0216217041015625
1751013953241542700,5.809542724609375,-1.0153045654296875,-0.098907470703125,-0.0261993408203125
1751013953251486500,5.819486572265625,-1.0159454345703125,-0.0994720458984375,-0.027069091796875
1751013953261429500,5.829429443359375,-1.01861572265625,-0.0992431640625,-0.026947021484375
1751013953271373600,5.83937353515625,-1.0186767578125,-0.100677490234375,-0.0291748046875
1751013953281317400,5.8493173828125,-1.014801025390625,-0.103607177734375,-0.029876708984375
1751013953291260400,5.859260498046875,-1.0068206787109375,-0.1048126220703125,-0.026214599609375
1751013953301204700,5.869204833984375,-1.0030364990234375,-0.106353759765625,-0.0226593017578125
1751013953311148500,5.8791484375,-0.9985809326171875,-0.109619140625,-0.0195159912109375
1751013953321091600,5.889091552734375,-0.993560791015625,-0.1136322021484375,-0.0178375244140625
1751013953331035600,5.89903564453125,-0.992218017578125,-0.1153106689453125,-0.0166778564453125
1751013953340979500,5.9089794921875,-0.9942169189453125,-0.1159515380859375,-0.0155792236328125
1751013953350922500,5.918922607421875,-0.9967498779296875,-0.118011474609375,-0.0213470458984375
1751013953360866600,5.928866455078125,-0.997894287109375,-0.1197967529296875,-0.0255126953125
1751013953370810600,5.938810546875,-1.000030517578125,-0.1195220947265625,-0.028533935546875
1751013953380753400,5.94875341796875,-1.0036773681640625,-0.12030029296875,-0.0294342041015625
1751013953390697500,5.958697509765625,-1.0049285888671875,-0.120086669921875,-0.027496337890625
1751013953400641800,5.968641845703125,-1.0022430419921875,-0.1196441650390625,-0.028045654296875
1751013953410584600,5.97858447265625,-1.0039825439453125,-0.11932373046875,-0.0316925048828125
1751013953420528600,5.988528564453125,-1.0071868896484375,-0.118896484375,-0.0341033935546875
1751013953430471700,5.9984716796875,-1.0098876953125,-0.1189117431640625,-0.0325469970703125
1751013953440415700,6.008415771484375,-1.01263427734375,-0.11968994140625,-0.0338592529296875
1751013953450359600,6.018359619140625,-1.014862060546875,-0.1185455322265625,-0.032867431640625
1751013953460302600,6.028302490234375,-1.012542724609375,-0.1160430908203125,-0.033477783203125
1751013953470246700,6.03824658203125,-1.0105133056640625,-0.1138458251953125,-0.0318756103515625
1751013953480190500,6.0481904296875,-1.0092926025390625,-0.113189697265625,-0.03021240234375
1751013953490133500,6.058133544921875,-1.0086669921875,-0.112762451171875,-0.027191162109375
1751013953500077600,6.06807763671875,-1.0081329345703125,-0.11248779296875,-0.024658203125
1751013953510021600,6.078021728515625,-1.0088653564453125,-0.11175537109375,-0.023284912109375
1751013953519964700,6.087964599609375,-1.0090484619140625,-0.109649658203125,-0.0208740234375
1751013953529908700,6.09790869140625,-1.0085601806640625,-0.1052398681640625,-0.0195159912109375
1751013953539852500,6.1078525390625,-1.00555419921875,-0.1029815673828125,-0.0184326171875
1751013953549795600,6.117795654296875,-1.0052947998046875,-0.1021881103515625,-0.0174407958984375
1751013953559739600,6.12773974609375,-1.006683349609375,-0.1026763916015625,-0.01849365234375
1751013953569683500,6.137683349609375,-1.004791259765625,-0.1016998291015625,-0.0198974609375
1751013953579626500,6.14762646484375,-1.00701904296875,-0.1022186279296875,-0.0207366943359375
1751013953589570600,6.157570556640625,-1.00823974609375,-0.10296630859375,-0.0193328857421875
1751013953599514400,6.167514404296875,-1.006744384765625,-0.106201171875,-0.02032470703125
1751013953609457400,6.17745751953125,-1.004913330078125,-0.1096954345703125,-0.0191192626953125
1751013953619401700,6.187401611328125,-1.0030059814453125,-0.1099700927734375,-0.02130126953125
1751013953629344800,6.1973447265625,-1.003143310546875,-0.1090240478515625,-0.02069091796875
1751013953639288600,6.20728857421875,-1.0032501220703125,-0.11053466796875,-0.0205841064453125
1751013953649232600,6.217232666015625,-1.001434326171875,-0.1143341064453125,-0.021270751953125
1751013953659175700,6.22717578125,-1.0009765625,-0.1175384521484375,-0.02410888671875
1751013953669119500,6.237119384765625,-1.0005035400390625,-0.1198883056640625,-0.02685546875
1751013953679063600,6.2470634765625,-1.00152587890625,-0.120025634765625,-0.02728271484375
1751013953689006600,6.257006591796875,-0.998138427734375,-0.1219482421875,-0.0273590087890625
1751013953698950700,6.26695068359375,-0.994964599609375,-0.1251678466796875,-0.02789306640625
1751013953708894500,6.27689453125,-0.9985198974609375,-0.1256256103515625,-0.0252227783203125
1751013953718837500,6.28683740234375,-0.99847412109375,-0.1238250732421875,-0.0209808349609375
1751013953728781800,6.29678173828125,-0.9945220947265625,-0.1238861083984375,-0.02069091796875
1751013953738725600,6.3067255859375,-0.995086669921875,-0.127716064453125,-0.0224761962890625
1751013953748668700,6.316668701171875,-0.9979705810546875,-0.129486083984375,-0.0215301513671875
1751013953758612700,6.32661279296875,-1.000244140625,-0.1269378662109375,-0.0184173583984375
1751013953768556500,6.336556640625,-1.0040740966796875,-0.1226806640625,-0.0186309814453125
1751013953778499600,6.34649951171875,-1.0076751708984375,-0.1167449951171875,-0.020904541015625
1751013953788443600,6.356443603515625,-1.009002685546875,-0.1085968017578125,-0.0243072509765625
1751013953798387500,6.366387451171875,-1.0072021484375,-0.0985107421875,-0.027313232421875
1751013953808330500,6.37633056640625,-1.006072998046875,-0.090789794921875,-0.0258941650390625
1751013953818274600,6.386274658203125,-1.011688232421875,-0.0871124267578125,-0.02203369140625
1751013953828218600,6.396218505859375,-1.0164337158203125,-0.0852508544921875,-0.0186767578125
1751013953838161400,6.406161376953125,-1.01629638671875,-0.0889434814453125,-0.018035888671875
1751013953848105700,6.416105712890625,-1.0173492431640625,-0.0970458984375,-0.0191650390625
1751013953858048800,6.426048828125,-1.0245513916015625,-0.10186767578125,-0.0204620361328125
1751013953867992600,6.43599267578125,-1.029052734375,-0.10723876953125,-0.0204925537109375
1751013953877936600,6.4459365234375,-1.0347747802734375,-0.1135711669921875,-0.021240234375
1751013953887879700,6.455879638671875,-1.031646728515625,-0.1155548095703125,-0.0199737548828125
1751013953897823500,6.465823486328125,-1.021392822265625,-0.114349365234375,-0.01898193359375
1751013953907767600,6.475767578125,-1.0146026611328125,-0.108917236328125,-0.019378662109375
1751013953917710600,6.485710693359375,-1.0134429931640625,-0.1026458740234375,-0.0202789306640625
1751013953927654400,6.495654296875,-1.010528564453125,-0.0999298095703125,-0.020599365234375
1751013953937598500,6.505598388671875,-1.00689697265625,-0.10009765625,-0.022613525390625
1751013953947541500,6.51554150390625,-1.00634765625,-0.10015869140625,-0.0237884521484375
1751013953957485600,6.525485595703125,-1.008392333984375,-0.1017303466796875,-0.02276611328125
1751013953967429600,6.5354296875,-1.012969970703125,-0.10614013671875,-0.02459716796875
1751013953977372700,6.54537255859375,-1.0171356201171875,-0.1082305908203125,-0.0254364013671875
1751013953987316700,6.555316650390625,-1.0153350830078125,-0.1082611083984375,-0.02471923828125
1751013953997260500,6.565260498046875,-1.0130157470703125,-0.1106719970703125,-0.0234222412109375
1751013954007203600,6.57520361328125,-1.0139312744140625,-0.1127166748046875,-0.019195556640625
1751013954017147600,6.585147705078125,-1.0112152099609375,-0.113525390625,-0.020263671875
1751013954027091500,6.595091552734375,-1.0028228759765625,-0.1100006103515625,-0.0203094482421875
1751013954037034500,6.605034423828125,-1.0008087158203125,-0.10528564453125,-0.0177764892578125
1751013954046978600,6.614978515625,-1.0043182373046875,-0.1030731201171875,-0.016815185546875
1751013954056921600,6.624921630859375,-1.0038604736328125,-0.1037445068359375,-0.02001953125
1751013954066865700,6.63486572265625,-1.0052032470703125,-0.1033782958984375,-0.0209197998046875
1751013954076809700,6.644809814453125,-1.0089874267578125,-0.102325439453125,-0.0190887451171875
1751013954086752800,6.654752685546875,-1.0145721435546875,-0.101318359375,-0.0191802978515625
1751013954096696600,6.664696533203125,-1.01715087890625,-0.1014556884765625,-0.0212249755859375
1751013954106640600,6.674640625,-1.0164642333984375,-0.1031646728515625,-0.0246124267578125
1751013954116583700,6.684583740234375,-1.0157928466796875,-0.103240966796875,-0.0268096923828125
1751013954126527500,6.694527587890625,-1.016326904296875,-0.1007232666015625,-0.024566650390625
1751013954136471600,6.704471435546875,-1.015960693359375,-0.09930419921875,-0.024993896484375
1751013954146414600,6.71441455078125,-1.0030364990234375,-0.10223388671875,-0.0339202880859375
1751013954156358400,6.7243583984375,-0.993255615234375,-0.1032867431640625,-0.0310211181640625
1751013954166302700,6.734302734375,-0.9914093017578125,-0.1014862060546875,-0.0263671875
1751013954176245800,6.744245849609375,-0.98980712890625,-0.0976715087890625,-0.013397216796875
1751013954186189600,6.754189453125,-0.99127197265625,-0.095550537109375,-0.0086212158203125
1751013954196133600,6.764133544921875,-0.9927215576171875,-0.09521484375,-0.0073394775390625
1751013954206076700,6.77407666015625,-0.9941253662109375,-0.0943603515625,-0.008941650390625
1751013954216020500,6.7840205078125,-1.0041961669921875,-0.0938873291015625,-0.013763427734375
1751013954225964500,6.793964599609375,-1.0150146484375,-0.0929718017578125,-0.0180816650390625
1751013954235907600,6.803907470703125,-1.0219879150390625,-0.090667724609375,-0.021820068359375
1751013954245851400,6.813851318359375,-1.0324249267578125,-0.0868377685546875,-0.025390625
1751013954255795500,6.82379541015625,-1.035614013671875,-0.085296630859375,-0.0283966064453125
1751013954265738500,6.833738525390625,-1.03558349609375,-0.0833892822265625,-0.0312957763671875
1751013954275682600,6.8436826171875,-1.0333709716796875,-0.0828094482421875,-0.0295562744140625
1751013954285626600,6.853626708984375,-1.0262298583984375,-0.0827484130859375,-0.0251922607421875
1751013954295569700,6.863569580078125,-1.0160064697265625,-0.0833282470703125,-0.0211181640625
1751013954305513700,6.873513671875,-1.0068817138671875,-0.0855560302734375,-0.017730712890625
1751013954315457500,6.88345751953125,-1.006317138671875,-0.0882415771484375,-0.0150909423828125
1751013954325400600,6.893400634765625,-1.0112762451171875,-0.093292236328125,-0.014007568359375
1751013954335344600,6.9033447265625,-1.0138397216796875,-0.0957794189453125,-0.015380859375
1751013954345288400,6.913288330078125,-1.0150604248046875,-0.0973968505859375,-0.0170745849609375
1751013954355231500,6.9232314453125,-1.018035888671875,-0.0990753173828125,-0.02099609375
1751013954365175600,6.933175537109375,-1.016326904296875,-0.0987396240234375,-0.02301025390625
1751013954375118600,6.94311865234375,-1.0090789794921875,-0.09765625,-0.0211639404296875
1751013954385062700,6.953062744140625,-1.002410888671875,-0.0924530029296875,-0.018524169921875
1751013954395006700,6.9630068359375,-0.99774169921875,-0.0922088623046875,-0.0153350830078125
1751013954404949800,6.97294970703125,-0.99273681640625,-0.09368896484375,-0.01312255859375
1751013954414893600,6.9828935546875,-0.98583984375,-0.0938568115234375,-0.009490966796875
1751013954424837600,6.992837646484375,-0.9849853515625,-0.093780517578125,-0.00689697265625
1751013954434780700,7.00278076171875,-0.9896087646484375,-0.0957794189453125,-0.00750732421875
1751013954444724500,7.012724365234375,-0.9961395263671875,-0.096771240234375,-0.0088348388671875
1751013954454668500,7.02266845703125,-1.003570556640625,-0.0966796875,-0.0125274658203125
1751013954464611600,7.032611572265625,-1.0102691650390625,-0.096649169921875,-0.020416259765625
1751013954474555400,7.042555419921875,-1.0173797607421875,-0.0948944091796875,-0.0272216796875
1751013954484499700,7.052499755859375,-1.0258636474609375,-0.0917205810546875,-0.0315399169921875
1751013954494442800,7.06244287109375,-1.0267333984375,-0.0911102294921875,-0.033477783203125
1751013954504386600,7.072386474609375,-1.0259246826171875,-0.0878143310546875,-0.0337677001953125
1751013954514330600,7.08233056640625,-1.0246124267578125,-0.0830230712890625,-0.030670166015625
1751013954524273700,7.092273681640625,-1.023284912109375,-0.080078125,-0.0269622802734375
1751013954534217500,7.102217529296875,-1.018798828125,-0.0824737548828125,-0.0255889892578125
1751013954544161500,7.11216162109375,-1.0163421630859375,-0.0840301513671875,-0.0246734619140625
1751013954554104600,7.1221044921875,-1.016143798828125,-0.0870513916015625,-0.02313232421875
1751013954564048600,7.132048583984375,-1.017547607421875,-0.0919342041015625,-0.0243988037109375
1751013954573992400,7.141992431640625,-1.019256591796875,-0.09661865234375,-0.0268096923828125
1751013954583935500,7.151935546875,-1.019439697265625,-0.097991943359375,-0.0269012451171875
1751013954593879800,7.1618798828125,-1.0175628662109375,-0.09765625,-0.0312042236328125
1751013954603823600,7.17182373046875,-1.0162506103515625,-0.097015380859375,-0.0347137451171875
1751013954613766700,7.1817666015625,-1.0170135498046875,-0.095855712890625,-0.0357513427734375
1751013954623710700,7.191710693359375,-1.014068603515625,-0.0948638916015625,-0.03619384765625
1751013954633654500,7.201654541015625,-1.0027618408203125,-0.093963623046875,-0.0356292724609375
1751013954643597600,7.21159765625,-0.998260498046875,-0.0921783447265625,-0.033599853515625
1751013954653541600,7.221541748046875,-0.998443603515625,-0.0930023193359375,-0.029449462890625
1751013954663485400,7.2314853515625,-0.9987640380859375,-0.09503173828125,-0.0247650146484375
1751013954673428500,7.241428466796875,-0.9996337890625,-0.098236083984375,-0.023101806640625
1751013954683372500,7.25137255859375,-1.003082275390625,-0.09820556640625,-0.0221405029296875
1751013954693316600,7.261316650390625,-1.0073394775390625,-0.096588134765625,-0.02239990234375
1751013954703259400,7.27125927734375,-1.0071563720703125,-0.095703125,-0.02392578125
1751013954713203700,7.28120361328125,-1.01123046875,-0.092193603515625,-0.0269012451171875
1751013954723147500,7.2911474609375,-1.0221405029296875,-0.088226318359375,-0.0330047607421875
1751013954733090600,7.301090576171875,-1.0265350341796875,-0.088134765625,-0.0356597900390625
1751013954743034600,7.31103466796875,-1.020843505859375,-0.0889892578125,-0.03704833984375
1751013954752978700,7.320978759765625,-1.0173492431640625,-0.085845947265625,-0.0352935791015625
1751013954762921500,7.33092138671875,-1.0142974853515625,-0.0824737548828125,-0.0330963134765625
1751013954772865500,7.340865478515625,-1.007232666015625,-0.083465576171875,-0.0279388427734375
1751013954782808600,7.35080859375,-1.000518798828125,-0.08758544921875,-0.0267181396484375
1751013954792752400,7.36075244140625,-0.9971466064453125,-0.090484619140625,-0.0268402099609375
1751013954802696700,7.37069677734375,-0.9956817626953125,-0.0945281982421875,-0.0266265869140625
1751013954812639500,7.380639404296875,-0.99432373046875,-0.096527099609375,-0.0241851806640625
1751013954822583600,7.39058349609375,-0.993621826171875,-0.0979156494140625,-0.0197906494140625
1751013954832527600,7.400527587890625,-0.9959869384765625,-0.099151611328125,-0.017547607421875
1751013954842470400,7.410470458984375,-1.0000152587890625,-0.09722900390625,-0.0162200927734375
1751013954852414500,7.42041455078125,-1.007080078125,-0.0937957763671875,-0.0149383544921875
1751013954862358300,7.430358154296875,-1.0173797607421875,-0.0903778076171875,-0.0154571533203125
1751013954872301300,7.44030126953125,-1.0237884521484375,-0.0889892578125,-0.017181396484375
1751013954882245400,7.450245361328125,-1.0267333984375,-0.083038330078125,-0.01702880859375
1751013954892189200,7.460189208984375,-1.0247802734375,-0.0772857666015625,-0.0165557861328125
1751013954902132200,7.47013232421875,-1.0206451416015625,-0.072998046875,-0.01373291015625
1751013954912076300,7.480076171875,-1.018463134765625,-0.0705413818359375,-0.0077056884765625
1751013954922020400,7.490020263671875,-1.0166473388671875,-0.0701904296875,-0.002960205078125
1751013954931963400,7.49996337890625,-1.0167388916015625,-0.074859619140625,-0.0025634765625
1751013954941907500,7.509907470703125,-1.019622802734375,-0.0797119140625,-0.0031280517578125
1751013954951851300,7.519851318359375,-1.0225067138671875,-0.0845184326171875,-0.0051727294921875
1751013954961794300,7.529794189453125,-1.0253143310546875,-0.08966064453125,-0.011383056640625
1751013954971738400,7.53973828125,-1.02642822265625,-0.0939788818359375,-0.01641845703125
1751013954981682200,7.54968212890625,-1.0245361328125,-0.0964508056640625,-0.020721435546875
1751013954991625200,7.559625244140625,-1.01800537109375,-0.095001220703125,-0.0233306884765625
1751013955001569300,7.5695693359375,-1.0159149169921875,-0.0923919677734375,-0.023406982421875
1751013955011513300,7.579513427734375,-1.0146331787109375,-0.0932159423828125,-0.0213470458984375
1751013955021456100,7.5894560546875,-1.0147552490234375,-0.0937042236328125,-0.0190582275390625
1751013955031400400,7.599400390625,-1.0145721435546875,-0.0949554443359375,-0.0189208984375
1751013955041344500,7.609344482421875,-1.011077880859375,-0.097076416015625,-0.020477294921875
1751013955051287300,7.619287353515625,-1.0093994140625,-0.0996551513671875,-0.023040771484375
1751013955061231400,7.6292314453125,-1.0060577392578125,-0.1028289794921875,-0.0244293212890625
1751013955071175400,7.639175537109375,-1.002227783203125,-0.1033172607421875,-0.0230255126953125
1751013955081118500,7.649118408203125,-0.9972076416015625,-0.103759765625,-0.0223541259765625
1751013955091062300,7.659062255859375,-0.9943695068359375,-0.10394287109375,-0.01959228515625
1751013955101006300,7.66900634765625,-0.995758056640625,-0.104248046875,-0.017120361328125
1751013955110949400,7.678949462890625,-0.993865966796875,-0.104156494140625,-0.0145263671875
1751013955120893200,7.68889306640625,-0.994842529296875,-0.101104736328125,-0.0130462646484375
1751013955130837500,7.69883740234375,-1.000244140625,-0.0963134765625,-0.011077880859375
1751013955140780500,7.708780517578125,-1.0033721923828125,-0.0921630859375,-0.01263427734375
1751013955150724400,7.718724365234375,-1.00830078125,-0.087371826171875,-0.014739990234375
1751013955160668400,7.72866845703125,-1.012298583984375,-0.081207275390625,-0.0169677734375
1751013955170611500,7.738611572265625,-1.0175323486328125,-0.074249267578125,-0.01715087890625
1751013955180555300,7.74855517578125,-1.02203369140625,-0.0708770751953125,-0.016143798828125
1751013955190499300,7.758499267578125,-1.0238189697265625,-0.0718536376953125,-0.0180511474609375
1751013955200442400,7.7684423828125,-1.0218048095703125,-0.073333740234375,-0.0185089111328125
1751013955210386200,7.77838623046875,-1.0180206298828125,-0.0745086669921875,-0.014862060546875
1751013955220330200,7.788330322265625,-1.015472412109375,-0.079071044921875,-0.0126495361328125
1751013955230273300,7.798273193359375,-1.014251708984375,-0.08416748046875,-0.013397216796875
1751013955240217300,7.80821728515625,-1.0094451904296875,-0.08599853515625,-0.0108184814453125
1751013955250161400,7.818161376953125,-1.0072174072265625,-0.0913238525390625,-0.0097198486328125
1751013955260104400,7.8281044921875,-1.009185791015625,-0.096160888671875,-0.0110321044921875
1751013955270048300,7.83804833984375,-1.0101776123046875,-0.0963287353515625,-0.0134735107421875
1751013955279992300,7.847992431640625,-1.0110931396484375,-0.0962066650390625,-0.0182342529296875
1751013955289935400,7.857935302734375,-1.012969970703125,-0.0968017578125,-0.0227813720703125
1751013955299879400,7.86787939453125,-1.016754150390625,-0.0965118408203125,-0.0266265869140625
1751013955309823200,7.8778232421875,-1.0162200927734375,-0.0950164794921875,-0.02716064453125
1751013955319766300,7.887766357421875,-1.0087890625,-0.0929718017578125,-0.026153564453125
1751013955329710300,7.89771044921875,-1.003570556640625,-0.0939483642578125,-0.0261993408203125
1751013955339654400,7.907654296875,-1.0067596435546875,-0.0973968505859375,-0.0236053466796875
1751013955349597400,7.917597412109375,-1.011444091796875,-0.10198974609375,-0.02081298828125
1751013955359541500,7.92754150390625,-1.012176513671875,-0.1061859130859375,-0.018280029296875
1751013955369485300,7.9374853515625,-1.011627197265625,-0.10833740234375,-0.01641845703125
1751013955379428400,7.947428466796875,-1.0091705322265625,-0.10858154296875,-0.0180511474609375
1751013955389372400,7.957372314453125,-1.0056610107421875,-0.10516357421875,-0.0175628662109375
1751013955399316200,7.967316162109375,-1.00628662109375,-0.1007537841796875,-0.019073486328125
1751013955409259300,7.97725927734375,-1.0098724365234375,-0.094268798828125,-0.020294189453125
1751013955419203300,7.987203369140625,-1.0132904052734375,-0.090423583984375,-0.0229034423828125
1751013955429147100,7.997147216796875,-1.01116943359375,-0.090606689453125,-0.0239410400390625
1751013955439090200,8.007090087890624,-1.0085601806640625,-0.089813232421875,-0.0199127197265625
1751013955449034500,8.017034423828125,-1.011016845703125,-0.0867462158203125,-0.0146942138671875
1751013955458978300,8.026978271484374,-1.0159912109375,-0.085784912109375,-0.012664794921875
1751013955468921300,8.03692138671875,-1.020904541015625,-0.0887298583984375,-0.0150909423828125
1751013955478865400,8.046865478515626,-1.0223388671875,-0.094390869140625,-0.018707275390625
1751013955488809500,8.0568095703125,-1.0211639404296875,-0.100677490234375,-0.02191162109375
1751013955498752300,8.066752197265625,-1.01531982421875,-0.103607177734375,-0.02301025390625
1751013955508696300,8.0766962890625,-1.0104827880859375,-0.1060333251953125,-0.023345947265625
1751013955518640400,8.086640380859375,-1.0098114013671875,-0.1078338623046875,-0.02288818359375
1751013955528583200,8.096583251953126,-1.0109405517578125,-0.106109619140625,-0.023162841796875
1751013955538527200,8.10652734375,-1.0076141357421875,-0.1016387939453125,-0.023101806640625
1751013955548471600,8.116471435546876,-1.0055084228515625,-0.095458984375,-0.021331787109375
1751013955558414300,8.126414306640624,-1.0037384033203125,-0.09136962890625,-0.020721435546875
1751013955568358400,8.1363583984375,-1.0051727294921875,-0.0917510986328125,-0.024871826171875
1751013955578302500,8.146302490234374,-1.0092620849609375,-0.0917205810546875,-0.02862548828125
1751013955588245500,8.15624560546875,-1.0139617919921875,-0.0923004150390625,-0.0311279296875
1751013955598189300,8.166189208984376,-1.014801025390625,-0.094970703125,-0.03271484375
1751013955608133400,8.17613330078125,-1.0091552734375,-0.0973052978515625,-0.031768798828125
1751013955618076400,8.186076416015625,-1.004150390625,-0.1010894775390625,-0.0289306640625
1751013955628020200,8.196020263671874,-0.9995880126953125,-0.104949951171875,-0.0285797119140625
1751013955637964300,8.20596435546875,-0.9932403564453125,-0.1074676513671875,-0.0271148681640625
1751013955647907300,8.2159072265625,-0.9898223876953125,-0.114776611328125,-0.026123046875
1751013955657851100,8.22585107421875,-0.9892425537109375,-0.12164306640625,-0.028411865234375
1751013955667795500,8.23579541015625,-0.9907073974609375,-0.12841796875,-0.0298919677734375
1751013955677738500,8.245738525390625,-0.9919281005859375,-0.13092041015625,-0.030303955078125
1751013955687682300,8.255682373046875,-1.00238037109375,-0.113922119140625,-0.0321807861328125
1751013955697626400,8.26562646484375,-1.0123443603515625,-0.09136962890625,-0.014434814453125
1751013955707569400,8.2755693359375,-1.01727294921875,-0.085845947265625,-0.016082763671875
1751013955717513200,8.28551318359375,-1.0222015380859375,-0.086151123046875,-0.032318115234375
1751013955727457300,8.295457275390625,-1.024658203125,-0.0785980224609375,-0.0391082763671875
1751013955737400300,8.305400390625,-1.0245208740234375,-0.0698394775390625,-0.03570556640625
1751013955747344100,8.31534423828125,-1.0260772705078125,-0.0690155029296875,-0.0316314697265625
1751013955757288200,8.3252880859375,-1.0299835205078125,-0.0745697021484375,-0.02752685546875
1751013955767231200,8.335231201171876,-1.03314208984375,-0.0816802978515625,-0.0263824462890625
1751013955777175600,8.345175537109375,-1.0299072265625,-0.0875091552734375,-0.026458740234375
1751013955787119400,8.355119384765626,-1.0260162353515625,-0.0863800048828125,-0.0240631103515625
1751013955797062400,8.3650625,-1.022796630859375,-0.0860595703125,-0.021514892578125
1751013955807006500,8.37500634765625,-1.019805908203125,-0.0873260498046875,-0.02093505859375
1751013955816950300,8.3849501953125,-1.019775390625,-0.0888671875,-0.0221099853515625
1751013955826893300,8.394893310546875,-1.0191650390625,-0.0889129638671875,-0.024688720703125
1751013955836837400,8.40483740234375,-1.018829345703125,-0.0868377685546875,-0.0287017822265625
1751013955846781700,8.41478173828125,-1.0193939208984375,-0.086151123046875,-0.031890869140625
1751013955856724700,8.424724853515626,-1.0119171142578125,-0.0853729248046875,-0.0319976806640625
1751013955866668800,8.434668701171875,-1.0045013427734375,-0.082977294921875,-0.0304412841796875
1751013955876612600,8.444612548828125,-0.997711181640625,-0.0802001953125,-0.0281219482421875
1751013955886555600,8.4545556640625,-0.9924774169921875,-0.0810089111328125,-0.025360107421875
1751013955896499700,8.464499755859375,-0.9923095703125,-0.0839691162109375,-0.02276611328125
1751013955906443500,8.474443603515626,-1.0007781982421875,-0.091156005859375,-0.02496337890625
1751013955916386600,8.484386474609375,-1.004364013671875,-0.0970306396484375,-0.0280914306640625
1751013955926330600,8.49433056640625,-1.001373291015625,-0.0990142822265625,-0.02911376953125
1751013955936274400,8.5042744140625,-0.9986114501953125,-0.0989227294921875,-0.0285186767578125
1751013955946217500,8.514217529296875,-0.9996185302734375,-0.0980072021484375,-0.03057861328125
1751013955956161800,8.524161865234374,-1.00103759765625,-0.092987060546875,-0.03326416015625
1751013955966105600,8.534105712890625,-1.0005035400390625,-0.087646484375,-0.031524658203125
1751013955976048600,8.544048583984376,-0.999237060546875,-0.082733154296875,-0.03045654296875
1751013955985992700,8.55399267578125,-1.0020294189453125,-0.0783538818359375,-0.0295257568359375
1751013955995936500,8.5639365234375,-1.0062103271484375,-0.077362060546875,-0.031890869140625
1751013956005880600,8.573880615234375,-1.0066375732421875,-0.083343505859375,-0.0332489013671875
1751013956015823600,8.58382373046875,-1.003143310546875,-0.088836669921875,-0.0326080322265625
1751013956025767700,8.593767578125,-1.000244140625,-0.0899200439453125,-0.0281524658203125
1751013956035710500,8.60371044921875,-1.0018310546875,-0.0905303955078125,-0.0234527587890625
1751013956045654500,8.613654541015626,-1.0042266845703125,-0.093597412109375,-0.0229034423828125
1751013956055598800,8.623598876953125,-1.0095367431640625,-0.097137451171875,-0.0218353271484375
1751013956065542700,8.633542724609375,-1.0134429931640625,-0.0993194580078125,-0.024932861328125
1751013956075485700,8.643485595703124,-1.022552490234375,-0.096710205078125,-0.0321502685546875
1751013956085429800,8.6534296875,-1.0279388427734375,-0.09442138671875,-0.03729248046875
1751013956095373600,8.66337353515625,-1.0294189453125,-0.09344482421875,-0.0363311767578125
1751013956105316600,8.673316650390625,-1.031585693359375,-0.0921630859375,-0.0323333740234375
1751013956115260700,8.6832607421875,-1.033172607421875,-0.0901641845703125,-0.0295562744140625
1751013956125204500,8.69320458984375,-1.0324554443359375,-0.0903472900390625,-0.026214599609375
1751013956135147500,8.7031474609375,-1.0271453857421875,-0.0908660888671875,-0.02374267578125
1751013956145091600,8.713091552734374,-1.019622802734375,-0.0959014892578125,-0.017822265625
1751013956155035600,8.72303564453125,-1.0142669677734375,-0.104034423828125,-0.0135498046875
1751013956164978700,8.732978759765626,-1.0211334228515625,-0.1099090576171875,-0.0118560791015625
1751013956174922800,8.7429228515625,-1.033172607421875,-0.113189697265625,-0.0169525146484375
1751013956184866600,8.752866455078125,-1.0329132080078125,-0.116424560546875,-0.024566650390625
1751013956194809600,8.7628095703125,-1.021331787109375,-0.1120452880859375,-0.024261474609375
1751013956204753700,8.772753662109375,-1.0141143798828125,-0.102264404296875,-0.018890380859375
1751013956214697500,8.782697509765624,-1.011322021484375,-0.0931243896484375,-0.01593017578125
1751013956224640500,8.792640625,-1.0053253173828125,-0.0878448486328125,-0.0167236328125
1751013956234584600,8.80258447265625,-0.99908447265625,-0.086669921875,-0.0236053466796875
1751013956244528600,8.812528564453125,-0.99945068359375,-0.0868377685546875,-0.02459716796875
1751013956254471400,8.822471435546875,-0.999481201171875,-0.084075927734375,-0.0239105224609375
1751013956264415700,8.832415771484374,-0.994964599609375,-0.084503173828125,-0.02313232421875
1751013956274359800,8.84235986328125,-0.9860076904296875,-0.08514404296875,-0.021728515625
1751013956284302600,8.852302490234376,-0.9865264892578125,-0.0840301513671875,-0.0192413330078125
1751013956294246700,8.86224658203125,-0.9956207275390625,-0.0838775634765625,-0.017181396484375
1751013956304190700,8.872190673828126,-1.0010528564453125,-0.08575439453125,-0.02166748046875
1751013956314133800,8.8821337890625,-0.9997100830078125,-0.091033935546875,-0.0265655517578125
1751013956324077600,8.89207763671875,-1.000335693359375,-0.0916595458984375,-0.029022216796875
1751013956334021600,8.902021728515624,-1.0048675537109375,-0.084228515625,-0.0322418212890625
1751013956343964700,8.911964599609375,-1.0013427734375,-0.07659912109375,-0.0306549072265625
1751013956353908500,8.921908447265626,-1.001068115234375,-0.0706634521484375,-0.02069091796875
1751013956363852800,8.931852783203125,-1.0063018798828125,-0.0672760009765625,-0.0227813720703125
1751013956373795600,8.941795654296875,-1.0018463134765625,-0.069488525390625,-0.0278472900390625
1751013956383739600,8.95173974609375,-0.9967193603515625,-0.0737457275390625,-0.0325469970703125
1751013956393683700,8.96168359375,-1.002288818359375,-0.07574462890625,-0.0353851318359375
1751013956403626800,8.971626708984376,-1.0089874267578125,-0.0787353515625,-0.0289764404296875
1751013956413570600,8.981570556640625,-1.0117034912109375,-0.0805206298828125,-0.0231170654296875
1751013956423514600,8.9915146484375,-1.00433349609375,-0.0877838134765625,-0.0230255126953125
1751013956433458700,9.001458740234375,-0.999969482421875,-0.096649169921875,-0.0296478271484375
1751013956443401500,9.0114013671875,-1.0014801025390625,-0.10064697265625,-0.0326995849609375
1751013956453345500,9.021345458984374,-0.9992523193359375,-0.1026458740234375,-0.0338897705078125
1751013956463289900,9.031289794921875,-0.990020751953125,-0.1090240478515625,-0.032379150390625
1751013956473232600,9.041232666015626,-0.9933319091796875,-0.1116180419921875,-0.0266265869140625
1751013956483176700,9.0511767578125,-0.99359130859375,-0.10888671875,-0.0236053466796875
1751013956493120800,9.061120849609376,-0.9879913330078125,-0.1043243408203125,-0.02386474609375
1751013956503063600,9.0710634765625,-0.9935455322265625,-0.10113525390625,-0.02935791015625
1751013956513007600,9.081007568359375,-1.0056915283203125,-0.100494384765625,-0.032623291015625
1751013956522951700,9.09095166015625,-1.0130462646484375,-0.0967864990234375,-0.0337371826171875
1751013956532894700,9.100894775390625,-1.0141754150390625,-0.0907440185546875,-0.0355072021484375
1751013956542838500,9.110838623046876,-1.01202392578125,-0.086700439453125,-0.03717041015625
1751013956552782600,9.120782470703125,-1.0161895751953125,-0.088531494140625,-0.036102294921875
1751013956562725600,9.1307255859375,-1.01934814453125,-0.093292236328125,-0.0343017578125
1751013956572669700,9.140669677734374,-1.0207061767578125,-0.094085693359375,-0.033905029296875
1751013956582613800,9.15061376953125,-1.027923583984375,-0.0906524658203125,-0.02764892578125
1751013956592556800,9.160556884765626,-1.027252197265625,-0.0885009765625,-0.023895263671875
1751013956602500600,9.17050048828125,-1.0202178955078125,-0.085174560546875,-0.024566650390625
1751013956612444700,9.180444580078126,-1.015045166015625,-0.0804443359375,-0.0181121826171875
1751013956622387700,9.1903876953125,-1.010986328125,-0.0783843994140625,-0.0200347900390625
1751013956632331500,9.20033154296875,-1.0087127685546875,-0.077667236328125,-0.023590087890625
1751013956642275600,9.210275634765624,-1.0147552490234375,-0.07666015625,-0.0226593017578125
1751013956652218600,9.220218505859375,-1.0145111083984375,-0.08148193359375,-0.0263671875
1751013956662162400,9.230162353515626,-1.011199951171875,-0.087799072265625,-0.0323028564453125
1751013956672106800,9.240106689453125,-1.0084991455078125,-0.08984375,-0.0333404541015625
1751013956682049500,9.250049560546875,-1.003753662109375,-0.090667724609375,-0.0305938720703125
1751013956691993600,9.25999365234375,-0.999908447265625,-0.0931396484375,-0.028045654296875
1751013956701937700,9.269937744140625,-0.996124267578125,-0.0943603515625,-0.0283660888671875
1751013956711880700,9.279880615234376,-0.992889404296875,-0.0958099365234375,-0.027618408203125
1751013956721824800,9.28982470703125,-0.9945220947265625,-0.097625732421875,-0.0281524658203125
1751013956731768600,9.2997685546875,-0.998931884765625,-0.100860595703125,-0.0287322998046875
1751013956741712600,9.309712646484375,-1.0034637451171875,-0.104949951171875,-0.0330810546875
1751013956751655700,9.31965576171875,-1.0033721923828125,-0.1043853759765625,-0.0361785888671875
1751013956761599500,9.329599609375,-1.00482177734375,-0.097442626953125,-0.031829833984375
1751013956771543800,9.339543701171875,-1.00738525390625,-0.09075927734375,-0.0286407470703125
1751013956781486600,9.349486572265626,-1.0097198486328125,-0.0884246826171875,-0.0303497314453125
1751013956791430700,9.3594306640625,-1.006591796875,-0.0826416015625,-0.0336761474609375
1751013956801374700,9.369374755859376,-1.00360107421875,-0.077880859375,-0.0343170166015625
1751013956811317800,9.37931787109375,-1.006378173828125,-0.0779571533203125,-0.0325775146484375
1751013956821261600,9.389261474609375,-1.0101318359375,-0.083099365234375,-0.03155517578125
1751013956831205600,9.39920556640625,-1.0110321044921875,-0.0877685546875,-0.029754638671875
1751013956841148700,9.409148681640625,-1.012969970703125,-0.0887298583984375,-0.0324859619140625
1751013956851092000,9.419092041015626,-1.0150299072265625,-0.08831787109375,-0.0338897705078125
1751013956861035800,9.429035888671875,-1.0126800537109375,-0.0912322998046875,-0.0352935791015625
1751013956870978800,9.438978759765625,-1.01080322265625,-0.0924835205078125,-0.035369873046875
1751013956880923000,9.4489228515625,-1.0137939453125,-0.0880279541015625,-0.035186767578125
1751013956890866700,9.45886669921875,-1.014434814453125,-0.081939697265625,-0.033935546875
1751013956900809700,9.468809814453126,-1.011962890625,-0.08050537109375,-0.0328369140625
1751013956910753800,9.47875390625,-1.0136260986328125,-0.0786895751953125,-0.033477783203125
1751013956920697600,9.488697509765625,-1.0177459716796875,-0.074798583984375,-0.0338134765625
1751013956930640600,9.498640625,-1.0233612060546875,-0.07440185546875,-0.03472900390625
1751013956940584700,9.508584716796875,-1.025299072265625,-0.0743865966796875,-0.0368194580078125
1751013956950528800,9.51852880859375,-1.0279388427734375,-0.074554443359375,-0.0386810302734375
1751013956960472800,9.528472900390625,-1.025970458984375,-0.07598876953125,-0.038787841796875
1751013956970415900,9.538415771484376,-1.0234527587890625,-0.078277587890625,-0.039276123046875
1751013956980359700,9.548359619140625,-1.0216217041015625,-0.0780181884765625,-0.0368194580078125
1751013956990303700,9.5583037109375,-1.018463134765625,-0.0806121826171875,-0.0362701416015625
1751013957000246800,9.568246826171874,-1.01324462890625,-0.0835723876953125,-0.0380706787109375
1751013957010190800,9.57819091796875,-1.0117034912109375,-0.087677001953125,-0.037872314453125
1751013957020134700,9.588134765625,-1.018035888671875,-0.0862579345703125,-0.0282745361328125
1751013957030077700,9.59807763671875,-1.0152435302734375,-0.082275390625,-0.02362060546875
1751013957040021800,9.608021728515626,-1.0081634521484375,-0.0809478759765625,-0.0237884521484375
1751013957049965800,9.6179658203125,-1.0111846923828125,-0.07965087890625,-0.0277252197265625
1751013957059908900,9.627908935546875,-1.0157012939453125,-0.07769775390625,-0.034454345703125
1751013957069853000,9.63785302734375,-1.0159149169921875,-0.07708740234375,-0.03826904296875
1751013957079796700,9.647796630859375,-1.01580810546875,-0.0745391845703125,-0.042083740234375
1751013957089739800,9.65773974609375,-1.0134429931640625,-0.0771331787109375,-0.0454254150390625
1751013957099683800,9.667683837890625,-1.0124359130859375,-0.078643798828125,-0.0394439697265625
1751013957109627600,9.677627685546875,-1.0159149169921875,-0.0781707763671875,-0.0355987548828125
1751013957119570700,9.68757080078125,-1.014129638671875,-0.0799407958984375,-0.036651611328125
1751013957129514800,9.6975146484375,-1.0089263916015625,-0.0864410400390625,-0.0446624755859375
1751013957139458600,9.70745849609375,-1.0017242431640625,-0.0902862548828125,-0.0516357421875
1751013957149401600,9.717401611328125,-0.9963531494140625,-0.089324951171875,-0.0459442138671875
1751013957159346000,9.727345947265626,-0.995819091796875,-0.08892822265625,-0.0350494384765625
1751013957169289700,9.737289794921875,-0.9954986572265625,-0.089599609375,-0.0332489013671875
1751013957179233800,9.74723388671875,-0.993682861328125,-0.0878753662109375,-0.03680419921875
1751013957189176800,9.7571767578125,-0.991729736328125,-0.085784912109375,-0.0406646728515625
1751013957199120600,9.76712060546875,-0.99652099609375,-0.0841064453125,-0.0419464111328125
1751013957209064700,9.777064697265626,-1.0050506591796875,-0.0812225341796875,-0.0398712158203125
1751013957219007700,9.7870078125,-1.0086517333984375,-0.0788726806640625,-0.045074462890625
1751013957228951800,9.796951904296876,-1.0115814208984375,-0.078277587890625,-0.0449981689453125
1751013957238895600,9.8068955078125,-1.0159149169921875,-0.077239990234375,-0.04656982421875
1751013957248838700,9.816838623046875,-1.0121002197265625,-0.074066162109375,-0.0464324951171875
1751013957258783000,9.826782958984374,-1.011749267578125,-0.0725250244140625,-0.0428924560546875
1751013957268726800,9.836726806640625,-1.0138092041015625,-0.0742645263671875,-0.0435028076171875
1751013957278669800,9.846669921875,-1.011016845703125,-0.078125,-0.0430145263671875
1751013957288614000,9.85661376953125,-1.00946044921875,-0.0798492431640625,-0.0423583984375
1751013957298557700,9.8665576171875,-1.0119476318359375,-0.080810546875,-0.0411376953125
1751013957308500700,9.876500732421874,-1.0097808837890625,-0.0841064453125,-0.0430450439453125
1751013957318444800,9.88644482421875,-1.004180908203125,-0.0840606689453125,-0.041290283203125
1751013957328388600,9.896388671875,-1.00213623046875,-0.0823516845703125,-0.0408935546875
1751013957338331600,9.90633154296875,-1.0054473876953125,-0.077972412109375,-0.0400848388671875
1751013957348275700,9.916275634765626,-1.001068115234375,-0.0723114013671875,-0.0339508056640625
1751013957358219800,9.9262197265625,-0.994964599609375,-0.0697174072265625,-0.0312957763671875
1751013957368163800,9.936163818359375,-0.9956817626953125,-0.070953369140625,-0.0365142822265625
1751013957378107000,9.94610693359375,-1.0009765625,-0.0716094970703125,-0.0402679443359375
1751013957388050700,9.95605078125,-1.0065155029296875,-0.075042724609375,-0.0391998291015625
1751013957397994800,9.965994873046874,-1.0077056884765625,-0.07928466796875,-0.039215087890625
1751013957407937800,9.975937744140625,-1.0082855224609375,-0.0806427001953125,-0.04058837890625
1751013957417881600,9.985881591796876,-1.009185791015625,-0.0816497802734375,-0.041259765625
1751013957427825700,9.99582568359375,-1.01507568359375,-0.080413818359375,-0.0413970947265625
1751013957437768700,10.005768798828125,-1.01763916015625,-0.077117919921875,-0.0381622314453125
1751013957447712800,10.015712646484374,-1.0174713134765625,-0.073394775390625,-0.0345001220703125
1751013957457656800,10.02565673828125,-1.017822265625,-0.072509765625,-0.03570556640625
1751013957467600000,10.035599853515626,-1.0200042724609375,-0.07293701171875,-0.0359649658203125
1751013957477544000,10.0455439453125,-1.016845703125,-0.07476806640625,-0.037322998046875
1751013957487487700,10.05548779296875,-1.0184326171875,-0.0752105712890625,-0.0404815673828125
1751013957497430800,10.0654306640625,-1.02044677734375,-0.0754852294921875,-0.046295166015625
1751013957507374800,10.075374755859375,-1.0142974853515625,-0.07489013671875,-0.0463714599609375
1751013957517318700,10.085318603515624,-1.0133209228515625,-0.0764007568359375,-0.044952392578125
1751013957527261700,10.09526171875,-1.016387939453125,-0.074951171875,-0.044158935546875
1751013957537205800,10.105205810546876,-1.0204925537109375,-0.072418212890625,-0.0383758544921875
1751013957547149600,10.115149658203125,-1.0156707763671875,-0.0739593505859375,-0.0401153564453125
1751013957557094000,10.125093994140625,-1.0131683349609375,-0.0744476318359375,-0.0437774658203125
1751013957567037000,10.135036865234374,-1.012664794921875,-0.07537841796875,-0.0359649658203125
1751013957576980700,10.144980712890625,-1.010986328125,-0.071044921875,-0.0269775390625
1751013957586924800,10.1549248046875,-1.0130615234375,-0.0718994140625,-0.0389556884765625
1751013957596867800,10.164867919921875,-1.012420654296875,-0.0768890380859375,-0.039337158203125
1751013957606811600,10.174811767578126,-1.00775146484375,-0.0812835693359375,-0.0415802001953125
1751013957616755700,10.184755615234375,-1.0021209716796875,-0.083648681640625,-0.0443115234375
1751013957626698800,10.19469873046875,-1.0047454833984375,-0.0867156982421875,-0.0431060791015625
1751013957636642800,10.204642822265624,-1.00726318359375,-0.0866241455078125,-0.03399658203125
1751013957646586600,10.214586669921875,-1.01690673828125,-0.0885467529296875,-0.030914306640625
1751013957656529700,10.22452978515625,-1.0228118896484375,-0.0912322998046875,-0.0406494140625
1751013957666474000,10.234473876953125,-1.0246429443359375,-0.0955352783203125,-0.0467071533203125
1751013957676417800,10.244417724609375,-1.0274810791015625,-0.096893310546875,-0.0507659912109375
1751013957686360800,10.25436083984375,-1.0256195068359375,-0.0942840576171875,-0.060638427734375
1751013957696305000,10.264304931640625,-1.0161895751953125,-0.0923004150390625,-0.06842041015625
1751013957706248700,10.274248779296874,-1.0107879638671875,-0.0899810791015625,-0.0694122314453125
1751013957716192800,10.28419287109375,-1.0083160400390625,-0.084014892578125,-0.064727783203125
1751013957726135800,10.2941357421875,-1.004974365234375,-0.0799713134765625,-0.0616912841796875
1751013957736079600,10.30407958984375,-1.0041656494140625,-0.07843017578125,-0.0576324462890625
1751013957746023700,10.314023681640625,-1.006195068359375,-0.0792388916015625,-0.0492706298828125
1751013957755966700,10.323966796875,-1.0029754638671875,-0.081268310546875,-0.0452880859375
1751013957765910800,10.333910888671875,-0.99932861328125,-0.0859832763671875,-0.0452728271484375
1751013957775854800,10.343854736328124,-1.000579833984375,-0.0894317626953125,-0.0459136962890625
1751013957785798000,10.3537978515625,-1.00469970703125,-0.091278076171875,-0.045379638671875
1751013957795741700,10.36374169921875,-1.005950927734375,-0.0976409912109375,-0.045196533203125
1751013957805685800,10.373685791015625,-1.0065155029296875,-0.10479736328125,-0.0437164306640625
1751013957815628800,10.38362890625,-1.00518798828125,-0.1086273193359375,-0.0416107177734375
1751013957825572600,10.393572509765624,-1.0063018798828125,-0.104156494140625,-0.0411529541015625
1751013957835516700,10.4035166015625,-1.01025390625,-0.097747802734375,-0.043182373046875
1751013957845460000,10.4134599609375,-1.007110595703125,-0.0894927978515625,-0.04266357421875
1751013957855403800,10.42340380859375,-1.00604248046875,-0.078277587890625,-0.042449951171875
1751013957865347800,10.433347900390626,-1.0081787109375,-0.07049560546875,-0.0427703857421875
1751013957875292200,10.443292236328125,-1.0117645263671875,-0.0673980712890625,-0.047393798828125
1751013957885235000,10.45323486328125,-1.0166473388671875,-0.06634521484375,-0.0512847900390625
1751013957895179000,10.463178955078124,-1.023284912109375,-0.0672607421875,-0.0515289306640625
1751013957905123000,10.473123046875,-1.02496337890625,-0.0708770751953125,-0.052825927734375
1751013957915066000,10.483066162109376,-1.0245361328125,-0.07757568359375,-0.0562286376953125
1751013957925010000,10.493010009765625,-1.0249786376953125,-0.078704833984375,-0.05419921875
1751013957934954000,10.5029541015625,-1.022857666015625,-0.0792999267578125,-0.0507659912109375
1751013957944897000,10.51289697265625,-1.0179595947265625,-0.08135986328125,-0.048828125
1751013957954840800,10.5228408203125,-1.016693115234375,-0.0843658447265625,-0.0459747314453125
1751013957964785000,10.532784912109374,-1.015655517578125,-0.086090087890625,-0.04119873046875
1751013957974728000,10.54272802734375,-1.0142669677734375,-0.0871124267578125,-0.04010009765625
1751013957984672000,10.552672119140626,-1.0146331787109375,-0.0872802734375,-0.0422210693359375
1751013957994616000,10.562615966796875,-1.0109405517578125,-0.087493896484375,-0.042999267578125
1751013958004559000,10.57255908203125,-1.008331298828125,-0.08380126953125,-0.040496826171875
1751013958014503000,10.5825029296875,-1.0050201416015625,-0.080718994140625,-0.0421295166015625
1751013958024447000,10.592447021484375,-1.00384521484375,-0.0777130126953125,-0.0464324951171875
1751013958034391000,10.60239111328125,-1.0048828125,-0.075897216796875,-0.0468292236328125
1751013958044333800,10.612333740234375,-1.00311279296875,-0.0769500732421875,-0.0471038818359375
1751013958054278000,10.62227783203125,-1.0019683837890625,-0.0801239013671875,-0.04815673828125
1751013958064222000,10.632221923828125,-1.0064544677734375,-0.083221435546875,-0.044891357421875
1751013958074165000,10.6421650390625,-1.0126953125,-0.08660888671875,-0.04473876953125
1751013958084109000,10.652109130859374,-1.0116729736328125,-0.0930938720703125,-0.045562744140625
1751013958094053000,10.66205322265625,-1.0080108642578125,-0.0985260009765625,-0.0416412353515625
1751013958103996200,10.67199609375,-1.0055999755859375,-0.0956573486328125,-0.03851318359375
1751013958113940000,10.68193994140625,-1.0088043212890625,-0.089324951171875,-0.0386810302734375
1751013958123884000,10.691884033203126,-1.0096435546875,-0.087188720703125,-0.0423431396484375
1751013958133827000,10.7018271484375,-1.010528564453125,-0.08648681640625,-0.0422821044921875
1751013958143771000,10.71177099609375,-1.0152587890625,-0.0850830078125,-0.0459442138671875
1751013958153715000,10.72171484375,-1.0165252685546875,-0.0807037353515625,-0.0493621826171875
1751013958163658800,10.73165869140625,-1.0141754150390625,-0.0773468017578125,-0.0501708984375
1751013958173601800,10.741601806640626,-1.0081024169921875,-0.0797119140625,-0.0523834228515625
1751013958183546000,10.751546142578125,-1.0045623779296875,-0.080963134765625,-0.0457916259765625
1751013958193490000,10.761489990234375,-1.0043182373046875,-0.0802459716796875,-0.041534423828125
1751013958203433000,10.771432861328124,-1.0042266845703125,-0.084136962890625,-0.043548583984375
1751013958213377000,10.781376953125,-0.9980010986328125,-0.089813232421875,-0.0436248779296875
1751013958223321000,10.791321044921874,-0.9942779541015625,-0.0948638916015625,-0.041351318359375
1751013958233263900,10.801263916015625,-0.98968505859375,-0.100921630859375,-0.0400848388671875
1751013958243208000,10.8112080078125,-0.98681640625,-0.1063995361328125,-0.0360107421875
1751013958253152000,10.821152099609375,-0.988189697265625,-0.110595703125,-0.0326385498046875
1751013958263094800,10.8310947265625,-0.9896392822265625,-0.1125946044921875,-0.03436279296875
1751013958273038800,10.841038818359374,-0.89630126953125,-0.110198974609375,-0.0296783447265625
1751013958282983200,10.850983154296875,-0.9101104736328125,-0.099639892578125,-0.0174713134765625
1751013958292926000,10.860926025390626,-1.1175079345703125,-0.09027099609375,-0.027099609375
1751013958302870000,10.8708701171875,-1.037628173828125,-0.06341552734375,-0.05364990234375
1751013958312814000,10.88081396484375,-0.998779296875,-0.08074951171875,-0.0837860107421875
1751013958322758000,10.8907578125,-1.0521087646484375,-0.099273681640625,-0.0716552734375
1751013958332701000,10.900700927734375,-1.06524658203125,-0.089202880859375,-0.0649871826171875
1751013958342645000,10.91064501953125,-1.04052734375,-0.07879638671875,-0.07568359375
1751013958352588800,10.9205888671875,-1.0137786865234375,-0.078338623046875,-0.0813140869140625
