time,seconds_elapsed,z,y,x
1751015756690042400,0.12104248046875,-0.050690341740846634,-0.07957791537046432,-0.03873780742287636
1751015756699984100,0.130984130859375,-0.05001682788133621,-0.05483608320355415,-0.020490361377596855
1751015756709927200,0.14092724609375,-0.033838655799627304,-0.002915895078331232,0.0011582087026908994
1751015756719870200,0.1508701171875,-0.0034788872580975294,0.05289943516254425,-0.0010732539230957627
1751015756729813000,0.16081298828125,0.03726055100560188,0.10427474230527878,-0.04133252426981926
1751015756739756000,0.170756103515625,0.0717516839504242,0.12833960354328156,-0.12703756988048553
1751015756749699000,0.180698974609375,0.06955830752849579,0.08436734229326248,-0.2683321237564087
1751015756759642000,0.19064208984375,-0.000672448193654418,-0.007253385614603758,-0.4414226710796356
1751015756769585200,0.200585205078125,-0.13046613335609436,-0.003165166825056076,-0.6409879922866821
1751015756779528200,0.210528076171875,-0.2612246870994568,0.15659654140472412,-0.8812019228935242
1751015756789470200,0.22047021484375,-0.29981520771980286,0.5703479051589966,-1.1227879524230957
1751015756799413200,0.230413330078125,-0.132230743765831,1.1792378425598145,-1.3253527879714966
1751015756809356300,0.240356201171875,0.2780337631702423,1.7331455945968628,-1.4178736209869385
1751015756819299300,0.25029931640625,0.7893564105033875,2.0157690048217773,-1.2886728048324585
1751015756829242000,0.2602421875,1.1699268817901611,2.013582706451416,-0.8642714023590088
1751015756839185200,0.27018505859375,1.2964155673980713,1.8461620807647705,-0.2188042551279068
1751015756849128200,0.280128173828125,1.1871050596237183,1.6669063568115234,0.46217110753059387
1751015756859071200,0.2900712890625,0.9272612929344177,1.521988034248352,0.9790134429931641
1751015756869014300,0.30001416015625,0.6456570625305176,1.2951128482818604,1.2827322483062744
1751015756878956000,0.3099560546875,0.48496535420417786,1.0317208766937256,1.421713948249817
1751015756888899000,0.319899169921875,0.3181372284889221,0.7867118716239929,1.4992427825927734
1751015756898842000,0.329842041015625,0.1289185732603073,0.5186578035354614,1.5792933702468872
1751015756908785200,0.33978515625,-0.07374212890863419,0.3913065195083618,1.6263821125030518
1751015756918728200,0.349728271484375,-0.25281015038490295,0.3938109576702118,1.5991203784942627
1751015756928671200,0.359671142578125,-0.2991909682750702,0.3354925215244293,1.5537792444229126
1751015756938614000,0.369614013671875,-0.20304259657859802,0.25396090745925903,1.489925742149353
1751015756948557000,0.37955712890625,-0.05295908823609352,0.2753242552280426,1.3495659828186035
1751015756958499000,0.3894990234375,0.07799600064754486,0.3096635937690735,1.1313408613204956
1751015756968442000,0.399442138671875,0.17972210049629211,0.3300516903400421,0.8255879282951355
1751015756978385200,0.40938525390625,0.20694679021835327,0.23174987733364105,0.47210443019866943
1751015756988328200,0.419328125,0.10657038539648056,-0.07249284535646439,0.12110831588506699
1751015756998271200,0.429271240234375,-0.051603008061647415,-0.5360397100448608,-0.1349351853132248
1751015757008214300,0.43921435546875,-0.16558630764484406,-0.8382810950279236,-0.258554071187973
1751015757018157300,0.4491572265625,-0.2586826980113983,-0.8588777184486389,-0.22645790874958038
1751015757028100400,0.459100341796875,-0.2632284462451935,-0.6656329035758972,0.022950589656829834
1751015757038042000,0.4690419921875,-0.18589450418949127,-0.345533162355423,0.4040369689464569
1751015757047985200,0.478985107421875,-0.11854102462530136,-0.09203404933214188,0.751133918762207
1751015757057928200,0.48892822265625,-0.08111882209777832,0.11656709015369415,0.9574341177940369
1751015757067871000,0.49887109375,-0.03015710413455963,0.2854064404964447,0.9833970069885254
1751015757077814000,0.50881396484375,0.01570332981646061,0.4046199321746826,0.8665827512741089
1751015757087757000,0.518757080078125,0.05963190644979477,0.48536962270736694,0.6369636654853821
1751015757097700000,0.5287001953125,0.08791361004114151,0.46110954880714417,0.3548971116542816
1751015757107643100,0.53864306640625,0.07851585000753403,0.34809619188308716,0.10983461886644363
1751015757117586200,0.548586181640625,0.051833368837833405,0.19389329850673676,-0.022787604480981827
1751015757127528200,0.558528076171875,0.03997351601719856,0.10741540789604187,-0.026254506781697273
1751015757137471200,0.56847119140625,0.03597025200724602,0.09215495735406876,0.06481308490037918
1751015757147414300,0.578414306640625,0.013738715089857578,0.04796672612428665,0.17454516887664795
1751015757157357300,0.588357421875,-0.020746557042002678,-0.06496914476156235,0.2752470076084137
1751015757167300400,0.59830029296875,-0.04448091611266136,-0.17674627900123596,0.37417012453079224
1751015757177243100,0.6082431640625,-0.06587328761816025,-0.21978536248207092,0.4474251866340637
1751015757187186200,0.618186279296875,-0.10336127877235413,-0.2613346576690674,0.4735904633998871
1751015757197129200,0.628129150390625,-0.12385030835866928,-0.27297160029411316,0.4642654061317444
1751015757207071000,0.638071044921875,-0.11084848642349243,-0.20818063616752625,0.3991425931453705
1751015757217014000,0.648013916015625,-0.07417542487382889,-0.10062248259782791,0.28276726603507996
1751015757226957000,0.65795703125,-0.012835904024541378,0.006482400465756655,0.1295342892408371
1751015757236900000,0.667900146484375,0.06452067196369171,0.1109669953584671,0.0020000338554382324
1751015757246843100,0.677843017578125,0.15587268769741058,0.26192083954811096,-0.09230196475982666
1751015757256786200,0.6877861328125,0.23390837013721466,0.27378973364830017,-0.15583594143390656
1751015757266729200,0.697729248046875,0.25753965973854065,0.17228175699710846,-0.21189627051353455
1751015757276672000,0.707672119140625,0.23264016211032867,0.05980234593153,-0.24915549159049988
1751015757286615000,0.717614990234375,0.19645127654075623,-0.035111647099256516,-0.24548779428005219
1751015757296557300,0.727557373046875,0.15797339379787445,-0.045994922518730164,-0.20261116325855255
1751015757306500000,0.7375,0.12797127664089203,-0.03013606369495392,-0.11803236603736877
1751015757316443100,0.747443115234375,0.10217484086751938,-0.036555878818035126,-0.007203850895166397
1751015757326386200,0.75738623046875,0.07331789284944534,-0.051474109292030334,0.12268543988466263
1751015757336329200,0.7673291015625,0.05245708301663399,-0.06634413450956345,0.21988682448863983
1751015757346272300,0.777272216796875,0.06598913669586182,-0.10807374119758606,0.27751123905181885
1751015757356215300,0.78721533203125,0.10363664478063583,-0.11761025339365005,0.2944619953632355
1751015757366158300,0.797158447265625,0.14760783314704895,-0.04751398786902428,0.254561185836792
1751015757376101400,0.807101318359375,0.2095644176006317,0.013466540724039078,0.18378661572933197
1751015757386043100,0.817043212890625,0.2624097764492035,0.05054706335067749,0.09193471819162369
1751015757395986200,0.826986083984375,0.284298837184906,0.07243771106004715,0.015750467777252197
1751015757405929200,0.83692919921875,0.27107542753219604,0.06829996407032013,-0.025981532409787178
1751015757415872000,0.8468720703125,0.23523782193660736,0.06578753888607025,-0.027888355776667595
1751015757425815000,0.85681494140625,0.20043615996837616,0.06379229575395584,-0.01082548312842846
1751015757435758000,0.866758056640625,0.1803567260503769,0.05715862661600113,0.0016796556301414967
1751015757445701000,0.876701171875,0.1641537845134735,0.034920964390039444,-0.0136023610830307
1751015757455644200,0.88664404296875,0.1367408037185669,-0.001133174984715879,-0.047979243099689484
1751015757465587200,0.896587158203125,0.09578351676464081,-0.045106757432222366,-0.07857630401849747
1751015757475529200,0.906529296875,0.040396157652139664,-0.09428362548351288,-0.09156160801649094
1751015757485472300,0.91647216796875,-0.0075513930059969425,-0.12967543303966522,-0.10073167085647583
1751015757495415300,0.926415283203125,-0.030460704118013382,-0.150669664144516,-0.09766903519630432
1751015757505358300,0.9363583984375,-0.03268470987677574,-0.14857855439186096,-0.0911480188369751
1751015757515301000,0.946301025390625,-0.03151584789156914,-0.1240665540099144,-0.09939396381378174
1751015757525244200,0.956244140625,-0.032171785831451416,-0.12740641832351685,-0.13361318409442902
1751015757535187200,0.966187255859375,-0.03506451100111008,-0.1502819061279297,-0.19558094441890717
1751015757545130200,0.976130126953125,-0.03591672331094742,-0.17363198101520538,-0.2700463831424713
1751015757555072000,0.986072021484375,-0.030797060579061508,-0.18952199816703796,-0.3293970823287964
1751015757565015000,0.99601513671875,-0.02520974911749363,-0.17951783537864685,-0.37433019280433655
1751015757574958000,1.0059580078125,-0.027516845613718033,-0.14886271953582764,-0.38938450813293457
1751015757584901000,1.015901123046875,-0.042270757257938385,-0.11831918358802795,-0.3974277973175049
1751015757594844200,1.02584423828125,-0.06102713569998741,-0.08519106358289719,-0.40565723180770874
1751015757604787200,1.035787109375,-0.07468968629837036,-0.060265205800533295,-0.4304043650627136
1751015757614730200,1.045730224609375,-0.06594226509332657,-0.08517295122146606,-0.43737706542015076
1751015757624673000,1.055673095703125,-0.04162414371967316,-0.1251762956380844,-0.4000028073787689
1751015757634616000,1.065615966796875,-0.0008231831016018987,-0.10493014752864838,-0.28569433093070984
1751015757644557600,1.0755576171875,0.09806185215711594,0.07032209634780884,-0.09494968503713608
1751015757654500600,1.08550048828125,0.22606030106544495,0.30566778779029846,0.10868120938539505
1751015757664443400,1.095443359375,0.31070780754089355,0.41637536883354187,0.1948309987783432
1751015757674386400,1.105386474609375,0.3234028220176697,0.2832911014556885,0.11315131932497025
1751015757684329500,1.11532958984375,0.26482340693473816,-0.04513285681605339,-0.10121449828147888
1751015757694272500,1.1252724609375,0.16321848332881927,-0.460220068693161,-0.38995814323425293
1751015757704215600,1.135215576171875,0.0029952572658658028,-0.8751019239425659,-0.6747429966926575
1751015757714158600,1.14515869140625,-0.20295684039592743,-1.0969970226287842,-0.8986421823501587
1751015757724101600,1.1551015625,-0.3560960590839386,-1.1238824129104614,-1.0170992612838745
1751015757734043600,1.165043701171875,-0.4443143308162689,-1.0522692203521729,-1.0270915031433105
1751015757743986700,1.174986572265625,-0.4949468970298767,-0.9319239258766174,-0.9567943811416626
1751015757753929700,1.1849296875,-0.5090342164039612,-0.829138457775116,-0.8374916911125183
1751015757763872500,1.19487255859375,-0.48485085368156433,-0.7677217125892639,-0.695026695728302
1751015757773815600,1.204815673828125,-0.4354816973209381,-0.7328475713729858,-0.5501251816749573
1751015757783758600,1.214758544921875,-0.3795925974845886,-0.6864396333694458,-0.4286578893661499
1751015757793701400,1.224701416015625,-0.28544241189956665,-0.6411603093147278,-0.35438284277915955
1751015757803644400,1.23464453125,-0.1682973951101303,-0.5886163711547852,-0.3403184413909912
1751015757813587500,1.24458740234375,-0.05060964822769165,-0.5705585479736328,-0.3735027611255646
1751015757823529500,1.254529541015625,0.08064344525337219,-0.5732209086418152,-0.41539108753204346
1751015757833472500,1.264472412109375,0.20610229671001434,-0.5615200400352478,-0.43007200956344604
1751015757843415600,1.27441552734375,0.3016969859600067,-0.5105785727500916,-0.4037506580352783
1751015757853358600,1.284358642578125,0.38396763801574707,-0.44729095697402954,-0.34262365102767944
1751015757863301600,1.294301513671875,0.47443974018096924,-0.4065917134284973,-0.22978553175926208
1751015757873244400,1.304244384765625,0.576896607875824,-0.35363316535949707,-0.08116170018911362
1751015757883187500,1.3141875,0.6929460167884827,-0.29483696818351746,0.09347695112228394
1751015757893130500,1.324130615234375,0.8165512681007385,-0.2614201605319977,0.2736318111419678
1751015757903073500,1.334073486328125,0.9307305812835693,-0.20845653116703033,0.44408395886421204
1751015757913015600,1.344015625,1.0391244888305664,-0.13409176468849182,0.5887055993080139
1751015757922958600,1.35395849609375,1.1147280931472778,-0.03502988815307617,0.6618304252624512
1751015757932901600,1.363901611328125,1.1571074724197388,0.023805197328329086,0.6241541504859924
1751015757942844700,1.3738447265625,1.1820554733276367,-0.044195424765348434,0.5559558868408203
1751015757952787700,1.38378759765625,1.1678751707077026,-0.12176425009965897,0.5262078642845154
1751015757962730500,1.39373046875,1.102670431137085,-0.08353803306818008,0.5115509033203125
1751015757972673500,1.403673583984375,1.0018638372421265,0.010231331922113895,0.4986976683139801
1751015757982616300,1.4136162109375,0.8811742067337036,0.10183075815439224,0.4544910788536072
1751015757992559400,1.423559326171875,0.7387310266494751,0.18885166943073273,0.3280748128890991
1751015758002501400,1.43350146484375,0.6005318760871887,0.29902398586273193,0.1159825325012207
1751015758012444400,1.4434443359375,0.5078592300415039,0.3535737693309784,-0.14216512441635132
1751015758022387500,1.453387451171875,0.4855334162712097,0.40186595916748047,-0.41262778639793396
1751015758032330500,1.46333056640625,0.5042732954025269,0.44092679023742676,-0.6630003452301025
1751015758042273500,1.4732734375,0.5362216234207153,0.46259453892707825,-0.8755565285682678
1751015758052216600,1.483216552734375,0.570684552192688,0.4620318114757538,-1.034680962562561
1751015758062159600,1.49315966796875,0.5968791246414185,0.45685169100761414,-1.124865174293518
1751015758072102700,1.5031025390625,0.6261403560638428,0.4635721743106842,-1.1196504831314087
1751015758082045400,1.51304541015625,0.638844907283783,0.5115357041358948,-1.0346447229385376
1751015758091988500,1.522988525390625,0.6627526879310608,0.5994035005569458,-0.914840579032898
1751015758101930500,1.532930419921875,0.6998968124389648,0.6622061729431152,-0.803220808506012
1751015758111873500,1.54287353515625,0.7471935153007507,0.7129439115524292,-0.7283924221992493
1751015758121816600,1.552816650390625,0.8125711679458618,0.8199518918991089,-0.7113915681838989
1751015758131759600,1.562759521484375,0.8778740167617798,0.9715285897254944,-0.7594770789146423
1751015758141702400,1.572702392578125,0.9151111245155334,1.0511778593063354,-0.8708826899528503
1751015758151645400,1.5826455078125,0.9155465960502625,0.9889882802963257,-0.9979397058486938
1751015758161588500,1.59258837890625,0.8840440511703491,0.8375399112701416,-1.053140640258789
1751015758171531500,1.602531494140625,0.7643005847930908,0.6439760327339172,-1.0003325939178467
1751015758181474600,1.612474609375,0.5152332782745361,0.35064777731895447,-0.8766103386878967
1751015758191417300,1.622417236328125,0.15215517580509186,-0.033785659819841385,-0.7327706217765808
1751015758201359600,1.632359619140625,-0.20889276266098022,-0.44275400042533875,-0.5927615761756897
1751015758211302400,1.642302490234375,-0.5008417963981628,-0.7396786212921143,-0.4556375741958618
1751015758221245400,1.652245361328125,-0.6833330392837524,-0.8641262650489807,-0.3319217562675476
1751015758231188500,1.6621884765625,-0.7869486212730408,-0.9207679629325867,-0.2479882389307022
1751015758241131500,1.672131591796875,-0.8285182118415833,-0.9170219898223877,-0.21509259939193726
1751015758251074600,1.682074462890625,-0.8326860666275024,-0.8784095644950867,-0.22433829307556152
1751015758261017600,1.692017578125,-0.814260721206665,-0.8006263971328735,-0.26853957772254944
1751015758270960600,1.701960693359375,-0.7772691249847412,-0.6933917999267578,-0.3382970988750458
1751015758280903700,1.711903564453125,-0.7156789898872375,-0.530267059803009,-0.41087621450424194
1751015758290845700,1.721845703125,-0.6370246410369873,-0.3252023160457611,-0.47398993372917175
1751015758300788700,1.731788818359375,-0.5367470383644104,-0.11937246471643448,-0.5345081686973572
1751015758310731500,1.7417314453125,-0.40786924958229065,0.03869706019759178,-0.5669249296188354
1751015758320674300,1.75167431640625,-0.283253014087677,0.1665961742401123,-0.5447890162467957
1751015758330617300,1.761617431640625,-0.17047639191150665,0.274926096200943,-0.44765421748161316
1751015758340560400,1.771560302734375,-0.09172619134187698,0.3741890490055084,-0.28265461325645447
1751015758350503400,1.78150341796875,-0.04201802238821983,0.46173059940338135,-0.09582000225782394
1751015758360446500,1.791446533203125,-0.0460393987596035,0.507326602935791,0.09902112185955048
1751015758370389500,1.801389404296875,-0.08347571641206741,0.49499163031578064,0.25712502002716064
1751015758380332500,1.81133251953125,-0.14696228504180908,0.45427030324935913,0.36859479546546936
1751015758390274600,1.821274658203125,-0.23246893286705017,0.412958025932312,0.4315977394580841
1751015758400217600,1.831217529296875,-0.3364507257938385,0.35833126306533813,0.4327375888824463
1751015758410160600,1.84116064453125,-0.44749176502227783,0.28262344002723694,0.38960927724838257
1751015758420103400,1.851103515625,-0.5868690609931946,0.1733962893486023,0.3053433895111084
1751015758430046500,1.86104638671875,-0.8101099133491516,0.04863571375608444,0.16803321242332458
1751015758439989500,1.870989501953125,-1.2095249891281128,-0.08163227885961533,-0.01458826381713152
1751015758449932500,1.8809326171875,-1.8233345746994019,-0.23025983572006226,-0.19756793975830078
1751015758459875600,1.89087548828125,-2.4840216636657715,-0.2736235558986664,-0.17693962156772614
1751015758469818600,1.900818603515625,-2.9717981815338135,-0.1619095355272293,0.060267869383096695
1751015758479761700,1.91076171875,-3.210777997970581,0.03423120826482773,0.41699936985969543
1751015758489703400,1.920703369140625,-3.1580376625061035,0.1913454532623291,0.7724429368972778
1751015758499646500,1.930646484375,-2.840087652206421,0.22684219479560852,1.0262054204940796
1751015758509589500,1.940589599609375,-2.3050448894500732,0.14398193359375,1.141978144645691
1751015758519532500,1.950532470703125,-1.6923261880874634,-0.011945076286792755,1.1138626337051392
1751015758529475300,1.960475341796875,-1.0891183614730835,-0.12079166620969772,1.014944314956665
1751015758539418400,1.97041845703125,-0.533864438533783,-0.11428450047969818,0.9054710268974304
1751015758549361400,1.980361328125,-0.0548161119222641,-0.04308249056339264,0.8114545345306396
1751015758559304400,1.990304443359375,0.3071402311325073,0.02623559907078743,0.72654789686203
1751015758569247500,2.00024755859375,0.5058762431144714,0.13611017167568207,0.619697093963623
1751015758579190500,2.0101904296875,0.5553449988365173,0.24984684586524963,0.4564961791038513
1751015758589133600,2.020133544921875,0.5082499384880066,0.3203313946723938,0.23969754576683044
1751015758599075600,2.03007568359375,0.38852325081825256,0.37355655431747437,0.01956464722752571
1751015758609018600,2.0400185546875,0.2113037258386612,0.43544307351112366,-0.16359105706214905
1751015758618961700,2.049961669921875,-0.005062136333435774,0.4863209128379822,-0.2810487151145935
1751015758628904700,2.05990478515625,-0.22122453153133392,0.46837520599365234,-0.3302442133426666
1751015758638847500,2.069847412109375,-0.40349632501602173,0.3822008967399597,-0.28766345977783203
1751015758648786700,2.07978662109375,-0.5199438333511353,0.2928129732608795,-0.1566804200410843
1751015758658729700,2.089729736328125,-0.5493422150611877,0.20966854691505432,0.0285890344530344
1751015758668672800,2.0996728515625,-0.4913838505744934,0.09393634647130966,0.22596842050552368
1751015758678615800,2.10961572265625,-0.38480520248413086,-0.027040138840675354,0.40079402923583984
1751015758688558800,2.119558837890625,-0.24609072506427765,-0.11686722934246063,0.5384975671768188
1751015758698500900,2.1295009765625,-0.062018897384405136,-0.21925432980060577,0.657057523727417
1751015758708444000,2.13944384765625,0.18573737144470215,-0.26137301325798035,0.7842516899108887
1751015758718387000,2.149386962890625,0.4158451557159424,-0.27037689089775085,0.8871338367462158
1751015758728330000,2.159330078125,0.5215505361557007,-0.2708176374435425,0.8746164441108704
1751015758738273000,2.16927294921875,0.46793657541275024,-0.2519419491291046,0.7614603042602539
1751015758748215800,2.1792158203125,0.27603211998939514,-0.1708119511604309,0.561578631401062
1751015758758158800,2.189158935546875,0.04944984242320061,-0.06510496884584427,0.3585589528083801
1751015758768102000,2.199101806640625,-0.1158115565776825,0.025676600635051727,0.1824140101671219
1751015758778045000,2.209044921875,-0.16384592652320862,0.09061751514673233,0.06210331991314888
1751015758787988000,2.218988037109375,-0.08682118356227875,0.14190946519374847,-0.022762037813663483
1751015758797931000,2.228930908203125,0.10764443874359131,0.1623699963092804,-0.07972465455532074
1751015758807873000,2.238873046875,0.36698946356773376,0.16053162515163422,-0.09380532056093216
1751015758817816000,2.248816162109375,0.6060941815376282,0.17663389444351196,-0.06540004163980484
1751015758827758800,2.2587587890625,0.78003990650177,0.2255851924419403,-0.02406245842576027
1751015758837702000,2.268701904296875,0.8870171904563904,0.30822280049324036,-0.01528894156217575
1751015758847645000,2.27864501953125,0.925142228603363,0.3807031214237213,-0.08086555451154709
1751015758857587700,2.288587646484375,0.921413004398346,0.44480249285697937,-0.21958082914352417
1751015758867530800,2.29853076171875,0.8953728675842285,0.5252693891525269,-0.4121587872505188
1751015758877473800,2.308473876953125,0.8639448881149292,0.5942838788032532,-0.6060094833374023
1751015758887416800,2.318416748046875,0.7978412508964539,0.588164210319519,-0.7662835717201233
1751015758897360000,2.32835986328125,0.6837138533592224,0.4732509255409241,-0.8532954454421997
1751015758907303000,2.338302978515625,0.5379103422164917,0.24986602365970612,-0.8329765796661377
1751015758917245000,2.348244873046875,0.38462063670158386,-0.02918185293674469,-0.7039717435836792
1751015758927188000,2.35818798828125,0.26608067750930786,-0.2865540087223053,-0.4774368703365326
1751015758937131000,2.368131103515625,0.2108384668827057,-0.49532264471054077,-0.16476763784885406
1751015758947074000,2.378073974609375,0.23162098228931427,-0.6329124569892883,0.18761810660362244
1751015758957016800,2.388016845703125,0.29585641622543335,-0.6809729337692261,0.5152060985565186
1751015758966959900,2.3979599609375,0.36324557662010193,-0.6503497958183289,0.7653797268867493
1751015758976903000,2.40790283203125,0.41336575150489807,-0.5849329829216003,0.89923495054245
1751015758986846000,2.417845947265625,0.41660335659980774,-0.49767956137657166,0.9211908578872681
1751015758996789000,2.4277890625,0.3892524242401123,-0.3759225010871887,0.8333083987236023
1751015759006732000,2.43773193359375,0.3650661110877991,-0.24088691174983978,0.6870965957641602
1751015759016675000,2.447675048828125,0.33544909954071045,-0.1129840761423111,0.5378363132476807
1751015759026616800,2.457616943359375,0.305367648601532,-0.00827763695269823,0.41260087490081787
1751015759036560000,2.467559814453125,0.27093642950057983,0.06137946993112564,0.3484322726726532
1751015759046503000,2.4775029296875,0.2299189567565918,0.08652184158563614,0.3463190495967865
1751015759056446000,2.487446044921875,0.19617483019828796,0.055501874536275864,0.4007980227470398
1751015759066388700,2.497388671875,0.17670074105262756,-0.011769041419029236,0.48963093757629395
1751015759076331800,2.507331787109375,0.1786632239818573,-0.0864211767911911,0.5879937410354614
1751015759086274800,2.51727490234375,0.20065374672412872,-0.16720230877399445,0.6580058336257935
1751015759096217900,2.5272177734375,0.22948618233203888,-0.22790133953094482,0.6947748064994812
1751015759106161000,2.537160888671875,0.26454538106918335,-0.26591503620147705,0.6803945302963257
1751015759116104000,2.54710400390625,0.29099854826927185,-0.2821022570133209,0.620451807975769
1751015759126047000,2.557046875,0.30813145637512207,-0.2628004550933838,0.518603503704071
1751015759135990000,2.566989990234375,0.30518093705177307,-0.211019828915596,0.4041951596736908
1751015759145932000,2.57693212890625,0.2965605556964874,-0.14572098851203918,0.2862762212753296
1751015759155875000,2.586875,0.2885710895061493,-0.0977310836315155,0.17123833298683167
1751015759165817900,2.59681787109375,0.28808850049972534,-0.06863871216773987,0.09727968275547028
1751015759175761000,2.606760986328125,0.3005332052707672,-0.05319957062602043,0.05757514387369156
1751015759185704000,2.616703857421875,0.31723201274871826,-0.04361938312649727,0.048947036266326904
1751015759195647000,2.62664697265625,0.34043586254119873,-0.04007631167769432,0.05216759815812111
1751015759205590000,2.636590087890625,0.3611834943294525,-0.052738577127456665,0.0564345121383667
1751015759215533000,2.646532958984375,0.3662988841533661,-0.06570151448249817,0.06367218494415283
1751015759225475800,2.656475830078125,0.35958799719810486,-0.061230868101119995,0.06732098013162613
1751015759235419000,2.6664189453125,0.3285200893878937,-0.048540905117988586,0.06163087487220764
1751015759245362000,2.67636181640625,0.29260602593421936,-0.03307193145155907,0.03558595851063728
1751015759255304000,2.686303955078125,0.25604695081710815,0.005254416726529598,-0.01950525864958763
1751015759265247000,2.6962470703125,0.2239726483821869,0.06710207462310791,-0.10839305073022842
1751015759275189800,2.706189697265625,0.2193019986152649,0.13289599120616913,-0.19494178891181946
1751015759285132800,2.7161328125,0.23684103786945343,0.20535261929035187,-0.23851723968982697
1751015759295075800,2.726075927734375,0.25738227367401123,0.26883333921432495,-0.230502188205719
1751015759305019000,2.736018798828125,0.27278760075569153,0.30580759048461914,-0.18381750583648682
1751015759314962000,2.7459619140625,0.27384114265441895,0.30578121542930603,-0.11684965342283249
1751015759324905000,2.755905029296875,0.25296273827552795,0.28057706356048584,-0.051791027188301086
1751015759334848000,2.765847900390625,0.20696143805980682,0.23980247974395752,0.00899988692253828
1751015759344791000,2.775791015625,0.15360447764396667,0.1699104756116867,0.07380258291959763
1751015759354733800,2.78573388671875,0.09619151055812836,0.05793600529432297,0.11855247616767883
1751015759364676900,2.7956767578125,0.03918148949742317,-0.0824461430311203,0.13673600554466248
1751015759374619000,2.805618896484375,-0.02743854932487011,-0.221741184592247,0.1043730080127716
1751015759384562000,2.81556201171875,-0.09879368543624878,-0.346984326839447,0.010751980356872082
1751015759394504700,2.825504638671875,-0.17501762509346008,-0.4367874562740326,-0.1574396938085556
1751015759404447700,2.83544775390625,-0.25401124358177185,-0.4779854714870453,-0.366453617811203
1751015759414390800,2.845390869140625,-0.3099815547466278,-0.4527333974838257,-0.5702208876609802
1751015759424333800,2.855333740234375,-0.3576556146144867,-0.37345215678215027,-0.7382780313491821
1751015759434276900,2.86527685546875,-0.379673570394516,-0.22778522968292236,-0.823009192943573
1751015759444220000,2.875219970703125,-0.3523463308811188,-0.039438217878341675,-0.824955403804779
1751015759454163000,2.885162841796875,-0.2787597179412842,0.1096910759806633,-0.7475940585136414
1751015759464105700,2.895105712890625,-0.19978874921798706,0.13736025989055634,-0.6283584833145142
1751015759474048800,2.905048828125,-0.15076740086078644,0.0538128986954689,-0.510472297668457
1751015759483991800,2.91499169921875,-0.1412000060081482,-0.0506778247654438,-0.3559495806694031
1751015759493934800,2.924934814453125,-0.1956470012664795,-0.22198006510734558,-0.22462405264377594
1751015759503876900,2.934876953125,-0.305145800113678,-0.41479238867759705,-0.14643390476703644
1751015759513820000,2.94481982421875,-0.4535001218318939,-0.5330034494400024,-0.14148202538490295
1751015759523763000,2.954762939453125,-0.6101139783859253,-0.5576019883155823,-0.1964784413576126
1751015759533706000,2.9647060546875,-0.7221395373344421,-0.5581958889961243,-0.30223122239112854
1751015759543649000,2.97464892578125,-0.7706048488616943,-0.5544911623001099,-0.4209133982658386
1751015759553592000,2.984592041015625,-0.7643176317214966,-0.4096311926841736,-0.4639780521392822
1751015759563534800,2.994534912109375,-0.6980360746383667,-0.2229076474905014,-0.40309178829193115
1751015759573478000,3.004477783203125,-0.5583181381225586,-0.07480020821094513,-0.26340073347091675
1751015759583421000,3.0144208984375,-0.3551274538040161,0.09531586617231369,-0.04003370180726051
1751015759593364000,3.024364013671875,-0.15228700637817383,0.24285605549812317,0.24781513214111328
1751015759603307000,3.03430712890625,-0.01906903274357319,0.2923487722873688,0.5231596231460571
1751015759613250000,3.04425,0.031214911490678787,0.2613154947757721,0.7043960094451904
1751015759623192800,3.05419287109375,0.02840607427060604,0.20158664882183075,0.7777788639068604
1751015759633134800,3.064134765625,-0.049197904765605927,0.12111364305019379,0.7319455742835999
1751015759643078000,3.074077880859375,-0.19642943143844604,0.02984844334423542,0.5918806195259094
1751015759653020700,3.084020751953125,-0.38106557726860046,-0.04746844992041588,0.36249029636383057
1751015759662963700,3.093963623046875,-0.5578976273536682,-0.08327358216047287,0.12104546278715134
1751015759672906800,3.10390673828125,-0.6867362856864929,-0.07738373428583145,-0.07712621241807938
1751015759682849500,3.113849609375,-0.7436065077781677,-0.05101072043180466,-0.21627983450889587
1751015759692792600,3.12379248046875,-0.7337530851364136,-0.014764032326638699,-0.29250723123550415
1751015759702735600,3.133735595703125,-0.665349006652832,0.03226526081562042,-0.3242183029651642
1751015759712678700,3.1436787109375,-0.5746140480041504,0.10107388347387314,-0.31893378496170044
1751015759722621700,3.15362158203125,-0.4784470200538635,0.16803321242332458,-0.29366782307624817
1751015759732564700,3.163564697265625,-0.3994957208633423,0.23111657798290253,-0.2657525837421417
1751015759742507800,3.1735078125,-0.34415337443351746,0.2712472081184387,-0.24344594776630402
1751015759752450800,3.183450927734375,-0.3238142728805542,0.27762869000434875,-0.2424350082874298
1751015759762392800,3.193392822265625,-0.33942732214927673,0.2470654398202896,-0.25716841220855713
1751015759772335900,3.2033359375,-0.36314651370048523,0.19666272401809692,-0.2747032046318054
1751015759782278700,3.213278564453125,-0.38684916496276855,0.1461564153432846,-0.2866820991039276
1751015759792221400,3.223221435546875,-0.40476638078689575,0.10072661191225052,-0.29963117837905884
1751015759802164500,3.23316455078125,-0.41923269629478455,0.058643605560064316,-0.31685250997543335
1751015759812107500,3.243107421875,-0.4106525182723999,0.037876274436712265,-0.32132530212402344
1751015759822050600,3.253050537109375,-0.371386855840683,0.04814489185810089,-0.31049874424934387
1751015759831993600,3.26299365234375,-0.30806756019592285,0.05861271172761917,-0.28651031851768494
1751015759841936600,3.2729365234375,-0.24154524505138397,0.056894708424806595,-0.2589271664619446
1751015759851879700,3.282879638671875,-0.18715257942676544,0.037703704088926315,-0.2321578711271286
1751015759861822700,3.29282275390625,-0.15824423730373383,-0.006740726996213198,-0.19628295302391052
1751015759871765500,3.302765625,-0.15557149052619934,-0.06083778291940689,-0.12414325028657913
1751015759881708500,3.31270849609375,-0.1633063703775406,-0.08656418323516846,-0.017185378819704056
1751015759891651600,3.322651611328125,-0.16282087564468384,-0.0896739587187767,0.11872585117816925
1751015759901593600,3.332593505859375,-0.14706428349018097,-0.10524013638496399,0.23190966248512268
1751015759911536600,3.34253662109375,-0.12612996995449066,-0.1277422457933426,0.29762449860572815
1751015759921479700,3.352479736328125,-0.11106819659471512,-0.12048806250095367,0.3320698142051697
1751015759931422700,3.362422607421875,-0.08792532980442047,-0.08196011185646057,0.3471457064151764
1751015759941365800,3.37236572265625,-0.05974482372403145,-0.029408754780888557,0.3713349401950836
1751015759951308800,3.382308837890625,-0.0008282430935651064,0.07186220586299896,0.4105771481990814
1751015759961251800,3.392251953125,0.12645860016345978,0.25089481472969055,0.4436671733856201
1751015759971194600,3.402194580078125,0.3123120963573456,0.4390484690666199,0.42367589473724365
1751015759981137700,3.4121376953125,0.5036293268203735,0.585043728351593,0.338433176279068
1751015759991080700,3.422080810546875,0.6389490365982056,0.6602327823638916,0.235191211104393
1751015760001023700,3.432023681640625,0.6926674246788025,0.6851708889007568,0.14372467994689941
1751015760010966500,3.441966552734375,0.714593768119812,0.6673697829246521,0.07000172138214111
1751015760020909600,3.45190966796875,0.7271090149879456,0.6182853579521179,-0.0006436860421672463
1751015760030852600,3.4618525390625,0.7273801565170288,0.5271328091621399,-0.0777784213423729
1751015760040794600,3.471794677734375,0.7075853943824768,0.39145565032958984,-0.18345557153224945
1751015760050737700,3.481737548828125,0.6550340056419373,0.20322714745998383,-0.3005651533603668
1751015760060680700,3.4916806640625,0.542377769947052,0.02274525910615921,-0.3944639563560486
1751015760070623700,3.501623779296875,0.3782210648059845,-0.09907785058021545,-0.4453545808792114
1751015760080566500,3.51156640625,0.20106147229671478,-0.13096174597740173,-0.4295119643211365
1751015760090509600,3.521509521484375,0.07197166234254837,-0.08120910078287125,-0.34244415163993835
1751015760100452600,3.53145263671875,0.021702632308006287,0.03158881887793541,-0.1997687667608261
1751015760110395600,3.541395751953125,0.04246463626623154,0.18604497611522675,-0.042512573301792145
1751015760120338700,3.551338623046875,0.10809317976236343,0.35047146677970886,0.12585300207138062
1751015760130281700,3.56128173828125,0.1681855469942093,0.4156438112258911,0.21929213404655457
1751015760140224800,3.571224853515625,0.21191012859344482,0.42762643098831177,0.24423344433307648
1751015760150167800,3.581167724609375,0.24706491827964783,0.41787847876548767,0.2322409600019455
1751015760160110600,3.591110595703125,0.2598145306110382,0.3563690483570099,0.19760175049304962
1751015760170053600,3.6010537109375,0.24308136105537415,0.22814714908599854,0.14480911195278168
1751015760179995600,3.61099560546875,0.18722635507583618,0.06294593960046768,0.08064904063940048
1751015760189938400,3.6209384765625,0.10338257998228073,-0.10948548465967178,0.014811436645686626
1751015760199881500,3.630881591796875,0.008257663808763027,-0.27128955721855164,-0.03834472596645355
1751015760209824500,3.640824462890625,-0.07109308242797852,-0.4116498529911041,-0.07576186954975128
1751015760219767600,3.650767578125,-0.13655145466327667,-0.5076022148132324,-0.08319289237260818
1751015760229710600,3.660710693359375,-0.1774221807718277,-0.5358200073242188,-0.06768956780433655
1751015760239653600,3.670653564453125,-0.1743701994419098,-0.5318649411201477,-0.03307938948273659
1751015760249596700,3.6805966796875,-0.13050395250320435,-0.5168324708938599,-0.019694343209266663
1751015760259539700,3.690539794921875,-0.06519658118486404,-0.43474239110946655,0.015849003568291664
1751015760269482500,3.700482421875,0.008783104829490185,-0.3440798819065094,0.07334692031145096
1751015760279425500,3.710425537109375,0.08329249173402786,-0.292367160320282,0.14072516560554504
1751015760289368600,3.72036865234375,0.1555352658033371,-0.2693236172199249,0.19353032112121582
1751015760299311600,3.7303115234375,0.2048753798007965,-0.26163986325263977,0.22433777153491974
1751015760309254700,3.740254638671875,0.2321552038192749,-0.2644777297973633,0.23475365340709686
1751015760319197700,3.75019775390625,0.24407152831554413,-0.2793962359428406,0.21883194148540497
1751015760329140700,3.760140625,0.24858345091342926,-0.30548933148384094,0.19114279747009277
1751015760339082800,3.770082763671875,0.2541782259941101,-0.3371434211730957,0.1557467132806778
1751015760349025800,3.78002587890625,0.26402711868286133,-0.3691868185997009,0.11759667098522186
1751015760358968800,3.78996875,0.27107784152030945,-0.3880252242088318,0.10319429636001587
1751015760368911600,3.79991162109375,0.27842336893081665,-0.3752993047237396,0.11961720883846283
1751015760378854700,3.809854736328125,0.2871476113796234,-0.34536483883857727,0.16168557107448578
1751015760388797700,3.819797607421875,0.2922568917274475,-0.3197689354419708,0.20505781471729279
1751015760398740700,3.82974072265625,0.28620779514312744,-0.29942479729652405,0.24896001815795898
1751015760408683500,3.83968359375,0.27577805519104004,-0.2839944362640381,0.2677057385444641
1751015760418626600,3.84962646484375,0.2644018232822418,-0.260576993227005,0.2629131078720093
1751015760428569600,3.859569580078125,0.2574637532234192,-0.21489553153514862,0.24094444513320923
1751015760438512600,3.8695126953125,0.25707361102104187,-0.15653954446315765,0.21422840654850006
1751015760448455700,3.87945556640625,0.25964996218681335,-0.09292221814393997,0.2046133279800415
1751015760458398500,3.8893984375,0.2660508453845978,-0.016207465901970863,0.20639285445213318
1751015760468341500,3.899341552734375,0.27059340476989746,0.05381130054593086,0.22123651206493378
1751015760478284500,3.909284423828125,0.2582155764102936,0.10693976283073425,0.24822604656219482
1751015760488227600,3.9192275390625,0.24174311757087708,0.13201822340488434,0.2792779803276062
1751015760498169600,3.929169677734375,0.22473616898059845,0.11330818384885788,0.2937850058078766
1751015760508112600,3.939112548828125,0.20140475034713745,0.05498149245977402,0.29654619097709656
1751015760518055700,3.9490556640625,0.16942498087882996,-0.04589851573109627,0.26635313034057617
1751015760527998700,3.958998779296875,0.12993429601192474,-0.16183310747146606,0.20748502016067505
1751015760537941800,3.968941650390625,0.10279908031225204,-0.23490890860557556,0.11004927009344101
1751015760547884800,3.978884765625,0.03701500967144966,-0.2891623079776764,-0.04989538714289665
1751015760557827600,3.98882763671875,-0.11548744887113571,-0.2981856167316437,-0.24040435254573822
1751015760567770600,3.9987705078125,-0.30158862471580505,-0.2011221945285797,-0.4781828224658966
1751015760577713700,4.008713623046875,-0.4416506290435791,0.03889600187540054,-0.7455319762229919
1751015760587656700,4.01865673828125,-0.49803295731544495,0.19632983207702637,-1.0842207670211792
1751015760597599700,4.028599853515625,-0.4868042767047882,0.15732064843177795,-1.449592113494873
1751015760607542800,4.038542724609375,-0.4491671621799469,-0.007922105491161346,-1.7273465394973755
1751015760617485800,4.04848583984375,-0.44204479455947876,-0.18600662052631378,-1.8117597103118896
1751015760627428600,4.0584287109375,-0.5032780766487122,-0.3425999581813812,-1.6650216579437256
1751015760637371600,4.06837158203125,-0.6456868648529053,-0.516512393951416,-1.3078291416168213
1751015760647314400,4.078314453125,-0.8284161686897278,-0.6798754334449768,-0.7618821859359741
1751015760657258800,4.0882587890625,-1.000253677368164,-0.8097178936004639,-0.10944420099258423
1751015760667200800,4.09820068359375,-1.0876128673553467,-0.9004043936729431,0.5285328030586243
1751015760677143800,4.108143798828125,-1.0668261051177979,-0.9404860138893127,1.0634156465530396
1751015760687086800,4.1180869140625,-0.934864342212677,-0.8849298357963562,1.4093576669692993
1751015760697030000,4.12802978515625,-0.7195072770118713,-0.751427412033081,1.5450094938278198
1751015760706973000,4.137972900390625,-0.4482195973396301,-0.5254448652267456,1.5211381912231445
1751015760716916000,4.147916015625,-0.15145982801914215,-0.19694794714450836,1.4031721353530884
1751015760726858800,4.157858642578125,0.1423606127500534,0.12250913679599762,1.2232189178466797
1751015760736801800,4.1678017578125,0.3742787837982178,0.38166719675064087,1.0012316703796387
1751015760746744800,4.177744873046875,0.511143147945404,0.550588071346283,0.7376106381416321
1751015760756688000,4.18768798828125,0.5429277420043945,0.623668372631073,0.4663653075695038
1751015760766631000,4.197630859375,0.473894327878952,0.6276439428329468,0.211635023355484
1751015760776574000,4.207573974609375,0.3231213390827179,0.572853147983551,-0.00015765913121867925
1751015760786517000,4.21751708984375,0.08727099001407623,0.4771876037120819,-0.16154921054840088
1751015760796460000,4.2274599609375,-0.1918613165616989,0.3388480842113495,-0.26398369669914246
1751015760806402800,4.23740283203125,-0.4642430245876312,0.16189461946487427,-0.30757007002830505
1751015760816345900,4.247345947265625,-0.692627489566803,-0.047024767845869064,-0.32009464502334595
1751015760826287900,4.257287841796875,-0.8843753337860107,-0.2531680762767792,-0.2966953217983246
1751015760836230700,4.267230712890625,-1.060683012008667,-0.4287380278110504,-0.27417269349098206
1751015760846173700,4.277173583984375,-1.2160147428512573,-0.5692054033279419,-0.2857276201248169
1751015760856116700,4.28711669921875,-1.3418153524398804,-0.6553933024406433,-0.32914140820503235
1751015760866059800,4.297059814453125,-1.3977582454681396,-0.6459212303161621,-0.3848794996738434
1751015760876002800,4.3070029296875,-1.385335922241211,-0.563364565372467,-0.4439958333969116
1751015760885945900,4.31694580078125,-1.3009980916976929,-0.4600115418434143,-0.5085146427154541
1751015760895889000,4.326888916015625,-1.1579395532608032,-0.33398863673210144,-0.5505595207214355
1751015760905832000,4.33683203125,-0.9777135252952576,-0.19922655820846558,-0.5723015666007996
1751015760915774700,4.346774658203125,-0.7705294489860535,-0.08634447306394577,-0.570999026298523
1751015760925717800,4.3567177734375,-0.5392935872077942,0.0026322684716433287,-0.5490679144859314
1751015760935660800,4.366660888671875,-0.31856173276901245,0.07963517308235168,-0.49378520250320435
1751015760945603800,4.376603759765625,-0.13164564967155457,0.13381239771842957,-0.4122232496738434
1751015760955547000,4.386546875,-0.0034767568577080965,0.16917836666107178,-0.31058529019355774
1751015760965490000,4.396489990234375,0.07055912166833878,0.20337682962417603,-0.19807952642440796
1751015760975433000,4.406432861328125,0.10259614884853363,0.24867825210094452,-0.09327562153339386
1751015760985376000,4.4163759765625,0.10144779831171036,0.27361395955085754,-0.011699533089995384
1751015760995318800,4.42631884765625,0.0733272135257721,0.26710572838783264,0.03911224752664566
1751015761005260800,4.4362607421875,0.03153635561466217,0.21636639535427094,0.07601354271173477
1751015761015203800,4.446203857421875,0.0007792409160174429,0.15917447209358215,0.10985086858272552
1751015761025146600,4.456146728515625,-0.024660872295498848,0.10523108392953873,0.1534007340669632
1751015761035089700,4.466089599609375,-0.03958629071712494,0.060266803950071335,0.2005181908607483
1751015761045032700,4.47603271484375,-0.05481158196926117,0.033433057367801666,0.2476779669523239
1751015761054975700,4.485975830078125,-0.058221228420734406,0.07866179198026657,0.27732881903648376
1751015761064918800,4.495918701171875,-0.027532825246453285,0.24205631017684937,0.29200416803359985
1751015761074861800,4.50586181640625,0.032638102769851685,0.5074389576911926,0.26803144812583923
1751015761084804900,4.515804931640625,0.10490351170301437,0.7916027903556824,0.15677256882190704
1751015761094748000,4.525747802734375,0.19522754848003387,1.0487462282180786,-0.0447794571518898
1751015761104690700,4.535690673828125,0.3020256459712982,1.2480528354644775,-0.28097307682037354
1751015761114633700,4.5456337890625,0.4115143120288849,1.2960587739944458,-0.5423668622970581
1751015761124576800,4.55557666015625,0.5137746334075928,1.204906702041626,-0.792609453201294
1751015761134519800,4.565519775390625,0.602288544178009,1.0548110008239746,-0.9955857396125793
1751015761144462800,4.575462890625,0.6987932324409485,0.8465107679367065,-1.090598225593567
1751015761154406000,4.585406005859375,0.7901255488395691,0.5743634104728699,-1.0495930910110474
1751015761164349000,4.595348876953125,0.8427051305770874,0.3357561528682709,-0.844083309173584
1751015761174292000,4.6052919921875,0.8382802605628967,0.1847943514585495,-0.5059700012207031
1751015761184234800,4.61523486328125,0.7636480927467346,0.12269502878189087,-0.13826413452625275
1751015761194177000,4.625177001953125,0.6376973986625671,0.0724789947271347,0.16323712468147278
1751015761204119800,4.635119873046875,0.4799993634223938,0.001585912425071001,0.3372217118740082
1751015761214062800,4.645062744140625,0.3264361619949341,-0.06927760690450668,0.38136041164398193
1751015761224005600,4.655005615234375,0.21448352932929993,-0.11903957277536392,0.32816189527511597
1751015761233948700,4.66494873046875,0.16459746658802032,-0.12289077043533325,0.23221832513809204
1751015761243891700,4.6748916015625,0.18306435644626617,-0.09356803447008133,0.15182974934577942
1751015761253834800,4.684834716796875,0.24994592368602753,-0.0628543272614479,0.11646030098199844
1751015761263777800,4.69477783203125,0.34460532665252686,-0.06540323793888092,0.12245267629623413
1751015761273720800,4.704720947265625,0.4563289284706116,-0.08023651689291,0.18332615494728088
1751015761283664000,4.714663818359375,0.5752587914466858,-0.0881572887301445,0.2827105224132538
1751015761293606700,4.724606689453125,0.6701629161834717,-0.06330759823322296,0.3945164084434509
1751015761303549700,4.7345498046875,0.7298718094825745,-0.028855349868535995,0.48757338523864746
1751015761313492700,4.74449267578125,0.7655482888221741,0.025684857740998268,0.543201208114624
1751015761323435800,4.754435791015625,0.7758408784866333,0.07498688995838165,0.5409998893737793
1751015761333378800,4.76437890625,0.7524540424346924,0.12068620324134827,0.4987730383872986
1751015761343321900,4.77432177734375,0.6991229057312012,0.15479063987731934,0.4071888029575348
1751015761353265000,4.784264892578125,0.6205570101737976,0.15402765572071075,0.2924007177352905
1751015761363208000,4.7942080078125,0.5181837677955627,0.12545885145664215,0.16737274825572968
1751015761373150700,4.804150634765625,0.41105732321739197,0.08907288312911987,0.06059543788433075
1751015761383093000,4.814093017578125,0.31550681591033936,0.07665988802909851,-0.01414404809474945
1751015761393035800,4.824035888671875,0.25512391328811646,0.09280584007501602,-0.05381236597895622
1751015761402978800,4.833978759765625,0.22729440033435822,0.10441029816865921,-0.06656358391046524
1751015761412921900,4.843921875,0.22233320772647858,0.10247630625963211,-0.055506136268377304
1751015761422865000,4.853864990234375,0.22377291321754456,0.0775134339928627,-0.025584455579519272
1751015761432808000,4.863807861328125,0.22811199724674225,0.03958549350500107,0.0203340332955122
1751015761442751000,4.8737509765625,0.23558641970157623,-0.005506884306669235,0.07788148522377014
1751015761452693800,4.88369384765625,0.24064935743808746,-0.059182628989219666,0.13746225833892822
1751015761462636800,4.89363671875,0.24361345171928406,-0.12459039688110352,0.19836261868476868
1751015761472579800,4.903579833984375,0.2535947263240814,-0.18939842283725739,0.2536170780658722
1751015761482522600,4.913522705078125,0.2590011954307556,-0.25411882996559143,0.30094945430755615
1751015761492465700,4.923465576171875,0.26838219165802,-0.30603715777397156,0.33944571018218994
1751015761502408700,4.93340869140625,0.2769642174243927,-0.34230488538742065,0.3767065405845642
1751015761512351700,4.943351806640625,0.2845403850078583,-0.36573857069015503,0.402539998292923
1751015761522294800,4.953294677734375,0.2822870910167694,-0.3623718023300171,0.4194433391094208
1751015761532237800,4.96323779296875,0.2643272578716278,-0.38585981726646423,0.410910040140152
1751015761542180900,4.973180908203125,0.22588053345680237,-0.4007769823074341,0.3615638017654419
1751015761552124000,4.9831240234375,0.1746027022600174,-0.3929038643836975,0.29581353068351746
1751015761562066700,4.993066650390625,0.11732316762208939,-0.3207167685031891,0.2527052164077759
1751015761572009700,5.003009765625,0.046960316598415375,-0.21730674803256989,0.23224495351314545
1751015761581951700,5.01295166015625,-0.009560748003423214,-0.07424440234899521,0.2152681052684784
1751015761591894800,5.022894775390625,-0.024659806862473488,0.11536946892738342,0.18526892364025116
1751015761601837800,5.032837890625,0.0026903252582997084,0.2959999740123749,0.11538171768188477
1751015761611780900,5.04278076171875,0.029318740591406822,0.4614107608795166,0.00866246409714222
1751015761621724000,5.052723876953125,0.06147640943527222,0.5982930064201355,-0.13061153888702393
1751015761631667000,5.0626669921875,0.07814966142177582,0.669089138507843,-0.29692673683166504
1751015761641610000,5.07260986328125,0.03283730894327164,0.6211830973625183,-0.5077623128890991
1751015761651556000,5.08255615234375,-0.09223219007253647,0.47737693786621094,-0.6938141584396362
1751015761661499100,5.0924990234375,-0.27656716108322144,0.2532261312007904,-0.8218392729759216
1751015761671442000,5.10244189453125,-0.4493759274482727,-0.038966573774814606,-0.9044110774993896
1751015761681385000,5.112385009765625,-0.5825774073600769,-0.22423656284809113,-0.9255433082580566
1751015761691328000,5.122327880859375,-0.6851514577865601,-0.27558284997940063,-0.8595911860466003
1751015761701271000,5.13227099609375,-0.7270203232765198,-0.25201547145843506,-0.717283308506012
1751015761711214000,5.142214111328125,-0.6715900897979736,-0.16374419629573822,-0.5573133230209351
1751015761721157000,5.1521572265625,-0.555226743221283,-0.06355900317430496,-0.4212758541107178
1751015761731100200,5.16210009765625,-0.45323646068573,-0.004548945464193821,-0.35611629486083984
1751015761741043200,5.172043212890625,-0.42100635170936584,-0.04060974344611168,-0.3994145095348358
1751015761750986000,5.181986083984375,-0.46859171986579895,-0.18150748312473297,-0.5141136646270752
1751015761760929000,5.191928955078125,-0.5710794925689697,-0.3383599519729614,-0.6253424286842346
1751015761770872000,5.2018720703125,-0.689410388469696,-0.42254218459129333,-0.6682307720184326
1751015761780815000,5.211815185546875,-0.7818779945373535,-0.40220096707344055,-0.6218635439872742
1751015761790757000,5.221757080078125,-0.8016471862792969,-0.3149893581867218,-0.4841485619544983
1751015761800700000,5.231699951171875,-0.7448411583900452,-0.1822638213634491,-0.285460501909256
1751015761810643000,5.241642822265625,-0.6133885979652405,-0.015323828905820847,-0.05008793622255325
1751015761820586000,5.2515859375,-0.41964495182037354,0.11049056053161621,0.19470690190792084
1751015761830529000,5.261529052734375,-0.21135619282722473,0.17231345176696777,0.3942221403121948
1751015761840472000,5.27147216796875,-0.029521407559514046,0.16653598845005035,0.5201065540313721
1751015761850415000,5.2814150390625,0.10112661868333817,0.1265491545200348,0.5533457398414612
1751015761860358000,5.29135791015625,0.160454660654068,0.07046404480934143,0.5000913143157959
1751015761870301000,5.301301025390625,0.14377741515636444,-0.0054456316865980625,0.3743072748184204
1751015761880244000,5.311243896484375,0.053289055824279785,-0.07461458444595337,0.19931736588478088
1751015761890187000,5.32118701171875,-0.08685953170061111,-0.1297665238380432,-0.007056578062474728
1751015761900130000,5.331130126953125,-0.24179399013519287,-0.13542413711547852,-0.203848734498024
1751015761910073000,5.341072998046875,-0.37278661131858826,-0.08565764874219894,-0.3696374297142029
1751015761920016100,5.35101611328125,-0.46379321813583374,0.00896792858839035,-0.4773407280445099
1751015761929959200,5.360959228515625,-0.500303328037262,0.11785819381475449,-0.5193696618080139
1751015761939902000,5.37090185546875,-0.4645029604434967,0.22969870269298553,-0.5283016562461853
1751015761949845000,5.380844970703125,-0.3944903314113617,0.2694101631641388,-0.5371862053871155
1751015761959788000,5.3907880859375,-0.30988621711730957,0.2761248052120209,-0.5537905097007751
1751015761969731000,5.40073095703125,-0.220005601644516,0.2605964243412018,-0.5713298320770264
1751015761979674000,5.410674072265625,-0.1839197725057602,0.17617502808570862,-0.5898736715316772
1751015761989617200,5.4206171875,-0.20461119711399078,0.036037627607584,-0.5900416970252991
1751015761999560200,5.430560302734375,-0.20748980343341827,-0.0680331140756607,-0.5203776955604553
1751015762009503200,5.440503173828125,-0.13608327507972717,-0.06824696809053421,-0.41084158420562744
1751015762019445200,5.4504453125,0.005087436642497778,0.04342443868517876,-0.3466024100780487
1751015762029388000,5.460387939453125,0.16876079142093658,0.18889401853084564,-0.3552720844745636
1751015762039331000,5.4703310546875,0.2997952401638031,0.3317957818508148,-0.4037908911705017
1751015762049273900,5.48027392578125,0.3888939619064331,0.440641313791275,-0.45474326610565186
1751015762059217000,5.490216796875,0.42013388872146606,0.4617668390274048,-0.4759071469306946
1751015762069160000,5.500159912109375,0.3877519965171814,0.40709665417671204,-0.4599420428276062
1751015762079103000,5.51010302734375,0.31232699751853943,0.29919734597206116,-0.3964807689189911
1751015762089046000,5.5200458984375,0.23182816803455353,0.14633430540561676,-0.30994001030921936
1751015762098989000,5.529989013671875,0.1355983018875122,0.05354125425219536,-0.21076363325119019
1751015762108932000,5.53993212890625,0.03485225513577461,0.03404771536588669,-0.0902278944849968
1751015762118875100,5.549875244140625,-0.03147083893418312,0.05204242840409279,0.024296818301081657
1751015762128818000,5.55981787109375,-0.03604135662317276,0.07696082442998886,0.12100391834974289
1751015762138761000,5.569760986328125,-0.0010956244077533484,0.13250558078289032,0.20082896947860718
1751015762148704000,5.5797041015625,0.06772152334451675,0.24192075431346893,0.2884579002857208
1751015762158647000,5.58964697265625,0.1803295612335205,0.37333977222442627,0.365931898355484
1751015762168590000,5.599590087890625,0.283630907535553,0.4475490152835846,0.4017498195171356
1751015762178533000,5.609533203125,0.33414867520332336,0.44948381185531616,0.3710499703884125
1751015762188476200,5.61947607421875,0.32650381326675415,0.4030132293701172,0.2794460356235504
1751015762198419200,5.629419189453125,0.2863215208053589,0.3214763104915619,0.15495815873146057
1751015762208362000,5.639362060546875,0.21951504051685333,0.22955037653446198,-0.004451207350939512
1751015762218305000,5.649304931640625,0.13816799223423004,0.1243634968996048,-0.19444777071475983
1751015762228248000,5.659248046875,0.07690729945898056,-0.0013337110867723823,-0.398765504360199
1751015762238191000,5.669191162109375,0.039806533604860306,-0.08544193208217621,-0.5723620653152466
1751015762248134100,5.679134033203125,0.040772464126348495,-0.12648336589336395,-0.6792741417884827
1751015762258076000,5.689075927734375,0.0846853256225586,-0.09830792993307114,-0.7048372626304626
1751015762268019000,5.69901904296875,0.15740267932415009,-0.018267953768372536,-0.6492906808853149
1751015762277962000,5.7089619140625,0.23527537286281586,0.08310873806476593,-0.5397785305976868
1751015762287905000,5.718905029296875,0.28574520349502563,0.18287287652492523,-0.41060671210289
1751015762297848000,5.72884814453125,0.3282918632030487,0.25822994112968445,-0.28672683238983154
1751015762307791000,5.738791015625,0.3585946261882782,0.2722834646701813,-0.20050327479839325
1751015762317734000,5.74873388671875,0.3545495569705963,0.22909869253635406,-0.11914476752281189
1751015762327677000,5.758677001953125,0.3254750370979309,0.17174778878688812,-0.02586621791124344
1751015762337620000,5.768619873046875,0.2922736704349518,0.11003436148166656,0.0794234499335289
1751015762347563000,5.77856298828125,0.27159714698791504,0.03417474776506424,0.18465480208396912
1751015762357506000,5.788506103515625,0.258707731962204,-0.04532646760344505,0.29632219672203064
1751015762367449000,5.798448974609375,0.2665885388851166,-0.1179274320602417,0.3925533890724182
1751015762377392000,5.80839208984375,0.29420793056488037,-0.19114892184734344,0.4463132917881012
1751015762387335200,5.818335205078125,0.3372259736061096,-0.2403007447719574,0.46963435411453247
1751015762397278000,5.82827783203125,0.3852888345718384,-0.273989737033844,0.45377281308174133
1751015762407221000,5.838220947265625,0.41782042384147644,-0.31025639176368713,0.40922027826309204
1751015762417164000,5.8481640625,0.4340460002422333,-0.3687357008457184,0.33487147092819214
1751015762427107000,5.858107177734375,0.42978227138519287,-0.4636821746826172,0.23012295365333557
1751015762437050000,5.868050048828125,0.3796469271183014,-0.5788851976394653,0.12259622663259506
1751015762446993200,5.8779931640625,0.2756344974040985,-0.658263087272644,0.062003184109926224
1751015762456936200,5.887936279296875,0.14732500910758972,-0.6756055951118469,0.07485959678888321
1751015762466879200,5.897879150390625,0.01076902449131012,-0.645927906036377,0.14866536855697632
1751015762476822000,5.907822021484375,-0.10123101621866226,-0.566885232925415,0.27185094356536865
1751015762486765000,5.91776513671875,-0.17741818726062775,-0.4627620577812195,0.4125116765499115
1751015762496708000,5.9277080078125,-0.22739213705062866,-0.3433810770511627,0.5428662300109863
1751015762506651100,5.937651123046875,-0.2470071166753769,-0.2281237095594406,0.6409025192260742
1751015762516593000,5.947593017578125,-0.223833367228508,-0.1303476244211197,0.7261369824409485
1751015762526536000,5.957535888671875,-0.166117861866951,-0.06273289024829865,0.7956950068473816
1751015762536479000,5.96747900390625,-0.09382050484418869,-0.012467854656279087,0.8558840155601501
1751015762546422000,5.977422119140625,-0.0005917543894611299,0.027776770293712616,0.9019058346748352
1751015762556365000,5.987364990234375,0.08748377859592438,0.05342354252934456,0.9308104515075684
1751015762566308000,5.99730810546875,0.1767505407333374,0.06091395020484924,0.9289489388465881
1751015762576251100,6.007251220703125,0.266630619764328,0.08678948879241943,0.8913669586181641
1751015762586194000,6.01719384765625,0.35691550374031067,0.1344480812549591,0.8256483674049377
1751015762596137000,6.027136962890625,0.43529900908470154,0.18161560595035553,0.7234775424003601
1751015762606080000,6.037080078125,0.4866950809955597,0.2000148445367813,0.5951853394508362
1751015762616023000,6.04702294921875,0.4957762062549591,0.18012875318527222,0.46849530935287476
1751015762625966000,6.056966064453125,0.45749858021736145,0.12429238855838776,0.35980716347694397
1751015762635909000,6.0669091796875,0.3829825222492218,0.05717966705560684,0.27401503920555115
1751015762645852200,6.07685205078125,0.2833222448825836,-0.005519134923815727,0.20961181819438934
1751015762655794700,6.086794677734375,0.1794792115688324,-0.06073125824332237,0.16126638650894165
1751015762665737700,6.09673779296875,0.08431994169950485,-0.09019167721271515,0.12535658478736877
1751015762675680500,6.106680419921875,0.023208916187286377,-0.08245279639959335,0.11220749467611313
1751015762685623300,6.116623291015625,-0.0030652983114123344,-0.048339035362005234,0.10643962025642395
1751015762695566300,6.12656640625,-0.008435296826064587,-0.020478909835219383,0.0818416029214859
1751015762705509400,6.13650927734375,-0.006311958190053701,-0.03334517404437065,0.03865312039852142
1751015762715452400,6.146452392578125,0.00119629199616611,-0.08562488853931427,-0.024119451642036438
1751015762725395500,6.1563955078125,0.01806049235165119,-0.16847848892211914,-0.11376997828483582
1751015762735338500,6.16633837890625,0.023024359717965126,-0.2733641564846039,-0.2065851390361786
1751015762745281500,6.176281494140625,0.011871573515236378,-0.33793169260025024,-0.2681339681148529
1751015762755224600,6.186224609375,-0.01210033893585205,-0.35405421257019043,-0.3119240701198578
1751015762765167400,6.19616748046875,-0.05247572436928749,-0.33739879727363586,-0.35205206274986267
1751015762775110400,6.2061103515625,-0.11292815208435059,-0.29147472977638245,-0.4072932004928589
1751015762785053400,6.216053466796875,-0.18914729356765747,-0.23393845558166504,-0.47546321153640747
1751015762794996500,6.22599658203125,-0.28086230158805847,-0.17916150391101837,-0.5431314706802368
1751015762804938500,6.2359384765625,-0.36616042256355286,-0.11609038710594177,-0.5928036570549011
1751015762814881500,6.245881591796875,-0.4327239990234375,-0.053341783583164215,-0.617468535900116
1751015762824824600,6.255824462890625,-0.47597426176071167,0.01594887301325798,-0.6230510473251343
1751015762834767600,6.265767578125,-0.4781242311000824,0.0972229540348053,-0.6152916550636292
1751015762844710700,6.275710693359375,-0.4614797532558441,0.16793280839920044,-0.5971161127090454
1751015762854653700,6.28565380859375,-0.45480772852897644,0.2199757695198059,-0.5814386606216431
1751015762864596500,6.295596435546875,-0.4876948297023773,0.22791199386119843,-0.5601296424865723
1751015762874539500,6.30553955078125,-0.5621304512023926,0.19727684557437897,-0.5375390648841858
1751015762884482600,6.315482666015625,-0.6635822653770447,0.16147197782993317,-0.48816755414009094
1751015762894425600,6.325425537109375,-0.7606089115142822,0.1632927805185318,-0.40485242009162903
1751015762904368600,6.33536865234375,-0.823829710483551,0.1807279735803604,-0.2822133004665375
1751015762914311400,6.3453115234375,-0.8447917103767395,0.2026769369840622,-0.14144261181354523
1751015762924254500,6.35525439453125,-0.7949434518814087,0.24263741075992584,0.016512397676706314
1751015762934197500,6.365197509765625,-0.6843202710151672,0.2787027359008789,0.18440179526805878
1751015762944140500,6.375140625,-0.5366194844245911,0.2693646252155304,0.35031700134277344
1751015762954083300,6.385083251953125,-0.3793848752975464,0.20613719522953033,0.503886878490448
1751015762964026400,6.3950263671875,-0.2330380380153656,0.10431548953056335,0.6454530358314514
1751015762973969400,6.404969482421875,-0.11394574493169785,-0.02694746106863022,0.7827121019363403
1751015762983912400,6.414912353515625,-0.02334500290453434,-0.16888755559921265,0.872991681098938
1751015762993855500,6.42485546875,-0.008620652370154858,-0.31843817234039307,0.8917728066444397
1751015763003798500,6.434798583984375,-0.0794929638504982,-0.45790472626686096,0.8295485973358154
1751015763013741600,6.444741455078125,-0.2341962605714798,-0.5643619298934937,0.7019813060760498
1751015763023684600,6.4546845703125,-0.4578607678413391,-0.6123483180999756,0.5258800387382507
1751015763033627400,6.46462744140625,-0.7022446990013123,-0.581082284450531,0.3366411328315735
1751015763043570400,6.4745703125,-0.913496732711792,-0.47002848982810974,0.17280159890651703
1751015763053513500,6.484513427734375,-1.0429705381393433,-0.32635387778282166,0.04842212796211243
1751015763063456500,6.49445654296875,-1.0909833908081055,-0.17516329884529114,-0.025125859305262566
1751015763073399600,6.504399658203125,-1.0906771421432495,-0.03951545059680939,-0.06611963361501694
1751015763083342600,6.514342529296875,-1.0555102825164795,0.08128100633621216,-0.060145363211631775
1751015763093285600,6.52428564453125,-0.9820874929428101,0.2570304572582245,-0.010733071714639664
1751015763103227600,6.5342275390625,-0.8500338792800903,0.48006966710090637,0.04971855506300926
1751015763113170700,6.544170654296875,-0.6730614900588989,0.708686351776123,0.07953264564275742
1751015763123113700,6.55411376953125,-0.48938220739364624,0.980064868927002,0.08429597318172455
1751015763133056800,6.564056884765625,-0.31615397334098816,1.2189078330993652,0.052621666342020035
1751015763142999300,6.573999267578125,-0.18121320009231567,1.316759467124939,-0.03610074520111084
1751015763152942300,6.5839423828125,-0.08585205674171448,1.286470890045166,-0.1605803519487381
1751015763162885400,6.593885498046875,-0.050993677228689194,1.164459228515625,-0.2710924744606018
1751015763172828400,6.603828369140625,-0.06506768614053726,0.9649314284324646,-0.3296663165092468
1751015763182771500,6.613771484375,-0.10079532116651535,0.6972451210021973,-0.3479800820350647
1751015763192714500,6.623714599609375,-0.1481391340494156,0.38433143496513367,-0.3485369384288788
1751015763202657500,6.633657470703125,-0.21430909633636475,0.07844607532024384,-0.3285246193408966
1751015763212600600,6.6436005859375,-0.2947906255722046,-0.1754423975944519,-0.3048509955406189
1751015763222543400,6.65354345703125,-0.3733552098274231,-0.36562883853912354,-0.28063538670539856
1751015763232486400,6.663486328125,-0.42826372385025024,-0.4674004912376404,-0.24660125374794006
1751015763242429400,6.673429443359375,-0.46333515644073486,-0.49724438786506653,-0.19952988624572754
1751015763252372500,6.68337255859375,-0.4687672257423401,-0.4688012897968292,-0.12827780842781067
1751015763262315500,6.6933154296875,-0.43274688720703125,-0.38765186071395874,-0.0478852353990078
1751015763272258600,6.703258544921875,-0.34551212191581726,-0.26631078124046326,0.01890658028423786
1751015763282201600,6.71320166015625,-0.22823050618171692,-0.14611460268497467,0.0475560687482357
1751015763292144600,6.72314453125,-0.1057400107383728,-0.04331311956048012,0.037635527551174164
1751015763302087400,6.73308740234375,0.006452306639403105,0.05392847955226898,-0.005141764879226685
1751015763312030500,6.743030517578125,0.11754127591848373,0.1461564153432846,-0.06615158915519714
1751015763321973500,6.752973388671875,0.21720795333385468,0.20575235784053802,-0.15065954625606537
1751015763331916500,6.76291650390625,0.30892136693000793,0.20222154259681702,-0.23752307891845703
1751015763341859600,6.772859619140625,0.3748644292354584,0.1589190810918808,-0.31532493233680725
1751015763351802600,6.782802734375,0.41839325428009033,0.09313340485095978,-0.37060630321502686
1751015763361745700,6.79274560546875,0.43313783407211304,-0.0073388731107115746,-0.4008834958076477
1751015763371688700,6.802688720703125,0.43422070145606995,-0.12649641931056976,-0.39635080099105835
1751015763381631500,6.812631591796875,0.4264642298221588,-0.24919597804546356,-0.339706689119339
1751015763391574500,6.822574462890625,0.4341152310371399,-0.3124138414859772,-0.24027171730995178
1751015763401517600,6.832517578125,0.4579518437385559,-0.30706167221069336,-0.11716683954000473
1751015763411460600,6.842460693359375,0.49701988697052,-0.2576688230037689,-0.010490457527339458
1751015763421403400,6.8524033203125,0.5297932624816895,-0.19240114092826843,0.0306300800293684
1751015763431346400,6.862346435546875,0.5119591355323792,-0.11214997619390488,-0.033541448414325714
1751015763441289500,6.87228955078125,0.4443915784358978,-0.045641519129276276,-0.16720816493034363
1751015763451232500,6.882232421875,0.3392726182937622,-0.0017627463676035404,-0.3003004491329193
1751015763461175600,6.892175537109375,0.26526734232902527,0.07509820908308029,-0.35880714654922485
1751015763471117600,6.90211767578125,0.2757948338985443,0.20485487580299377,-0.3080907166004181
1751015763481060600,6.912060546875,0.3574066162109375,0.3386310636997223,-0.18788175284862518
1751015763491003400,6.92200341796875,0.4704926908016205,0.44719719886779785,-0.04957794025540352
1751015763500946400,6.931946533203125,0.5958921313285828,0.5102787017822266,0.06503785401582718
1751015763510889500,6.941889404296875,0.7217704653739929,0.5259966850280762,0.14303945004940033
1751015763520832500,6.95183251953125,0.8196921944618225,0.5090904235839844,0.17063671350479126
1751015763530775600,6.961775634765625,0.8770862817764282,0.4468264877796173,0.16519081592559814
1751015763540718600,6.971718505859375,0.8861687183380127,0.3447078466415405,0.13953019678592682
1751015763550661600,6.98166162109375,0.8505875468254089,0.22075209021568298,0.11215556412935257
1751015763560604700,6.991604736328125,0.789766788482666,0.09855639934539795,0.08183654397726059
1751015763570547500,7.00154736328125,0.7138949632644653,-0.005603823345154524,0.05184854939579964
1751015763580490500,7.011490478515625,0.6125781536102295,-0.07346542924642563,0.012282765470445156
1751015763590433500,7.02143359375,0.5067518949508667,-0.09212087094783783,-0.029472138732671738
1751015763600376600,7.03137646484375,0.3945356011390686,-0.06875403225421906,-0.07221214473247528
1751015763610319600,7.041319580078125,0.29624471068382263,-0.027114974334836006,-0.10059504956007004
1751015763620262700,7.0512626953125,0.21795549988746643,0.025676600635051727,-0.11697854846715927
1751015763630205700,7.061205810546875,0.16396869719028473,0.08427386730909348,-0.10531523823738098
1751015763640148700,7.071148681640625,0.1426229327917099,0.13787983357906342,-0.07523083686828613
1751015763650091800,7.081091796875,0.15648335218429565,0.18166673183441162,-0.04528944939374924
1751015763660034600,7.09103466796875,0.19482195377349854,0.20622693002223969,-0.0075998627580702305
1751015763669977600,7.1009775390625,0.24216203391551971,0.21634136140346527,0.029766950756311417
1751015763679920600,7.110920654296875,0.29393041133880615,0.20100314915180206,0.06675665825605392
1751015763689863700,7.12086376953125,0.3274247348308563,0.14799025654792786,0.09214137494564056
1751015763699806700,7.130806640625,0.347059428691864,0.060453224927186966,0.11177899688482285
1751015763709749800,7.140749755859375,0.36382243037223816,-0.034275949001312256,0.13537806272506714
1751015763719692800,7.15069287109375,0.3897152841091156,-0.12400557100772858,0.16509707272052765
1751015763729635800,7.1606357421875,0.4262213408946991,-0.18743567168712616,0.1925678551197052
1751015763739578600,7.17057861328125,0.45157623291015625,-0.2207086682319641,0.21754670143127441
1751015763749521700,7.180521728515625,0.45655927062034607,-0.23599521815776825,0.22984065115451813
1751015763759464700,7.190464599609375,0.43433547019958496,-0.24601136147975922,0.2100168764591217
1751015763769407700,7.20040771484375,0.394695907831192,-0.26155731081962585,0.17894232273101807
1751015763779350800,7.210350830078125,0.34789884090423584,-0.2643677294254303,0.14331108331680298
1751015763789293800,7.2202939453125,0.30536070466041565,-0.2523920238018036,0.1129704937338829
1751015763799236900,7.23023681640625,0.2615834176540375,-0.20884563028812408,0.10152023285627365
1751015763809180000,7.240179931640625,0.224882110953331,-0.1379120647907257,0.09767729043960571
1751015763819122700,7.250122802734375,0.19806835055351257,-0.06574572622776031,0.09831085801124573
1751015763829065700,7.260065673828125,0.18064726889133453,-0.009692042134702206,0.09057970345020294
1751015763839007700,7.2700078125,0.1784355193376541,0.03340456262230873,0.06287563592195511
1751015763848950800,7.27995068359375,0.1790296733379364,0.05583929643034935,-0.000070307454734575
1751015763858893800,7.289893798828125,0.17013205587863922,0.05619003623723984,-0.07911985367536545
1751015763868836900,7.2998369140625,0.14331242442131042,0.009690177626907825,-0.15215304493904114
1751015763878780000,7.30977978515625,0.08470796048641205,-0.09469481557607651,-0.20751909911632538
1751015763888722700,7.31972265625,-0.014259097166359425,-0.2441796511411667,-0.221479132771492
1751015763898665700,7.329665771484375,-0.12737499177455902,-0.40336716175079346,-0.21845591068267822
1751015763908608800,7.33960888671875,-0.22931814193725586,-0.5184388756752014,-0.20170755684375763
1751015763918551800,7.3495517578125,-0.32402706146240234,-0.5333430171012878,-0.18076418340206146
1751015763928494600,7.35949462890625,-0.4048284590244293,-0.4597247242927551,-0.15907034277915955
1751015763938437600,7.369437744140625,-0.4701177179813385,-0.33257928490638733,-0.14031583070755005
1751015763948380700,7.379380615234375,-0.4916200637817383,-0.164622500538826,-0.1303236484527588
1751015763958323700,7.38932373046875,-0.4706026613712311,-0.018500979989767075,-0.1179061308503151
1751015763968266800,7.399266845703125,-0.4462680220603943,0.0738406702876091,-0.06691858172416687
1751015763978209800,7.409209716796875,-0.4230303466320038,0.1016661748290062,-0.035722844302654266
1751015763988152800,7.41915283203125,-0.43969056010246277,-0.03165939077734947,-0.10615599900484085
1751015763998096000,7.429095947265625,-0.5254113078117371,-0.28636252880096436,-0.2522956430912018
1751015764008038700,7.43903857421875,-0.6485255360603333,-0.5203135013580322,-0.34843069314956665
1751015764017981700,7.448981689453125,-0.7680617570877075,-0.6456892490386963,-0.29868417978286743
1751015764027924700,7.4589248046875,-0.8363561630249023,-0.6749632358551025,-0.12958994507789612
1751015764037867800,7.46886767578125,-0.8284476399421692,-0.6156573295593262,0.12063959985971451
1751015764047810800,7.478810791015625,-0.7456454038619995,-0.49359267950057983,0.39633801579475403
1751015764057753900,7.48875390625,-0.5846195220947266,-0.32387420535087585,0.6385360360145569
1751015764067697000,7.49869677734375,-0.3512379229068756,-0.13388030230998993,0.819579541683197
1751015764077640000,7.508639892578125,-0.09910847246646881,0.014673484489321709,0.8983423113822937
1751015764087582700,7.518582763671875,0.08685313910245895,0.07250668853521347,0.8942348957061768
1751015764097525800,7.52852587890625,0.16720257699489594,0.07994835823774338,0.847358226776123
1751015764107468800,7.53846875,0.13975709676742554,0.06094590947031975,0.7675294280052185
1751015764117411800,7.548411865234375,0.019481822848320007,0.036250948905944824,0.6436508893966675
1751015764127355000,7.55835498046875,-0.17124737799167633,0.0036546560004353523,0.4770536422729492
1751015764137298000,7.5682978515625,-0.40357837080955505,-0.0231734961271286,0.27534982562065125
1751015764147241000,7.578240966796875,-0.610738217830658,-0.04412618279457092,0.06004149839282036
1751015764157184000,7.58818408203125,-0.7553166747093201,-0.015993347391486168,-0.12442821264266968
1751015764167126800,7.598126708984375,-0.821961522102356,0.02178305946290493,-0.24708302319049835
1751015764177069600,7.608069580078125,-0.8279315233230591,0.05499933660030365,-0.31841951608657837
1751015764187012600,7.6180126953125,-0.7933042645454407,0.07363241165876389,-0.34118980169296265
1751015764196955600,7.62795556640625,-0.7195802330970764,0.07192159444093704,-0.31232115626335144
1751015764206898700,7.637898681640625,-0.6208414435386658,0.07596773654222488,-0.2508934736251831
1751015764216841700,7.647841796875,-0.5001174211502075,0.09700484573841095,-0.17419949173927307
1751015764226784800,7.65778466796875,-0.3675979971885681,0.13552799820899963,-0.10520870983600616
1751015764236727800,7.667727783203125,-0.23604822158813477,0.1833527833223343,-0.060990914702415466
1751015764246670800,7.6776708984375,-0.1207093745470047,0.23118075728416443,-0.04507426917552948
1751015764256613600,7.687613525390625,-0.02929716929793358,0.2865169942378998,-0.0627501979470253
1751015764266556000,7.697555908203125,0.041841987520456314,0.3528880178928375,-0.10285075008869171
1751015764276498700,7.707498779296875,0.09370198845863342,0.42028355598449707,-0.16467922925949097
1751015764286441700,7.717441650390625,0.1241949200630188,0.48172563314437866,-0.2455466389656067
1751015764296384800,7.727384765625,0.1407776176929474,0.5395415425300598,-0.3502834439277649
1751015764306327800,7.737327880859375,0.14588584005832672,0.5925772786140442,-0.4477085471153259
1751015764316270800,7.747270751953125,0.15923786163330078,0.611865222454071,-0.5345408916473389
1751015764326214000,7.7572138671875,0.16104720532894135,0.577036440372467,-0.5949232578277588
1751015764336157000,7.767156982421875,0.16034147143363953,0.47524428367614746,-0.6199524998664856
1751015764346100000,7.777099853515625,0.16419453918933868,0.3283650875091553,-0.5832074880599976
1751015764356042800,7.787042724609375,0.17156296968460083,0.14805364608764648,-0.48116981983184814
1751015764365985800,7.79698583984375,0.18194077908992767,-0.014957910403609276,-0.33099231123924255
1751015764375928800,7.8069287109375,0.19389569759368896,-0.11046765744686127,-0.15741971135139465
1751015764385872000,7.816871826171875,0.20802776515483856,-0.1268112063407898,0.003403253620490432
1751015764395814700,7.826814697265625,0.23255841434001923,-0.08677883446216583,0.10281159728765488
1751015764405757700,7.8367578125,0.25977271795272827,-0.021872540935873985,0.1246710941195488
1751015764415700700,7.84670068359375,0.2843571603298187,0.045650310814380646,0.0712938904762268
1751015764425643800,7.856643798828125,0.3130734860897064,0.10989294201135635,-0.013607688248157501
1751015764435586800,7.8665869140625,0.34607619047164917,0.15356425940990448,-0.09974630177021027
1751015764445529600,7.876529541015625,0.38004985451698303,0.1466970294713974,-0.1759451925754547
1751015764455472600,7.88647265625,0.40608280897140503,0.09684984385967255,-0.2235153764486313
1751015764465415700,7.896415771484375,0.43138763308525085,0.042746398597955704,-0.2373180091381073
1751015764475358700,7.906358642578125,0.4520481526851654,-0.03355689346790314,-0.22332176566123962
1751015764485301800,7.9163017578125,0.44965502619743347,-0.10617650300264359,-0.19720575213432312
1751015764495244800,7.926244873046875,0.42348548769950867,-0.16616766154766083,-0.15991882979869843
1751015764505187800,7.936187744140625,0.38654956221580505,-0.18799227476119995,-0.09984936565160751
1751015764515131000,7.946130859375,0.36011770367622375,-0.13266269862651825,-0.012480371631681919
1751015764525073700,7.95607373046875,0.37812891602516174,0.0007291734800674021,0.08838126063346863
1751015764535016700,7.9660166015625,0.4271492063999176,0.17693082988262177,0.14764991402626038
1751015764544959700,7.975959716796875,0.4859728217124939,0.3574492037296295,0.11754287779331207
1751015764554902800,7.98590283203125,0.5391590595245361,0.49602678418159485,0.015474563464522362
1751015764564845800,7.995845703125,0.5659340023994446,0.5727341175079346,-0.12067209184169769
1751015764574788900,8.005788818359376,0.5406744480133057,0.5546427369117737,-0.2737751007080078
1751015764584732000,8.01573193359375,0.4467945396900177,0.4340744912624359,-0.396485835313797
1751015764594675000,8.025675048828125,0.3270745277404785,0.2771937847137451,-0.42777344584465027
1751015764604617700,8.03561767578125,0.23074986040592194,0.1270066797733307,-0.33974772691726685
1751015764614560800,8.045560791015625,0.19806674122810364,-0.006684534251689911,-0.16519801318645477
1751015764624503800,8.05550390625,0.21175645291805267,-0.12982617318630219,0.03247804939746857
1751015764634446800,8.06544677734375,0.26482367515563965,-0.24364115297794342,0.217726469039917
1751015764644390000,8.075389892578125,0.34224921464920044,-0.3474578261375427,0.36473482847213745
1751015764654328300,8.085328369140624,0.4352095127105713,-0.40940508246421814,0.4601084887981415
1751015764664271400,8.095271240234375,0.5327605605125427,-0.42786797881126404,0.5082358121871948
1751015764674214400,8.10521435546875,0.616942286491394,-0.4154227674007416,0.5266209244728088
1751015764684157400,8.115157470703124,0.680978000164032,-0.3763669729232788,0.5222378969192505
1751015764694100500,8.1251005859375,0.7219153046607971,-0.31914442777633667,0.5201752781867981
1751015764704043300,8.135043212890626,0.7455591559410095,-0.25360509753227234,0.5178330540657043
1751015764713986300,8.144986328125,0.7349581718444824,-0.20020899176597595,0.5181398391723633
1751015764723929300,8.154929443359375,0.694503128528595,-0.173401340842247,0.5060876607894897
1751015764733872400,8.164872314453126,0.6185892224311829,-0.18424201011657715,0.4752940833568573
1751015764743815400,8.1748154296875,0.5205560922622681,-0.21161238849163055,0.4361855685710907
1751015764753758500,8.184758544921875,0.4119071364402771,-0.23873400688171387,0.40564924478530884
1751015764763700500,8.194700439453126,0.30739617347717285,-0.2611098885536194,0.3905906677246094
1751015764773644500,8.20464453125,0.2210860401391983,-0.27871260046958923,0.3987308740615845
1751015764783586600,8.214586669921875,0.1557810753583908,-0.283667653799057,0.4232197105884552
1751015764793529600,8.224529541015626,0.09886293113231659,-0.2793205976486206,0.45746874809265137
1751015764803472600,8.23447265625,0.059245213866233826,-0.27442917227745056,0.4895763695240021
1751015764813415400,8.24441552734375,0.03783366456627846,-0.26355281472206116,0.5161621570587158
1751015764823358500,8.2543583984375,0.01877715066075325,-0.24346326291561127,0.5231766700744629
1751015764833301500,8.264301513671874,0.023199329152703285,-0.22399234771728516,0.5040892362594604
1751015764843244500,8.27424462890625,0.04688921198248863,-0.17738410830497742,0.4715898931026459
1751015764853187600,8.2841875,0.07877124100923538,-0.10547955334186554,0.4282357692718506
1751015764863130400,8.29413037109375,0.1160307303071022,-0.024174312129616737,0.3712683618068695
1751015764873073400,8.304073486328125,0.15462899208068848,0.05854693427681923,0.3056275546550751
1751015764883016400,8.314016357421876,0.18493443727493286,0.13063763082027435,0.22604617476463318
1751015764892959200,8.323959228515625,0.19447679817676544,0.18587400019168854,0.15224386751651764
1751015764902902300,8.33390234375,0.18106912076473236,0.21920639276504517,0.1070857048034668
1751015764912845300,8.34384521484375,0.16020911931991577,0.2300502508878708,0.08241098374128342
1751015764922788400,8.353788330078125,0.1234004944562912,0.2383880764245987,0.05410264804959297
1751015764932731400,8.3637314453125,0.07138177007436752,0.22850480675697327,0.010551444254815578
1751015764942674400,8.37367431640625,0.01883014664053917,0.20549483597278595,-0.03355742618441582
1751015764952617500,8.383617431640625,-0.03195873275399208,0.18049654364585876,-0.07333413511514664
1751015764962560500,8.393560546875,-0.07169575989246368,0.1723717749118805,-0.08399716764688492
1751015764972503300,8.40350341796875,-0.09039460867643356,0.18131279945373535,-0.07968177646398544
1751015764982446300,8.4134462890625,-0.09953085333108902,0.19372233748435974,-0.08662357181310654
1751015764992389400,8.423389404296875,-0.10273223370313644,0.22392763197422028,-0.14368313550949097
1751015765002332400,8.43333251953125,-0.08978607505559921,0.3079991042613983,-0.2623431980609894
1751015765012275500,8.443275390625,-0.060143765062093735,0.45149901509284973,-0.4372210204601288
1751015765022218500,8.453218505859375,-0.037702903151512146,0.6295374631881714,-0.6538366675376892
1751015765032161500,8.46316162109375,-0.02315751649439335,0.8040948510169983,-0.8611765503883362
1751015765042104600,8.4731044921875,-0.010574080981314182,0.9444663524627686,-1.031185507774353
1751015765052047600,8.483047607421875,-0.012774118222296238,0.9884532690048218,-1.1616860628128052
1751015765061990400,8.492990478515624,-0.0735759511590004,0.946662962436676,-1.2474523782730103
1751015765071933400,8.502933349609375,-0.19639934599399567,0.8547311425209045,-1.2319364547729492
1751015765081876500,8.51287646484375,-0.34355950355529785,0.7202481627464294,-1.093945026397705
1751015765091819500,8.522819580078124,-0.5030002593994141,0.5110859274864197,-0.8711553812026978
1751015765101762600,8.532762451171875,-0.6508949398994446,0.31555476784706116,-0.5722081065177917
1751015765111705600,8.54270556640625,-0.7429414987564087,0.09056079387664795,-0.2874900996685028
1751015765121648600,8.552648681640624,-0.7554269433021545,-0.14394812285900116,-0.08967236429452896
1751015765131591700,8.562591796875,-0.7032396197319031,-0.3523034453392029,-0.027635090053081512
1751015765141534200,8.5725341796875,-0.6213786005973816,-0.506293535232544,-0.06740833818912506
1751015765151477200,8.582477294921874,-0.5596044659614563,-0.6644136905670166,-0.1882905513048172
1751015765161420300,8.592420166015625,-0.548573911190033,-0.7868130803108215,-0.3000921905040741
1751015765171363300,8.60236328125,-0.559409499168396,-0.7761737704277039,-0.2846008241176605
1751015765181306400,8.612306396484374,-0.5451850295066833,-0.7243902087211609,-0.15300792455673218
1751015765191249400,8.62224951171875,-0.5002561807632446,-0.6036770939826965,0.04818590357899666
1751015765201192400,8.6321923828125,-0.4083068072795868,-0.4368380308151245,0.26134559512138367
1751015765211135500,8.642135498046875,-0.2936510443687439,-0.28161224722862244,0.44365546107292175
1751015765221078300,8.652078369140625,-0.15783490240573883,-0.15644899010658264,0.5699596405029297
1751015765231021300,8.662021240234376,-0.011842544190585613,-0.07198125123977661,0.6581360697746277
1751015765240964400,8.67196435546875,0.12172643095254898,-0.04904663935303688,0.730890154838562
1751015765250907400,8.681907470703125,0.20158931612968445,-0.08911176770925522,0.7775274515151978
1751015765260850400,8.691850341796876,0.21904419362545013,-0.18396823108196259,0.8157816529273987
1751015765270793500,8.70179345703125,0.18332721292972565,-0.2972646951675415,0.8340325355529785
1751015765280736500,8.711736572265625,0.08768058568239212,-0.4132051467895508,0.8313353061676025
1751015765290679600,8.721679443359376,-0.07184170186519623,-0.4996284544467926,0.8002042770385742
1751015765300622300,8.731622314453125,-0.29431259632110596,-0.5453671813011169,0.7280355095863342
1751015765310565400,8.7415654296875,-0.5446313619613647,-0.5552530884742737,0.6109419465065002
1751015765320508400,8.75150830078125,-0.7939008474349976,-0.4979216456413269,0.4544346034526825
1751015765330451500,8.761451416015625,-0.9784597754478455,-0.3950352072715759,0.2954505681991577
1751015765340394500,8.77139453125,-1.0803110599517822,-0.24134178459644318,0.16647127270698547
1751015765350337500,8.781337646484374,-1.1135501861572266,-0.07408913969993591,0.08052653074264526
1751015765360279600,8.791279541015625,-1.0930217504501343,0.08363364636898041,0.04375786706805229
1751015765370222300,8.801222412109375,-1.031531810760498,0.23000817000865936,0.05740843340754509
1751015765380165400,8.811165283203126,-0.9262572526931763,0.37209659814834595,0.125580295920372
1751015765390108400,8.8211083984375,-0.7927804589271545,0.5077678561210632,0.223704993724823
1751015765400051500,8.831051513671875,-0.6456431746482849,0.6145963072776794,0.3033806383609772
1751015765409994200,8.840994140625,-0.5032415390014648,0.6896966695785522,0.3496339023113251
1751015765419937300,8.850937255859375,-0.39303889870643616,0.7217467427253723,0.34465697407722473
1751015765429880300,8.86088037109375,-0.3256998062133789,0.6929883360862732,0.2767610251903534
1751015765439823400,8.8708232421875,-0.2933647632598877,0.6290796399116516,0.16157424449920654
1751015765449766400,8.880766357421875,-0.29000943899154663,0.5408544540405273,0.03410790115594864
1751015765459709400,8.89070947265625,-0.3030317723751068,0.43894273042678833,-0.08137688040733337
1751015765469652500,8.900652587890624,-0.3217029273509979,0.3366251587867737,-0.16737595200538635
1751015765479595500,8.910595458984375,-0.33057844638824463,0.24765907227993011,-0.2182987779378891
1751015765489538300,8.920538330078125,-0.3271360397338867,0.15569531917572021,-0.25268498063087463
1751015765499481300,8.9304814453125,-0.32375118136405945,0.047640491276979446,-0.2709587812423706
1751015765509424400,8.94042431640625,-0.3324895203113556,-0.05511624738574028,-0.2555825114250183
1751015765519367400,8.950367431640625,-0.34689778089523315,-0.12499307096004486,-0.2282153218984604
1751015765529310500,8.960310546875,-0.34390518069267273,-0.15785275399684906,-0.1848747730255127
1751015765539253500,8.97025341796875,-0.319681853055954,-0.1553421914577484,-0.1372944712638855
1751015765549196500,8.980196533203125,-0.2696860730648041,-0.12396083027124405,-0.07909934222698212
1751015765559139600,8.9901396484375,-0.2081713080406189,-0.10410909354686737,-0.03393026813864708
1751015765569082600,9.00008251953125,-0.13798050582408905,-0.1060638502240181,-0.007918642833828926
1751015765579025400,9.010025390625,-0.06650019437074661,-0.10075191408395767,0.00013768543431069702
1751015765588968400,9.019968505859374,0.022548185661435127,-0.07435678690671921,0.003855724586173892
1751015765598911500,9.029911376953125,0.12493474781513214,-0.04724101349711418,-0.010913367383182049
1751015765608854500,9.0398544921875,0.22788456082344055,-0.008280300535261631,-0.050341200083494186
1751015765618797600,9.049797607421874,0.3028320372104645,0.023542610928416252,-0.09518404304981232
1751015765628740600,9.05974072265625,0.34144335985183716,0.05077636241912842,-0.1378212422132492
1751015765638683600,9.06968359375,0.3488815426826477,0.05745849758386612,-0.17758198082447052
1751015765648626400,9.07962646484375,0.33660173416137695,0.03882462903857231,-0.20660564303398132
1751015765658570200,9.0895703125,0.3204493820667267,0.02196894772350788,-0.2102901190519333
1751015765668513300,9.09951318359375,0.32413387298583984,0.02486114203929901,-0.19203202426433563
1751015765678456300,9.109456298828125,0.3636637032032013,0.08435722440481186,-0.1645793616771698
1751015765688399400,9.1193994140625,0.41850218176841736,0.1699157953262329,-0.16131192445755005
1751015765698342400,9.12934228515625,0.46702444553375244,0.25229188799858093,-0.2099849283695221
1751015765708285400,9.139285400390625,0.4894391894340515,0.3097147047519684,-0.28730127215385437
1751015765718228200,9.149228271484375,0.47258618474006653,0.29540714621543884,-0.3615286350250244
1751015765728171300,9.159171142578124,0.4048321843147278,0.2024066299200058,-0.368877649307251
1751015765738114300,9.1691142578125,0.3364778757095337,0.06239147111773491,-0.3253658413887024
1751015765748057300,9.179057373046875,0.301526814699173,0.02478470839560032,-0.24478231370449066
1751015765758000400,9.18900048828125,0.35054391622543335,0.12084200233221054,-0.08874451369047165
1751015765767943400,9.198943359375,0.49664145708084106,0.2224368005990982,0.09296455979347229
1751015765777886500,9.208886474609375,0.6799564361572266,0.2589644491672516,0.2589836120605469
1751015765787829500,9.21882958984375,0.8235710859298706,0.2253713309764862,0.3724265694618225
1751015765797772300,9.228772216796875,0.9005830883979797,0.16655941307544708,0.4297785460948944
1751015765807715300,9.23871533203125,0.9273792505264282,0.0839817225933075,0.41150766611099243
1751015765817658400,9.248658447265624,0.9031929969787598,-0.03149161487817764,0.32883915305137634
1751015765827601400,9.258601318359375,0.8422651886940002,-0.15900856256484985,0.21137775480747223
1751015765837544200,9.268544189453126,0.7696263790130615,-0.2730288803577423,0.09181620925664902
1751015765847487200,9.2784873046875,0.7013857960700989,-0.35279959440231323,-0.008505604229867458
1751015765857430300,9.28843017578125,0.6230087280273438,-0.4062420427799225,-0.06451507657766342
1751015765867373300,9.298373291015626,0.5268552899360657,-0.4210020899772644,-0.0664578527212143
1751015765877316400,9.30831640625,0.4247036278247833,-0.3907264769077301,-0.025181785225868225
1751015765887259100,9.318259033203125,0.34563809633255005,-0.3183524012565613,0.04639466106891632
1751015765897202200,9.3282021484375,0.2998809814453125,-0.21741807460784912,0.12279968708753586
1751015765907145200,9.338145263671874,0.2892581820487976,-0.09468922764062881,0.18076205253601074
1751015765917088300,9.348088134765625,0.3037540316581726,0.020536433905363083,0.20470094680786133
1751015765927031300,9.35803125,0.3339904844760895,0.11378755420446396,0.20312967896461487
1751015765936974300,9.367974365234375,0.3653249740600586,0.17356805503368378,0.21060889959335327
1751015765946917400,9.37791748046875,0.39822274446487427,0.1813543438911438,0.224151611328125
1751015765956860400,9.3878603515625,0.42101433873176575,0.14164821803569794,0.24251917004585266
1751015765966803200,9.39780322265625,0.42653241753578186,0.06414622813463211,0.26806074380874634
1751015765976746200,9.407746337890625,0.4182068407535553,-0.03641286864876747,0.2875356376171112
1751015765986689300,9.417689208984376,0.3996744155883789,-0.11932213604450226,0.30246424674987793
1751015765996632300,9.42763232421875,0.37821096181869507,-0.17005614936351776,0.31712788343429565
1751015766006575400,9.437575439453125,0.38732588291168213,-0.20122338831424713,0.33432525396347046
1751015766016518400,9.447518310546876,0.4131380319595337,-0.2413787990808487,0.3351726830005646
1751015766026460400,9.45746044921875,0.44622889161109924,-0.26053571701049805,0.32696959376335144
1751015766036403500,9.467403564453125,0.46116283535957336,-0.25855752825737,0.31039008498191833
1751015766046346500,9.477346435546876,0.4497666358947754,-0.24246563017368317,0.27803853154182434
1751015766056289500,9.48728955078125,0.41384297609329224,-0.20952846109867096,0.23106837272644043
1751015766066232300,9.497232421875,0.35380974411964417,-0.15636563301086426,0.16821910440921783
1751015766076175000,9.507175048828126,0.26587456464767456,-0.10771714150905609,0.0848752111196518
1751015766086118100,9.5171181640625,0.1664121448993683,-0.06936576217412949,0.008088020607829094
1751015766096061200,9.527061279296875,0.05440917983651161,-0.02208213321864605,-0.062062304466962814
1751015766106004200,9.537004150390626,-0.04102573171257973,0.02737010456621647,-0.10580073297023773
1751015766115947300,9.546947265625,-0.10240759700536728,0.07976939529180527,-0.13102325797080994
1751015766125890300,9.556890380859375,-0.13810381293296814,0.12475577741861343,-0.16455937922000885
1751015766135833300,9.566833251953126,-0.15898112952709198,0.1387014240026474,-0.2084709107875824
1751015766145776400,9.5767763671875,-0.1616288423538208,0.1336217075586319,-0.2770065665245056
1751015766155719200,9.58671923828125,-0.16339026391506195,0.11221868544816971,-0.365364134311676
1751015766165662200,9.596662109375,-0.16212178766727448,0.04790201038122177,-0.47348552942276
1751015766175605200,9.606605224609375,-0.1734149307012558,-0.037824343889951706,-0.5638689398765564
1751015766185548300,9.61654833984375,-0.1957455277442932,-0.13156121969223022,-0.6256036758422852
1751015766195491300,9.6264912109375,-0.22849681973457336,-0.22055500745773315,-0.6554439067840576
1751015766205434400,9.636434326171875,-0.2637392282485962,-0.2745804190635681,-0.663935124874115
1751015766215377400,9.64637744140625,-0.3136604428291321,-0.26836514472961426,-0.6590551137924194
1751015766225320400,9.656320556640624,-0.3733983635902405,-0.21515944600105286,-0.6673218607902527
1751015766235263200,9.66626318359375,-0.44221603870391846,-0.14552924036979675,-0.7024739980697632
1751015766245206300,9.676206298828125,-0.5001054406166077,-0.07324998080730438,-0.7509624361991882
1751015766255149300,9.6861494140625,-0.5238578915596008,-0.011008442379534245,-0.8138231635093689
1751015766265092400,9.69609228515625,-0.5049161911010742,0.06801127642393112,-0.8568512797355652
1751015766275035400,9.706035400390626,-0.4562721848487854,0.1321425884962082,-0.8791446089744568
1751015766284978400,9.715978515625,-0.4298597574234009,0.16019020974636078,-0.8891615867614746
1751015766294921500,9.72592138671875,-0.4444696009159088,0.1287694275379181,-0.8976935148239136
1751015766304864500,9.735864501953126,-0.5049837827682495,0.048765674233436584,-0.8851751089096069
1751015766314807300,9.745807373046874,-0.5958932042121887,-0.042821500450372696,-0.838106095790863
1751015766324750300,9.755750244140625,-0.6901805400848389,-0.1130828782916069,-0.7489621043205261
1751015766334693400,9.765693359375,-0.7630395889282227,-0.1485079824924469,-0.6001113653182983
1751015766344636200,9.77563623046875,-0.7804140448570251,-0.13121208548545837,-0.37843412160873413
1751015766354579200,9.7855791015625,-0.7115340828895569,-0.05720656365156174,-0.10051275789737701
1751015766364522200,9.795522216796876,-0.5751378536224365,0.0551612563431263,0.18668626248836517
1751015766374465300,9.80546533203125,-0.38800206780433655,0.14499659836292267,0.4588586688041687
1751015766384408300,9.815408203125,-0.1893606036901474,0.16051644086837769,0.6811010241508484
1751015766394351400,9.825351318359376,-0.024809475988149643,0.10811208933591843,0.8490567803382874
1751015766404294100,9.835294189453125,0.07461937516927719,0.019100191071629524,0.9682348370552063
1751015766414237200,9.8452373046875,0.12008006870746613,-0.09662214666604996,1.0377087593078613
1751015766424180200,9.85518017578125,0.09504661709070206,-0.21282652020454407,1.0487704277038574
1751015766434123300,9.865123291015625,0.015810655429959297,-0.2891881465911865,0.9991831183433533
1751015766444066300,9.87506640625,-0.1271451711654663,-0.3231823146343231,0.8767246007919312
1751015766454009300,9.88500927734375,-0.33105117082595825,-0.3132455348968506,0.6984102725982666
1751015766463952400,9.894952392578125,-0.5519971251487732,-0.2563372552394867,0.47644802927970886
1751015766473895400,9.9048955078125,-0.7460981607437134,-0.13511015474796295,0.24852699041366577
1751015766483838200,9.914838134765626,-0.8679670691490173,0.04651503637433052,0.07283426076173782
1751015766493781200,9.92478125,-0.9229810237884521,0.2337118238210678,-0.05666114762425423
1751015766503724300,9.934724365234375,-0.9221815466880798,0.3936522305011749,-0.1358984410762787
1751015766513667300,9.944667236328126,-0.8754873275756836,0.5070991516113281,-0.1890018731355667
1751015766523610400,9.9546103515625,-0.8051271438598633,0.5938095450401306,-0.20604531466960907
1751015766533553400,9.964553466796875,-0.718559980392456,0.6273714900016785,-0.20935508608818054
1751015766543496400,9.974496337890624,-0.617602527141571,0.6270591020584106,-0.20470601320266724
1751015766553439500,9.984439453125,-0.5033196210861206,0.6388124227523804,-0.19795995950698853
1751015766563382300,9.99438232421875,-0.3717501163482666,0.6891946792602539,-0.1968906968832016
1751015766573325300,10.0043251953125,-0.22145888209342957,0.8468154668807983,-0.24458977580070496
1751015766583268400,10.014268310546875,-0.05609495937824249,1.1527618169784546,-0.4026699662208557
1751015766593211400,10.02421142578125,0.1111781895160675,1.5205504894256592,-0.6436692476272583
1751015766603154400,10.034154541015624,0.2811717391014099,1.8504114151000977,-0.8883002996444702
1751015766613097500,10.044097412109375,0.4358833134174347,2.0066158771514893,-1.068301796913147
1751015766623040300,10.054040283203125,0.5301560163497925,1.9755520820617676,-1.100805640220642
1751015766632983300,10.0639833984375,0.5361486673355103,1.7550873756408691,-0.9739720821380615
1751015766642926300,10.07392626953125,0.47822490334510803,1.3888111114501953,-0.7281114459037781
1751015766652868900,10.083868896484375,0.3923587203025818,0.9251115918159485,-0.3874196410179138
1751015766662812000,10.09381201171875,0.26726233959198,0.42708367109298706,-0.008040083572268486
1751015766672755000,10.1037548828125,0.15072107315063477,-0.08895090967416763,0.3503180742263794
1751015766682698000,10.113697998046876,0.07463375478982925,-0.5547481775283813,0.635997474193573
1751015766692640800,10.123640869140624,0.05079367384314537,-0.8856366276741028,0.8386174440383911
1751015766702583800,10.133583740234375,0.0560305118560791,-1.0966838598251343,0.9267441034317017
1751015766712526800,10.14352685546875,0.06303861737251282,-1.181741714477539,0.8904135227203369
1751015766722470000,10.153469970703124,0.0734020471572876,-1.1311957836151123,0.7644937038421631
1751015766732413000,10.163412841796875,0.08582223206758499,-0.9967663288116455,0.5936462879180908
1751015766742355700,10.173355712890626,0.10263130068778992,-0.7943032383918762,0.398957759141922
1751015766752298800,10.183298828125,0.12913961708545685,-0.5791517496109009,0.20997054874897003
1751015766762241800,10.19324169921875,0.17032645642757416,-0.37664714455604553,0.035293277353048325
1751015766772184800,10.203184814453126,0.22184717655181885,-0.20189769566059113,-0.1076313853263855
1751015766782127900,10.2131279296875,0.27205920219421387,-0.0942242369055748,-0.22250044345855713
1751015766792071000,10.22307080078125,0.28760889172554016,-0.07318020612001419,-0.29285797476768494
1751015766802014000,10.233013916015626,0.2757708728313446,-0.10426941514015198,-0.32112741470336914
1751015766811957000,10.24295703125,0.22908298671245575,-0.1729336977005005,-0.3044579029083252
1751015766821899800,10.252899658203125,0.1580199897289276,-0.243299201130867,-0.25371164083480835
1751015766831842800,10.2628427734375,0.09516939520835876,-0.3041588366031647,-0.1956869512796402
1751015766841785900,10.272785888671875,0.04291870445013046,-0.3222789764404297,-0.1602272242307663
1751015766851729000,10.28272900390625,0.013700099661946297,-0.2760246694087982,-0.15431074798107147
1751015766861671000,10.2926708984375,0.01654408872127533,-0.1939319223165512,-0.18503989279270172
1751015766871614000,10.302614013671874,0.05693172663450241,-0.09954656660556793,-0.2525864541530609
1751015766881557000,10.312556884765625,0.12566179037094116,-0.002466087229549885,-0.3268825113773346
1751015766891500000,10.3225,0.19185146689414978,0.07459940016269684,-0.387040913105011
1751015766901443000,10.332443115234375,0.22636762261390686,0.08984546363353729,-0.4349490702152252
1751015766911386000,10.34238623046875,0.18923303484916687,0.03304849565029144,-0.4721217453479767
1751015766921329000,10.352328857421876,0.09403514862060547,-0.07195408642292023,-0.4985394775867462
1751015766931271700,10.362271728515625,-0.012555738911032677,-0.18930573761463165,-0.5187180042266846
1751015766941214700,10.372214599609375,-0.09268786013126373,-0.2927684783935547,-0.4966965913772583
1751015766951157800,10.38215771484375,-0.14239469170570374,-0.3551599681377411,-0.39952796697616577
1751015766961100800,10.392100830078125,-0.16179955005645752,-0.35331517457962036,-0.22330312430858612
1751015766971043800,10.4020439453125,-0.1407880038022995,-0.29901280999183655,0.011448396369814873
1751015766980987000,10.41198681640625,-0.09490813314914703,-0.2439466118812561,0.2551702558994293
1751015766990930000,10.421929931640625,-0.05452422797679901,-0.21162569522857666,0.4419015049934387
1751015767000873000,10.431873046875,-0.03873221576213837,-0.17304767668247223,0.5349134802818298
1751015767010815700,10.441815673828126,-0.02755732461810112,-0.15229099988937378,0.5013403296470642
1751015767020758800,10.4517587890625,-0.0233527272939682,-0.16291728615760803,0.36018186807632446
1751015767030701800,10.461701904296875,-0.04802132025361061,-0.16180887818336487,0.1313774585723877
1751015767040644900,10.471644775390626,-0.1107930913567543,-0.17596623301506042,-0.1456674486398697
1751015767050588000,10.481587890625,-0.19939805567264557,-0.2183280736207962,-0.3463803231716156
1751015767060531000,10.491531005859375,-0.28642189502716064,-0.2304167002439499,-0.3925701677799225
1751015767070474000,10.501473876953124,-0.3525269031524658,-0.22804860770702362,-0.2673321068286896
1751015767080417000,10.5114169921875,-0.4148475229740143,-0.2664513885974884,-0.03623337298631668
1751015767090359800,10.52135986328125,-0.4732791483402252,-0.34893882274627686,0.25995567440986633
1751015767100302800,10.531302734375,-0.5209537148475647,-0.48009470105171204,0.5880398154258728
1751015767110246000,10.541245849609375,-0.5662897825241089,-0.5901245474815369,0.8990562558174133
1751015767120189000,10.55118896484375,-0.5833926200866699,-0.6357037425041199,1.1356967687606812
1751015767130132000,10.561132080078124,-0.5540086030960083,-0.6465103030204773,1.2635194063186646
1751015767140075000,10.571074951171875,-0.4595375061035156,-0.5807952284812927,1.2691246271133423
1751015767150018000,10.58101806640625,-0.2692897915840149,-0.43961039185523987,1.1860995292663574
1751015767159961000,10.590961181640624,0.007767109200358391,-0.25207164883613586,1.0138074159622192
1751015767169903900,10.60090380859375,0.3183657228946686,-0.08437160402536392,0.7759767174720764
1751015767179847000,10.610846923828126,0.6368869543075562,0.03142343461513519,0.5093340873718262
1751015767189790000,10.6207900390625,0.9107675552368164,0.09925681352615356,0.256583571434021
1751015767199733000,10.63073291015625,1.0760302543640137,0.09448841959238052,0.048641305416822433
1751015767209675800,10.64067578125,1.1107027530670166,-0.010237989947199821,-0.08764782547950745
1751015767219618800,10.650618896484374,1.0444235801696777,-0.09104761481285095,-0.11249379068613052
1751015767229561900,10.660561767578125,0.9227719902992249,-0.13088370859622955,-0.022766299545764923
1751015767239505000,10.6705048828125,0.7802409529685974,-0.11727762222290039,0.17943421006202698
1751015767249448000,10.680447998046875,0.6909952163696289,-0.03538089245557785,0.4547155797481537
1751015767259390700,10.690390625,0.6600684523582458,0.09874868392944336,0.6908900141716003
1751015767269333800,10.700333740234376,0.6511825919151306,0.19124053418636322,0.8026865720748901
1751015767279276800,10.71027685546875,0.661180317401886,0.2438848316669464,0.8028543591499329
1751015767289219800,10.7202197265625,0.6547021865844727,0.27052628993988037,0.7376841902732849
1751015767299163000,10.730162841796876,0.6278529763221741,0.27494874596595764,0.638154923915863
1751015767309106000,10.74010595703125,0.6003638505935669,0.24710725247859955,0.5219297409057617
1751015767319049000,10.750049072265625,0.5646143555641174,0.21212397515773773,0.40538638830184937
1751015767328992000,10.759991943359376,0.5219292640686035,0.20287641882896423,0.31221330165863037
1751015767338934800,10.769934814453125,0.49544861912727356,0.2269199639558792,0.2561787962913513
1751015767348877800,10.7798779296875,0.503600537776947,0.27900686860084534,0.26656991243362427
1751015767358820900,10.78982080078125,0.5248574018478394,0.33862119913101196,0.3304729759693146
1751015767368764000,10.799763916015625,0.5132824778556824,0.41454899311065674,0.38832589983940125
1751015767378707000,10.80970703125,0.4726322591304779,0.4614933133125305,0.4001618027687073
1751015767388650000,10.81964990234375,0.41823533177375793,0.5005065202713013,0.33737245202064514
1751015767398593000,10.829593017578125,0.36878281831741333,0.5434409379959106,0.21388858556747437
1751015767408536000,10.8395361328125,0.32369205355644226,0.5788210034370422,0.059896089136600494
1751015767418478800,10.849478759765624,0.2812873423099518,0.5888028144836426,-0.09302954375743866
1751015767428422000,10.859421875,0.2277735024690628,0.575702965259552,-0.17038877308368683
1751015767438365000,10.869364990234375,0.12201245874166489,0.6040368676185608,-0.15710999071598053
1751015767448308000,10.879307861328124,-0.003823766717687249,0.6322618722915649,-0.10082487761974335
1751015767458251000,10.8892509765625,-0.19594153761863708,0.46352824568748474,-0.04459383338689804
1751015767468194000,10.899194091796875,-0.4361584186553955,0.27156493067741394,0.11403735727071762
1751015767478137000,10.90913720703125,-0.601097822189331,0.23764903843402863,0.45084306597709656
1751015767488080000,10.919079833984375,-0.6251165866851807,0.34711214900016785,0.8493853807449341
1751015767498023000,10.92902294921875,-0.5192711353302002,0.39185377955436707,1.0870485305786133
1751015767507965700,10.938965576171874,-0.3521934747695923,0.3386305272579193,1.0689175128936768
1751015767517908700,10.94890869140625,-0.1824832558631897,0.25242185592651367,0.8555410504341125
1751015767527851800,10.958851806640626,-0.07706655561923981,0.15681198239326477,0.5536141991615295
1751015767537794800,10.968794921875,-0.056003082543611526,0.057081662118434906,0.25793248414993286
1751015767547737900,10.97873779296875,-0.09376856684684753,0.002597380895167589,0.07078362256288528
1751015767557681000,10.988680908203126,-0.14284050464630127,0.05654929578304291,0.06590551137924194
1751015767567624000,10.9986240234375,-0.1749742031097412,0.18626734614372253,0.2300369292497635
1751015767577567000,11.00856689453125,-0.21998189389705658,0.29043635725975037,0.45559388399124146
1751015767587509800,11.018509765625,-0.2618803381919861,0.32979148626327515,0.6775670051574707
1751015767597452800,11.028452880859374,-0.28632283210754395,0.35873472690582275,0.8525199294090271
1751015767607395800,11.038395751953125,-0.28655001521110535,0.4071637690067291,0.8908870220184326
1751015767617339000,11.0483388671875,-0.24831819534301758,0.3988989293575287,0.7526426315307617
1751015767627282000,11.058281982421875,-0.14955167472362518,0.36473214626312256,0.5338977575302124
1751015767637225000,11.068224853515625,-0.0156106511130929,0.33387356996536255,0.3017318844795227
1751015767647168000,11.07816796875,0.08568587899208069,0.31885388493537903,0.06597475707530975
1751015767657110500,11.088110595703125,0.13497325778007507,0.29826390743255615,-0.1455361545085907
1751015767667053600,11.098053466796875,0.16770298779010773,0.3047093152999878,-0.27639004588127136
1751015767676996400,11.107996337890626,0.19765529036521912,0.3323582410812378,-0.2975635230541229
1751015767686939400,11.117939453125,0.19309835135936737,0.37407612800598145,-0.24207814037799835
1751015767696882400,11.12788232421875,0.17314700782299042,0.3783169388771057,-0.1503594070672989
1751015767706825500,11.137825439453126,0.14305809140205383,0.3546749949455261,-0.0516168549656868
1751015767716768500,11.1477685546875,0.10945245623588562,0.3110998272895813,0.056656088680028915
1751015767726711600,11.157711669921875,0.04589904844760895,0.26687484979629517,0.15295332670211792
1751015767736654600,11.167654541015626,-0.042579419910907745,0.23137569427490234,0.20817238092422485
1751015767746597600,11.17759765625,-0.1335415542125702,0.18665216863155365,0.235712930560112
1751015767756540400,11.18754052734375,-0.19858287274837494,0.16319185495376587,0.2574467062950134
1751015767766483500,11.1974833984375,-0.261507511138916,0.15500342845916748,0.27294525504112244
1751015767776426500,11.207426513671875,-0.32659170031547546,0.1677810102701187,0.25408846139907837
1751015767786369500,11.21736962890625,-0.3678264915943146,0.18873023986816406,0.21152263879776
1751015767796312600,11.2273125,-0.37125930190086365,0.22639691829681396,0.15704500675201416
1751015767806255600,11.237255615234375,-0.33996424078941345,0.2723180651664734,0.12246892601251602
1751015767816198700,11.24719873046875,-0.2870354950428009,0.3351084887981415,0.07780132442712784
1751015767826141700,11.2571416015625,-0.23168489336967468,0.37097805738449097,0.011463310569524765
1751015767836084500,11.26708447265625,-0.17009103298187256,0.36839374899864197,-0.059063851833343506
1751015767846027500,11.277027587890625,-0.12461622804403305,0.3843274414539337,-0.08745714277029037
1751015767855970600,11.286970458984374,-0.07849960029125214,0.41823825240135193,-0.09068622440099716
1751015767865913600,11.29691357421875,-0.05524035170674324,0.43792834877967834,-0.08634740859270096
1751015767875856600,11.306856689453125,-0.09085027873516083,0.4140506982803345,-0.10577942430973053
1751015767885799700,11.316799560546874,-0.1840827465057373,0.34274351596832275,-0.15225957334041595
1751015767895742700,11.32674267578125,-0.3109208643436432,0.2641294002532959,-0.17666184902191162
1751015767905685800,11.336685791015626,-0.4343123137950897,0.22140082716941833,-0.12875451147556305
1751015767915628500,11.346628662109374,-0.5960391759872437,0.17755508422851562,-0.032514266669750214
1751015767925571600,11.356571533203125,-0.8230083584785461,0.07320737093687057,0.09431718289852142
1751015767935514400,11.366514404296876,-1.0614558458328247,-0.014676680788397789,0.2784910202026367
1751015767945457400,11.37645751953125,-1.2316381931304932,-0.014406369999051094,0.5003064870834351
1751015767955400400,11.386400390625,-1.320855736732483,-0.007740211207419634,0.6246963739395142
1751015767965343500,11.396343505859376,-1.3683897256851196,-0.040035832673311234,0.5565479397773743
1751015767975286500,11.40628662109375,-1.36904776096344,-0.08183600753545761,0.30722731351852417
1751015767985229600,11.4162294921875,-1.3370317220687866,-0.16183604300022125,-0.0342320054769516
1751015767995172600,11.426172607421876,-1.3060868978500366,-0.23762747645378113,-0.3493689298629761
1751015768005115400,11.436115478515624,-1.2705938816070557,-0.23945972323417664,-0.5335155725479126
1751015768015058400,11.446058349609375,-1.2514921426773071,-0.17637449502944946,-0.555590808391571
1751015768025000400,11.45600048828125,-1.2876930236816406,-0.15516135096549988,-0.45667245984077454
1751015768034943500,11.465943603515624,-1.4160282611846924,-0.1944861263036728,-0.30386775732040405
1751015768044886500,11.475886474609375,-1.6208091974258423,-0.2695297300815582,-0.13788169622421265
1751015768054829600,11.48582958984375,-1.8500382900238037,-0.39864298701286316,0.019780362024903297
1751015768064772600,11.495772705078124,-2.077317237854004,-0.5312668085098267,0.15952999889850616
1751015768074715600,11.505715576171875,-2.2740285396575928,-0.5751551985740662,0.25173690915107727
1751015768084658700,11.51565869140625,-2.380587339401245,-0.5917029976844788,0.2678349018096924
1751015768094601700,11.525601806640625,-2.40604305267334,-0.6218787431716919,0.19333431124687195
1751015768104544500,11.53554443359375,-2.3716351985931396,-0.6400108933448792,0.047386955469846725
1751015768114487600,11.545487548828126,-2.3101789951324463,-0.6312733292579651,-0.13381612300872803
1751015768124430600,11.5554306640625,-2.2424776554107666,-0.5879559516906738,-0.31469643115997314
1751015768134373600,11.56537353515625,-2.2043557167053223,-0.5275189280509949,-0.48268622159957886
1751015768144316700,11.575316650390626,-2.2484378814697266,-0.52459716796875,-0.6454058885574341
1751015768154259700,11.585259765625,-2.396364212036133,-0.5897679328918457,-0.8014029860496521
1751015768164202500,11.595202392578125,-2.6181113719940186,-0.6886300444602966,-0.9123790264129639
1751015768174145500,11.6051455078125,-2.894533634185791,-0.8208259344100952,-0.9621007442474365
1751015768184088600,11.615088623046875,-3.232717275619507,-1.0324410200119019,-0.9730783104896545
1751015768194031400,11.62503125,-3.629164457321167,-1.363903284072876,-0.9717134237289429
1751015768203974400,11.634974365234376,-4.030054092407227,-1.7410191297531128,-0.9586775302886963
1751015768213917400,11.64491748046875,-4.375631809234619,-2.1094672679901123,-0.9266423583030701
1751015768223860500,11.654860595703125,-4.621238708496094,-2.419339179992676,-0.8197505474090576
1751015768233803500,11.664803466796876,-4.722293853759766,-2.52467679977417,-0.5903575420379639
1751015768243746600,11.67474658203125,-4.666787624359131,-2.4459712505340576,-0.29362282156944275
1751015768253689600,11.684689697265625,-4.499249458312988,-2.26521635055542,-0.034504979848861694
1751015768263632600,11.694632568359374,-4.242010116577148,-2.037130117416382,0.11741664260625839
1751015768273575400,11.704575439453125,-3.944277286529541,-1.8235652446746826,0.13309013843536377
1751015768283518500,11.7145185546875,-3.6803717613220215,-1.7024203538894653,0.032941173762083054
1751015768293461500,11.72446142578125,-3.473712205886841,-1.6391268968582153,-0.14216139912605286
1751015768303404500,11.734404541015625,-3.286437511444092,-1.5727177858352661,-0.3230323791503906
1751015768313347600,11.74434765625,-3.096109628677368,-1.5185885429382324,-0.4912400245666504
1751015768323290600,11.75429052734375,-2.8844830989837646,-1.4351987838745117,-0.6402108669281006
1751015768333233700,11.764233642578125,-2.6194393634796143,-1.3092094659805298,-0.7622768878936768
1751015768343176700,11.7741767578125,-2.315385580062866,-1.1442843675613403,-0.863727331161499
1751015768353119500,11.784119384765624,-2.0179810523986816,-0.9553371071815491,-0.9401142597198486
1751015768363062500,11.7940625,-1.7541382312774658,-0.7695720791816711,-0.9848194122314453
1751015768373005600,11.804005615234376,-1.5100804567337036,-0.6171713471412659,-0.975882887840271
1751015768382948600,11.813948486328124,-1.3169875144958496,-0.5157454013824463,-0.9156525731086731
1751015768392891600,11.8238916015625,-1.1940282583236694,-0.4451122283935547,-0.7892325520515442
1751015768402834700,11.833834716796876,-1.127247929573059,-0.3701210618019104,-0.5961781740188599
1751015768412777700,11.84377783203125,-1.0966953039169312,-0.2903601825237274,-0.3496277630329132
1751015768422720800,11.853720703125,-1.0915554761886597,-0.21826043725013733,-0.11333401501178741
1751015768432663600,11.86366357421875,-1.1132010221481323,-0.1625732034444809,0.0033270870335400105
1751015768442606300,11.8736064453125,-1.1423578262329102,-0.19714342057704926,-0.03435557708144188
1751015768452549400,11.88354931640625,-1.1841706037521362,-0.30109697580337524,-0.1766727715730667
1751015768462492400,11.893492431640626,-1.2352631092071533,-0.38764041662216187,-0.37344416975975037
1751015768472435500,11.903435546875,-1.2670260667800903,-0.44309860467910767,-0.55888432264328
1751015768482378500,11.91337841796875,-1.2609902620315552,-0.4479721784591675,-0.7073020339012146
1751015768492321500,11.923321533203126,-1.2088652849197388,-0.40269577503204346,-0.7968787550926208
1751015768502264600,11.9332646484375,-1.11696195602417,-0.34632357954978943,-0.841476321220398
1751015768512207600,11.94320751953125,-0.9937713146209717,-0.2963576316833496,-0.8289046287536621
1751015768522150400,11.953150390625,-0.8588793277740479,-0.2586438059806824,-0.7549752593040466
1751015768532093400,11.963093505859375,-0.7337440252304077,-0.22155289351940155,-0.633752703666687
1751015768542036500,11.973036376953125,-0.6337689757347107,-0.1799228936433792,-0.503365695476532
1751015768551979500,11.9829794921875,-0.5465554594993591,-0.15298502147197723,-0.3838872015476227
1751015768561922600,11.992922607421875,-0.48905810713768005,-0.11512792110443115,-0.2887766659259796
1751015768571865600,12.002865478515625,-0.45313870906829834,-0.05950407311320305,-0.22257475554943085
1751015768581808600,12.01280859375,-0.4363166093826294,-0.007041397970169783,-0.16647952795028687
1751015768591751700,12.022751708984375,-0.42677396535873413,0.05463741347193718,-0.11687734723091125
1751015768601694500,12.032694580078125,-0.4237787127494812,0.10558927804231644,-0.08303922414779663
1751015768611637500,12.042637451171874,-0.41599029302597046,0.15068991482257843,-0.05906837806105614
1751015768621580500,12.05258056640625,-0.38133856654167175,0.20313580334186554,-0.04435388371348381
1751015768631523600,12.062523681640625,-0.3061971962451935,0.2568693459033966,-0.027960527688264847
1751015768641466600,12.072466552734374,-0.17883552610874176,0.30852562189102173,-0.0005914880894124508
1751015768651409700,12.08240966796875,-0.02707955427467823,0.35053351521492004,0.0191329475492239
1751015768661353500,12.092353515625,0.1386508196592331,0.3634493052959442,0.02021392434835434
1751015768671296500,12.102296630859374,0.321848601102829,0.32434505224227905,0.004378769546747208
1751015768681239600,12.112239501953125,0.5028104186058044,0.2191411405801773,-0.03314783424139023
1751015768691182600,12.1221826171875,0.7146859169006348,0.053163353353738785,-0.1172800213098526
1751015768701125600,12.132125732421875,0.8452582955360413,-0.14237791299819946,-0.2895638942718506
1751015768711068700,12.142068603515625,0.8581972718238831,-0.4231392741203308,-0.5440396070480347
1751015768721011700,12.15201171875,0.7072554230690002,-0.7140976190567017,-0.9045661091804504
1751015768730954800,12.161954833984375,0.3722614347934723,-0.8867884278297424,-1.3158992528915405
1751015768740897500,12.1718974609375,-0.06728103756904602,-0.8527572154998779,-1.6762514114379883
1751015768750840600,12.181840576171876,-0.4850905239582062,-0.7248432040214539,-1.9136937856674194
1751015768760783600,12.19178369140625,-0.8354746699333191,-0.596773624420166,-2.005452871322632
1751015768770726700,12.2017265625,-1.043580174446106,-0.46231356263160706,-1.9395101070404053
1751015768780669700,12.211669677734376,-1.0918254852294922,-0.3663012981414795,-1.7346699237823486
1751015768790612700,12.22161279296875,-0.9993602633476257,-0.29825088381767273,-1.4236793518066406
1751015768800555800,12.2315556640625,-0.8080483675003052,-0.27237799763679504,-1.0395848751068115
1751015768810498800,12.241498779296874,-0.608132541179657,-0.2799850404262543,-0.6213237047195435
1751015768820441600,12.251441650390625,-0.47714099287986755,-0.3071247935295105,-0.23711587488651276
1751015768830384600,12.261384521484375,-0.39266684651374817,-0.3331358730792999,0.10306087136268616
1751015768840327700,12.27132763671875,-0.33462247252464294,-0.30339691042900085,0.3714798092842102
1751015768850270700,12.281270751953125,-0.2894320785999298,-0.23557603359222412,0.5581274628639221
1751015768860213800,12.2912138671875,-0.2567513585090637,-0.126739040017128,0.630906343460083
1751015768870156800,12.30115673828125,-0.2475046068429947,0.006560697220265865,0.594298779964447
1751015768880099600,12.311099609375,-0.24362383782863617,0.1399856060743332,0.45920488238334656
1751015768890042600,12.321042724609375,-0.22686989605426788,0.24977654218673706,0.25714099407196045
1751015768899985700,12.330985595703124,-0.18552805483341217,0.3510139584541321,-0.026689134538173676
1751015768909928400,12.340928466796875,-0.11114383488893509,0.38388746976852417,-0.34647220373153687
1751015768919871500,12.35087158203125,-0.013401293195784092,0.34914013743400574,-0.6034451127052307
1751015768929814500,12.360814453125,0.06132381036877632,0.29192665219306946,-0.729017436504364
1751015768939757600,12.370757568359375,0.07531366497278214,0.2612406611442566,-0.7150539755821228
