time,seconds_elapsed,z,y,x
1751013395400900400,0.122900390625,-0.015449530445039272,-0.0196117851883173,0.016894029453396797
1751013395410843400,0.132843505859375,-0.01817687414586544,-0.02605610154569149,0.0002490055630914867
1751013395420786400,0.142786376953125,-0.020497018471360207,-0.0292524266988039,-0.02267708256840706
1751013395430729500,0.1527294921875,-0.01985439844429493,-0.02406672015786171,-0.046244192868471146
1751013395440672500,0.162672607421875,-0.010233729146420956,-0.020250942558050156,-0.06707091629505157
1751013395450615300,0.172615234375,-0.004393949639052153,-0.015668975189328194,-0.07277646660804749
1751013395460558300,0.182558349609375,-0.0025009745731949806,-0.010058759711682796,-0.06765414774417877
1751013395470501400,0.19250146484375,0.006209426559507847,-0.011142931878566742,-0.05907077714800835
1751013395480444400,0.2024443359375,0.008958075195550919,-0.003451456781476736,-0.04922347143292427
1751013395490387500,0.212387451171875,0.016405072063207626,0.0006460828590206802,-0.03429326042532921
1751013395500330500,0.22233056640625,0.011274758726358414,0.010978082194924355,-0.024274446070194244
1751013395510273500,0.2322734375,0.01182097289711237,0.013586648739874363,-0.022852318361401558
1751013395520216600,0.242216552734375,0.0006825681775808334,0.01913534477353096,-0.02269252948462963
1751013395530160400,0.252160400390625,-0.009070992469787598,0.022051772102713585,-0.026277409866452217
1751013395540103400,0.262103515625,-0.02070234902203083,0.01685754396021366,-0.03320375829935074
1751013395550046500,0.27204638671875,-0.03151611611247063,0.009621734730899334,-0.042096853256225586
1751013395559989500,0.281989501953125,-0.03671407327055931,0.002980343531817198,-0.040952492505311966
1751013395569932500,0.2919326171875,-0.037394244223833084,0.0040456079877913,-0.04205051437020302
1751013395579875300,0.301875244140625,-0.04246676713228226,0.008823319338262081,-0.04236689954996109
1751013395589818000,0.311818115234375,-0.04482712596654892,0.012406868860125542,-0.04375387355685234
1751013395599761200,0.32176123046875,-0.04719041660428047,0.019027486443519592,-0.049061018973588943
1751013395609704200,0.3317041015625,-0.046842873096466064,0.021801967173814774,-0.04993826523423195
1751013395619647200,0.341647216796875,-0.0485672689974308,0.02280997484922409,-0.04393123835325241
1751013395629590300,0.35159033203125,-0.05327440798282623,0.026815634220838547,-0.03347193822264671
1751013395639533300,0.361533203125,-0.05595114827156067,0.031309984624385834,-0.01792627014219761
1751013395649476400,0.371476318359375,-0.05835385248064995,0.0253375805914402,-0.00526693370193243
1751013395659419400,0.38141943359375,-0.05937890335917473,0.021677065640687943,0.011096592992544174
1751013395669362400,0.391362548828125,-0.054735951125621796,0.018425345420837402,0.023909326642751694
1751013395679305200,0.40130517578125,-0.0493965782225132,0.014241786673665047,0.030530745163559914
1751013395689249300,0.411249267578125,-0.042035333812236786,0.015337144955992699,0.033365678042173386
1751013395699192300,0.4211923828125,-0.03501550853252411,0.02166348323225975,0.037036050111055374
1751013395709135400,0.43113525390625,-0.030438600108027458,0.03162769973278046,0.030712638050317764
1751013395719078400,0.441078369140625,-0.027231087908148766,0.03764990717172623,0.026091255247592926
1751013395729021200,0.451021240234375,-0.022587334737181664,0.03652125969529152,0.026524284854531288
1751013395738964200,0.460964111328125,-0.020207000896334648,0.029272135347127914,0.035175565630197525
1751013395748907300,0.4709072265625,-0.01967676542699337,0.017368337139487267,0.035652801394462585
1751013395758850300,0.480850341796875,-0.018132930621504784,0.009707488119602203,0.03796282783150673
1751013395768793300,0.49079345703125,-0.01734010875225067,0.010041449218988419,0.04056766629219055
1751013395778736400,0.500736328125,-0.013255883939564228,0.011623899452388287,0.03989282250404358
1751013395788679400,0.510679443359375,-0.010469152592122555,0.014754178933799267,0.04030774161219597
1751013395798622500,0.52062255859375,-0.007141532842069864,0.026866234838962555,0.041901376098394394
1751013395808565500,0.5305654296875,0.000022903184799361043,0.03218643367290497,0.04164571315050125
1751013395818508300,0.54050830078125,0.012528042308986187,0.03442082554101944,0.03915246203541756
1751013395828451300,0.550451416015625,0.019644541665911674,0.039263248443603516,0.03045085072517395
1751013395838394400,0.560394287109375,0.020180901512503624,0.04847965016961098,0.010950651951134205
1751013395848338400,0.57033837890625,0.017605891451239586,0.049254897981882095,-0.005852296482771635
1751013395858281500,0.580281494140625,0.014815164729952812,0.03648530691862106,-0.01654142513871193
1751013395868224300,0.590224365234375,0.00956687331199646,0.02220623567700386,-0.02075028605759144
1751013395878167300,0.600167236328125,0.010995659045875072,0.008758338168263435,-0.018610702827572823
1751013395888110300,0.6101103515625,0.016657274216413498,0.011570636183023453,-0.008341552689671516
1751013395898053400,0.620053466796875,0.02528458461165428,0.029051359742879868,0.009525860659778118
1751013395907996400,0.629996337890625,0.031087080016732216,0.04382311552762985,0.02616901881992817
1751013395917939500,0.639939453125,0.03544427827000618,0.04620158299803734,0.037572409957647324
1751013395927882500,0.649882568359375,0.03515452519059181,0.04454350098967552,0.03610846772789955
1751013395937825500,0.659825439453125,0.037815820425748825,0.03916684538125992,0.039203859865665436
1751013395947768600,0.6697685546875,0.03279123455286026,0.023092802613973618,0.04187661036849022
1751013395957711400,0.67971142578125,0.026396986097097397,-0.001996571896597743,0.039616651833057404
1751013395967654400,0.689654296875,0.01853640004992485,-0.01835450530052185,0.03779584914445877
1751013395977597200,0.69959716796875,0.017236243933439255,-0.016280969604849815,0.03810450807213783
1751013395987540200,0.709540283203125,0.013055081479251385,-0.0031819448340684175,0.03137017413973808
1751013395997484500,0.719484619140625,0.013962154276669025,0.00777749577537179,0.021435784175992012
1751013396007427300,0.72942724609375,0.01309236604720354,0.011577560566365719,0.008489091880619526
1751013396017370400,0.739370361328125,0.010182330384850502,0.012220979668200016,-0.0011225224006921053
1751013396027313200,0.749313232421875,0.01197809912264347,0.01435150858014822,-0.00549276964738965
1751013396037256200,0.759256103515625,0.008217183873057365,0.011407916434109211,-0.004795554094016552
1751013396047199200,0.76919921875,0.01119220070540905,0.0013611416798084974,0.005542570725083351
1751013396057142300,0.779142333984375,0.012942696921527386,-0.0032237565610557795,0.011842810548841953
1751013396067085300,0.789085205078125,0.012974654324352741,-0.003308711340650916,0.017612548545002937
1751013396077028400,0.7990283203125,0.012769857421517372,-0.00390339526347816,0.01769351027905941
1751013396086971400,0.808971435546875,0.009697102010250092,-0.007449394091963768,0.018006430938839912
1751013396096914200,0.8189140625,0.011040400713682175,-0.007976433262228966,0.013822338543832302
1751013396106857200,0.828857177734375,0.013578658923506737,-0.0070371367037296295,0.01847701147198677
1751013396116800300,0.83880029296875,0.016624782234430313,0.005440571811050177,0.018988072872161865
1751013396126743300,0.848743408203125,0.013999438844621181,0.006048304960131645,0.026578614488244057
1751013396136686300,0.858686279296875,0.017252223566174507,0.009131712839007378,0.027641480788588524
1751013396146630400,0.86863037109375,0.01452914159744978,0.015680426731705666,0.03515665605664253
1751013396156573200,0.8785732421875,0.017832260578870773,0.02069675549864769,0.038244590163230896
1751013396166516200,0.88851611328125,0.021094899624586105,0.027772242203354836,0.04357517510652542
1751013396176459300,0.898459228515625,0.021575067192316055,0.020354274660348892,0.04200097918510437
1751013396186402300,0.90840234375,0.02154310792684555,0.008952216245234013,0.03645308315753937
1751013396196345300,0.918345458984375,0.017299095168709755,-0.005388906225562096,0.033966753631830215
1751013396206288400,0.928288330078125,0.020658407360315323,-0.012492355890572071,0.02588059939444065
1751013396216231400,0.9382314453125,0.01841549202799797,-0.009643838740885258,0.017729463055729866
1751013396226174500,0.948174560546875,0.02202114649116993,0.007592139765620232,0.02028582990169525
1751013396236117200,0.9581171875,0.01570306345820427,0.02123711071908474,0.020810207352042198
1751013396246060300,0.968060302734375,0.016628511250019073,0.02726810611784458,0.017721472308039665
1751013396256003300,0.97800341796875,0.004739894066005945,0.027832962572574615,0.008565258234739304
1751013396265946400,0.9879462890625,-0.008494950830936432,0.015797605738043785,-0.0068027786910533905
1751013396275889400,0.997889404296875,-0.012617258355021477,0.014036989770829678,-0.02213459648191929
1751013396285833500,1.00783349609375,-0.010908840224146843,0.014960041269659996,-0.01871935836970806
1751013396295776300,1.0177763671875,-0.01022760383784771,0.024447819218039513,-0.007822769694030285
1751013396305719600,1.027719482421875,-0.006613161414861679,0.031129157170653343,0.013154684565961361
1751013396315662600,1.03766259765625,-0.003509779926389456,0.033178724348545074,0.03321414440870285
1751013396325605600,1.047605712890625,0.0048738508485257626,0.03948668763041496,0.039435289800167084
1751013396335548700,1.057548583984375,0.012379704043269157,0.03811143338680267,0.03894313797354698
1751013396345491700,1.06749169921875,0.01985972560942173,0.03447674959897995,0.024892833083868027
1751013396355434800,1.077434814453125,0.01793399266898632,0.024897094815969467,0.0028309402987360954
1751013396365377800,1.087377685546875,0.01513128262013197,0.01200819294899702,-0.015036740340292454
1751013396375320600,1.097320556640625,0.0044293696992099285,0.0026586337480694056,-0.02345872111618519
1751013396385263600,1.107263671875,0.004191282670944929,-0.0062800003215670586,-0.022592926397919655
1751013396395206700,1.11720654296875,0.001972603378817439,-0.009198824875056744,-0.0154354153200984
1751013396405149700,1.127149658203125,0.005535114090889692,0.006392118986696005,-0.0027505126781761646
1751013396415092700,1.1370927734375,0.006095442920923233,0.02604678086936474,0.010008958168327808
1751013396425036500,1.14703662109375,0.010322146117687225,0.03832182288169861,0.02353621833026409
1751013396434979600,1.1569794921875,0.010778611525893211,0.04142200946807861,0.02346724271774292
1751013396444922600,1.166922607421875,0.011508317664265633,0.03612231835722923,0.017239173874258995
1751013396454865700,1.17686572265625,0.012065984308719635,0.02732323296368122,0.002776079112663865
1751013396464808700,1.18680859375,0.016343818977475166,0.018213357776403427,-0.008985239081084728
1751013396474751700,1.196751708984375,0.016688166186213493,0.009068596176803112,-0.02062937803566456
1751013396484694500,1.206694580078125,0.0163603313267231,0.004567321389913559,-0.023688551038503647
1751013396494637600,1.216637451171875,0.010735468938946724,-0.0006996124284341931,-0.018003500998020172
1751013396504580600,1.22658056640625,0.0073354109190404415,-0.0002412823960185051,-0.012692359276115894
1751013396514523400,1.2365234375,0.00392842898145318,0.007369765546172857,0.0004442152567207813
1751013396524466400,1.246466552734375,0.002965163439512253,0.012367986142635345,0.008594819344580173
1751013396534409500,1.256409423828125,0.0033388049341738224,0.019628029316663742,0.012783706188201904
1751013396544352500,1.2663525390625,0.001811748486943543,0.018500447273254395,0.012449212372303009
1751013396554295600,1.276295654296875,0.003766775131225586,0.021502096205949783,0.008667523972690105
1751013396564239600,1.286239501953125,-0.0005427522119134665,0.019643209874629974,0.0010351707460358739
1751013396574182400,1.296182373046875,-0.0019118833588436246,0.021015269681811333,-0.006731139495968819
1751013396584125400,1.30612548828125,-0.0024074974935501814,0.030435137450695038,-0.015691345557570457
1751013396594068500,1.316068359375,-0.0008423578692600131,0.031065240502357483,-0.01811854913830757
1751013396604011500,1.326011474609375,0.002129996195435524,0.021462680771946907,-0.02202008105814457
1751013396613954600,1.33595458984375,0.000020240024241502397,0.013582121580839157,-0.021496769040822983
1751013396623897600,1.345897705078125,0.0011262508342042565,0.00971787516027689,-0.01968182623386383
1751013396633840600,1.355840576171875,0.005016063805669546,0.014888402074575424,-0.00805952399969101
1751013396643783700,1.36578369140625,0.004804342519491911,0.019510583952069283,0.005166266113519669
1751013396653726500,1.3757265625,0.00872265174984932,0.01858886517584324,0.013549896888434887
1751013396663669500,1.38566943359375,0.004260258749127388,0.022418223321437836,0.025013208389282227
1751013396673612500,1.395612548828125,0.006470948923379183,0.028186364099383354,0.031092938035726547
1751013396683555600,1.4055556640625,0.0014879080699756742,0.02641296572983265,0.031154990196228027
1751013396693498600,1.41549853515625,-0.001285241567529738,0.02809182181954384,0.026623088866472244
1751013396703442700,1.425442626953125,0.004448810592293739,0.03617984056472778,0.018091918900609016
1751013396713385500,1.435385498046875,0.002412291243672371,0.025527996942400932,0.009385512210428715
1751013396723328500,1.44532861328125,-0.0035337484441697598,0.005106078926473856,0.0067657604813575745
1751013396733271600,1.455271484375,-0.002129996195435524,-0.006728742737323046,-0.007610515225678682
1751013396743214600,1.465214599609375,-0.004043743945658207,-0.006503439508378506,-0.02299266681075096
1751013396753157600,1.47515771484375,-0.0002487392339389771,0.0051873051561415195,-0.02954643964767456
1751013396763100700,1.4851005859375,-0.0007957525085657835,0.017402691766619682,-0.030641265213489532
1751013396773043700,1.495043701171875,-0.0004415521107148379,0.032522790133953094,-0.0249042846262455
1751013396782986800,1.50498681640625,0.006737531162798405,0.04348968714475632,-0.0211819838732481
1751013396792929500,1.514929443359375,0.0109855392947793,0.04369315132498741,-0.011056645773351192
1751013396802872600,1.52487255859375,0.011697402223944664,0.04496800899505615,-0.012342952191829681
1751013396812815600,1.534815673828125,0.010421748273074627,0.033771812915802,-0.008713063783943653
1751013396822758700,1.544758544921875,0.00749227125197649,0.02197001315653324,-0.001484179636463523
1751013396832702700,1.55470263671875,0.007469900418072939,0.015224493108689785,0.013921407982707024
1751013396842645800,1.564645751953125,0.010330934077501297,0.010308297351002693,0.027759458869695663
1751013396852588500,1.574588623046875,0.006518353242427111,0.0040946099907159805,0.03572044521570206
1751013396862531600,1.584531494140625,0.009983924217522144,0.003897003596648574,0.037687722593545914
1751013396872474600,1.594474609375,0.009921606630086899,0.013429522514343262,0.0339885950088501
1751013396882417700,1.604417724609375,0.010509632527828217,0.021822208538651466,0.02882898412644863
1751013396892360700,1.614360595703125,0.013056679628789425,0.02690884657204151,0.013648434542119503
1751013396902303700,1.6243037109375,0.017524398863315582,0.02539324015378952,-0.002287921728566289
1751013396912246800,1.634246826171875,0.01835077814757824,0.023371635004878044,-0.008331699296832085
1751013396922189800,1.64418994140625,0.017975805327296257,0.026267023757100105,-0.012278237380087376
1751013396932132600,1.654132568359375,0.015784289687871933,0.024808943271636963,-0.0065045044757425785
1751013396942075400,1.664075439453125,0.016999224200844765,0.01805383525788784,0.00044661210267804563
1751013396952018400,1.674018310546875,0.013079849071800709,0.01732652634382248,0.012088887393474579
1751013396961962800,1.683962646484375,0.011113370768725872,0.01920085959136486,0.018729746341705322
1751013396971905800,1.69390576171875,0.006146309431642294,0.01864505745470524,0.020855214446783066
1751013396981848800,1.703848876953125,0.014231134206056595,0.015379754826426506,0.017432253807783127
1751013396991791400,1.713791259765625,0.01738458313047886,0.01960565894842148,0.01239381916821003
1751013397001734400,1.723734375,0.015023690648376942,0.025420671328902245,0.006736732088029385
1751013397011677400,1.733677490234375,0.008857407607138157,0.02690378576517105,-0.0031646343413740396
1751013397021620500,1.743620361328125,0.004532434046268463,0.019246133044362068,-0.01047474518418312
1751013397031563500,1.7535634765625,-0.0009411611245013773,0.008653142489492893,-0.012020709924399853
1751013397041506600,1.763506591796875,0.0014865765115246177,0.004190217703580856,-0.013455887325108051
1751013397051449600,1.77344970703125,0.001630387152545154,0.007399593014270067,-0.014085192233324051
1751013397061392600,1.783392578125,0.004378769546747208,0.02087891660630703,-0.013844975270330906
1751013397071335700,1.793335693359375,0.005093828309327364,0.03172410652041435,-0.012690761126577854
1751013397081278500,1.803278564453125,0.009530920535326004,0.030349915847182274,-0.02424968034029007
1751013397091222500,1.813222412109375,0.009278719313442707,0.02913365140557289,-0.03415530547499657
1751013397101165600,1.82316552734375,0.010200705379247665,0.015785621479153633,-0.0472431443631649
1751013397111108600,1.833108642578125,0.010529073886573315,-0.0005107942852191627,-0.05927317589521408
1751013397121051600,1.8430517578125,0.003944407682865858,-0.013319533318281174,-0.061215419322252274
1751013397130994400,1.852994384765625,0.005908489227294922,-0.016566991806030273,-0.04830388352274895
1751013397140937500,1.8629375,0.003677292726933956,-0.0030573089607059956,-0.026791932061314583
1751013397150880500,1.872880615234375,0.0062429821118712425,0.0018785938154906034,-0.015291870571672916
1751013397160823600,1.882823486328125,0.0036389431916177273,0.004372910596430302,-0.0008322378271259367
1751013397170766600,1.8927666015625,0.0021523667965084314,-0.0032083101104944944,-0.010815097019076347
1751013397180709600,1.902709716796875,0.002332396572455764,-0.007473362609744072,-0.018328674137592316
1751013397190652700,1.912652587890625,-0.0018426411552354693,-0.009358881041407585,-0.02291756682097912
1751013397200595700,1.922595703125,-0.0023427826818078756,-0.0036546560004353523,-0.03375130519270897
1751013397210538800,1.932538818359375,0.002144909929484129,0.009259012527763844,-0.03876497223973274
1751013397220482600,1.942482666015625,0.0026114957872778177,0.016217585653066635,-0.04372217878699303
1751013397230425600,1.952425537109375,-0.0012314456980675459,0.017070597037672997,-0.04096687585115433
1751013397240368600,1.96236865234375,-0.007751130498945713,0.015933426097035408,-0.036669064313173294
1751013397250311700,1.972311767578125,-0.010914166457951069,0.015916649252176285,-0.0318218469619751
1751013397260254700,1.982254638671875,-0.011719772592186928,0.01501330453902483,-0.028869464993476868
1751013397270197500,1.992197509765625,-0.0136638805270195,0.008562062866985798,-0.025055818259716034
1751013397280140500,2.002140625,-0.012661999091506004,0.00276169809512794,-0.027089141309261322
1751013397290083600,2.01208349609375,-0.008317585103213787,0.013941382057964802,-0.02425926737487316
1751013397300026600,2.022026611328125,-0.002377137541770935,0.01943947747349739,-0.020840300247073174
1751013397309969400,2.031969482421875,0.00038722361205145717,0.027211647480726242,-0.01315308641642332
1751013397319912400,2.041912353515625,0.0029260150622576475,0.03015230968594551,-0.012057994492352009
1751013397329855500,2.05185546875,0.003183010034263134,0.027351729571819305,-0.011381817981600761
1751013397339798500,2.061798583984375,0.00626002624630928,0.042932555079460144,-0.01366095058619976
1751013397349742300,2.071742431640625,0.003910852130502462,0.034684475511312485,-0.011857724748551846
1751013397359685400,2.081685302734375,-0.00016698020044714212,0.022432871162891388,-0.0177619531750679
1751013397369628400,2.09162841796875,-0.006167348474264145,0.01477441843599081,-0.026209233328700066
1751013397379571500,2.101571533203125,-0.009244098328053951,0.022967366501688957,-0.030417559668421745
1751013397389514500,2.111514404296875,-0.01564474031329155,0.02328135445713997,-0.03297792375087738
1751013397399457500,2.12145751953125,-0.01629694737493992,0.026813771575689316,-0.02455221489071846
1751013397409400600,2.131400634765625,-0.01461942307651043,0.03232331946492195,-0.01588468998670578
1751013397419343400,2.14134326171875,-0.011688081547617912,0.042018823325634,-0.009761816821992397
1751013397429286400,2.151286376953125,-0.00737402681261301,0.04044622555375099,-0.008280034177005291
1751013397439229400,2.1612294921875,-0.002853044541552663,0.040577519685029984,-0.011895807459950447
1751013397449172500,2.17117236328125,0.00390259618870914,0.03260082006454468,-0.011610050685703754
1751013397459115500,2.181115478515625,0.00549330236390233,0.028006067499518394,-0.013464143499732018
1751013397469059600,2.1910595703125,0.007748733274638653,0.021018998697400093,-0.018732141703367233
1751013397479002400,2.20100244140625,0.004507133737206459,0.013413011096417904,-0.02533385157585144
1751013397488945400,2.2109453125,0.00621022516861558,0.010275274515151978,-0.02195722982287407
1751013397498888400,2.220888427734375,0.007907457649707794,0.01871136948466301,-0.010959707200527191
1751013397508831500,2.23083154296875,0.007275223266333342,0.02075534500181675,0.005514607764780521
1751013397518774500,2.2407744140625,0.014082795940339565,0.024358335882425308,0.012407933361828327
1751013397528717600,2.250717529296875,0.017955031245946884,0.02954963594675064,0.017043432220816612
1751013397538660600,2.26066064453125,0.013855894096195698,0.02834189310669899,0.01107528805732727
1751013397548603600,2.270603759765625,0.011424162425100803,0.024932779371738434,-0.0008173241512849927
1751013397558546400,2.28054638671875,0.013202354311943054,0.020904749631881714,-0.012829778715968132
1751013397568489500,2.290489501953125,0.01483274158090353,0.013103551231324673,-0.024094151332974434
1751013397578432500,2.3004326171875,0.012545619159936905,0.00455800024792552,-0.02961115539073944
1751013397588376600,2.31037646484375,0.01158714760094881,0.0054578823037445545,-0.02635197900235653
1751013397598319600,2.320319580078125,0.011136540211737156,0.005784918554127216,-0.01894652657210827
1751013397608262700,2.3302626953125,0.0076030585914850235,0.006050435826182365,-0.00301736150868237
1751013397618205400,2.340205322265625,0.006046440917998552,0.00580728892236948,0.008481902070343494
1751013397628148500,2.3501484375,0.007451258134096861,0.008286958560347557,0.018208831548690796
1751013397638091500,2.360091552734375,0.011652128770947456,0.01812041364610195,0.029293173924088478
1751013397648034600,2.37003466796875,0.013622068800032139,0.03063780441880226,0.03338884934782982
1751013397657977600,2.3799775390625,0.012989035807549953,0.04057565703988075,0.025844380259513855
1751013397667920600,2.389920654296875,0.011097924783825874,0.04368143528699875,0.00920255295932293
1751013397677863400,2.399863525390625,0.0054938350804150105,0.042399387806653976,-0.006094910204410553
1751013397687806500,2.409806396484375,-0.0020666129421442747,0.030398918315768242,-0.01980113610625267
1751013397697749500,2.41974951171875,-0.004929244983941317,0.010416688397526741,-0.0299680195748806
1751013397707693600,2.429693603515625,-0.007948470301926136,-0.008643022738397121,-0.030237797647714615
1751013397717636600,2.43963671875,-0.008681905455887318,-0.016892964020371437,-0.019692212343215942
1751013397727579400,2.449579345703125,-0.006088785361498594,-0.017105750739574432,-0.0032948628067970276
1751013397737522400,2.4595224609375,-0.005072256550192833,-0.013338175602257252,0.008143147453665733
1751013397747465500,2.469465576171875,-0.0030575753189623356,-0.009661149233579636,0.015179751440882683
1751013397757408300,2.479408203125,0.004472246393561363,-0.001933454885147512,0.02257508412003517
1751013397767351300,2.489351318359375,0.006201969459652901,0.010356500744819641,0.02395300380885601
1751013397777294300,2.49929443359375,0.01261006761342287,0.019813917577266693,0.013965616934001446
1751013397787237400,2.5092373046875,0.018618691712617874,0.024755945429205894,-0.00025513084256090224
1751013397797180400,2.519180419921875,0.024822525680065155,0.015114770270884037,-0.016625581309199333
1751013397807123500,2.52912353515625,0.025123462080955505,0.006472280248999596,-0.026632675901055336
1751013397817066500,2.53906640625,0.02358229085803032,-0.00669438811019063,-0.029807429760694504
1751013397827010300,2.54901025390625,0.019183814525604248,-0.014358166605234146,-0.027901405468583107
1751013397836953300,2.558953369140625,0.013295033015310764,-0.020246416330337524,-0.01944560371339321
1751013397846896400,2.568896484375,0.012310994789004326,-0.016343818977475166,-0.006669354159384966
1751013397856839400,2.57883935546875,0.0060110208578407764,-0.00818016566336155,0.009424660354852676
1751013397866782500,2.588782470703125,0.00899642426520586,0.0011827098205685616,0.023244336247444153
1751013397876725500,2.5987255859375,0.00965928565710783,0.014154701493680477,0.03093288280069828
1751013397886668500,2.60866845703125,0.014077203348279,0.018702048808336258,0.021331122145056725
1751013397896611300,2.618611328125,0.015590677969157696,0.022776152938604355,-0.012479039840400219
1751013397906554400,2.628554443359375,0.01555259432643652,0.030940072610974312,-0.05657965689897537
1751013397916497400,2.638497314453125,0.01182390283793211,0.02604891173541546,-0.09669724851846695
1751013397926440400,2.6484404296875,0.01007899921387434,0.0011472897604107857,-0.12573449313640594
1751013397936383500,2.658383544921875,0.006404635962098837,-0.01848047412931919,-0.12288916856050491
1751013397946327600,2.66832763671875,0.0005872269975952804,-0.025782328099012375,-0.0927019715309143
1751013397956270300,2.678270263671875,-0.001910019083879888,-0.02088956907391548,-0.05139954015612602
1751013397966213400,2.68821337890625,-0.004396612755954266,-0.008445949293673038,-0.005258944351226091
1751013397976156400,2.698156494140625,-0.003263970138505101,0.0023121563717722893,0.025258485227823257
1751013397986099500,2.708099365234375,0.0032687638886272907,0.008384429849684238,0.05084959790110588
1751013397996042500,2.71804248046875,0.007700263988226652,0.01497921533882618,0.05272180214524269
1751013398005985500,2.727985595703125,0.010634268634021282,0.017167801037430763,0.043469447642564774
1751013398015928600,2.737928466796875,0.011923238635063171,0.01606232300400734,0.028365595266222954
1751013398025871600,2.74787158203125,0.013963486067950726,0.012800217606127262,0.006429669912904501
1751013398035814400,2.757814453125,0.010361027903854847,0.012494220398366451,-0.00962546281516552
1751013398045757400,2.76775732421875,0.008560731075704098,0.016290822997689247,-0.019283151254057884
1751013398055700500,2.777700439453125,0.004199805203825235,0.01540718600153923,-0.023984428495168686
1751013398065644500,2.78764453125,-0.0016756609547883272,0.011932026594877243,-0.01780935749411583
1751013398075587600,2.797587646484375,-0.009768741205334663,0.006381466519087553,-0.004597681108862162
1751013398085530600,2.807530517578125,-0.009253153577446938,0.007429154124110937,0.02075587771832943
1751013398095473400,2.817473388671875,-0.010348244570195675,0.010336793027818203,0.0387580469250679
1751013398105416400,2.82741650390625,-0.010424410924315453,0.011237474158406258,0.04364175349473953
1751013398115359500,2.837359375,-0.0091745899990201,0.01763704977929592,0.027721907943487167
1751013398125302500,2.847302490234375,-0.0041457428596913815,0.02846386469900608,0.005983323790132999
1751013398135245600,2.85724560546875,-0.004185423720628023,0.034690868109464645,-0.011116300709545612
1751013398145188600,2.867188720703125,-0.0028581044171005487,0.03266207128763199,-0.024232102558016777
1751013398155131600,2.877131591796875,-0.003325489116832614,0.02797357738018036,-0.029470806941390038
1751013398165074700,2.88707470703125,-0.005813680589199066,0.01164520438760519,-0.019000057131052017
1751013398175017500,2.897017578125,-0.004715925548225641,0.010208961553871632,-0.002960103563964367
1751013398184961500,2.90696142578125,-0.008657670579850674,0.009216668084263802,0.019097793847322464
1751013398194904600,2.916904541015625,-0.012800750322639942,0.007917843759059906,0.034157171845436096
1751013398204847600,2.92684765625,-0.010558368638157845,0.0046935551799833775,0.03488314896821976
1751013398214790700,2.936790771484375,-0.009153550490736961,0.003266633255407214,0.02316257730126381
1751013398224733700,2.946733642578125,-0.008254201151430607,0.012269982136785984,-0.0003296993381809443
1751013398234676500,2.956676513671875,-0.008143946528434753,0.02948252484202385,-0.02099156752228737
1751013398244619300,2.966619384765625,-0.005834186915308237,0.04602421820163727,-0.03693325072526932
1751013398254562300,2.976562255859375,-0.007817708887159824,0.05186453089118004,-0.04996063560247421
1751013398264505300,2.98650537109375,-0.012386095710098743,0.047502804547548294,-0.057800982147455215
1751013398274448400,2.996448486328125,-0.012690761126577854,0.03531324863433838,-0.05024692416191101
1751013398284391400,3.006391357421875,-0.013134177774190903,0.023508520796895027,-0.03495638445019722
1751013398294335500,3.01633544921875,-0.008852081373333931,0.016174176707863808,0.0025422535836696625
1751013398304278300,3.0262783203125,-0.006423544604331255,0.016927052289247513,0.03814765065908432
1751013398314225000,3.036224853515625,-0.00510021997615695,0.018330005928874016,0.06779742240905762
1751013398324168000,3.04616796875,-0.002915362361818552,0.021133780479431152,0.08058272302150726
1751013398334111000,3.056111083984375,-0.002531068166717887,0.028382372111082077,0.07221507281064987
1751013398344054000,3.066053955078125,-0.004575044382363558,0.027585288509726524,0.048586975783109665
1751013398353997000,3.0759970703125,-0.0005789712304249406,0.029699038714170456,0.013794908300042152
1751013398363940000,3.085940185546875,-0.00367143377661705,0.029225796461105347,-0.015156315639615059
1751013398373883100,3.095883056640625,0.0008711199625395238,0.035294607281684875,-0.035655464977025986
1751013398383826000,3.105825927734375,0.005306880921125412,0.03802195191383362,-0.037454698234796524
1751013398393769000,3.11576904296875,0.002552906284108758,0.03338884934782982,-0.030647125095129013
1751013398403713000,3.125713134765625,0.004406199790537357,0.028379444032907486,-0.019220300018787384
1751013398413656000,3.135656005859375,0.0023467775899916887,0.028978388756513596,-0.007049920037388802
1751013398423599000,3.14559912109375,0.004223507363349199,0.032159801572561264,0.0041313618421554565
1751013398433542000,3.1555419921875,0.0039044604636728764,0.03563549369573593,0.013827398419380188
1751013398443485000,3.16548486328125,0.00461712246760726,0.034448519349098206,0.016086557880043983
1751013398453428000,3.175427978515625,0.007847802713513374,0.0323861688375473,0.017842913046479225
1751013398463371000,3.18537109375,0.009907225146889687,0.030486803501844406,0.013616742566227913
1751013398473314000,3.19531396484375,0.010445716790854931,0.023517044261097908,0.012177570722997189
1751013398483257000,3.205257080078125,0.006055229343473911,0.005178783088922501,0.004089550115168095
1751013398493200100,3.2152001953125,0.0060293967835605145,-0.003465305082499981,-0.0028943235520273447
1751013398503143200,3.22514306640625,0.004625910893082619,-0.009105348028242588,-0.006554305553436279
1751013398513086200,3.235086181640625,-0.0002993392990902066,-0.0016977651976048946,-0.006958573590964079
1751013398523030000,3.245030029296875,-0.002558765234425664,0.008504805155098438,-0.0025451830588281155
1751013398532973000,3.25497314453125,-0.001002680161036551,0.021922608837485313,-0.002978213131427765
1751013398542916000,3.264916015625,0.0018692727899178863,0.025921344757080078,-0.0037121803034096956
1751013398552859100,3.274859130859375,0.0012207929976284504,0.02413170225918293,-0.006473878398537636
1751013398562802200,3.28480224609375,-0.0001757686259225011,0.021404357627034187,-0.007592139765620232
1751013398572745000,3.294744873046875,0.0009893643436953425,0.017472466453909874,-0.0070368703454732895
1751013398582687700,3.304687744140625,-0.00041092574247159064,0.007280017249286175,-0.002360093407332897
1751013398592630800,3.314630859375,-0.002357163932174444,0.004848284646868706,0.004731638357043266
1751013398602573800,3.32457373046875,-0.0048826392740011215,0.002496979897841811,0.004997687879949808
1751013398612516900,3.334516845703125,-0.0089391665533185,0.0016636766958981752,0.008829444646835327
1751013398622460000,3.3444599609375,-0.010407633148133755,0.0037944719661027193,0.0028037759475409985
1751013398632404000,3.354404052734375,-0.01335921511054039,0.00800333172082901,-0.003466636873781681
1751013398642346800,3.3643466796875,-0.011832957156002522,0.013277456164360046,-0.009587912820279598
1751013398652289800,3.374289794921875,-0.014050304889678955,0.018138257786631584,-0.007729292381554842
1751013398662232800,3.38423291015625,-0.012940832413733006,0.021624336019158363,-0.0006572681595571339
1751013398672175900,3.39417578125,-0.006325007416307926,0.026732811704277992,0.01666366495192051
1751013398682119000,3.404118896484375,-0.0034498588647693396,0.026763437315821648,0.03777347877621651
1751013398692062000,3.41406201171875,0.001948368619196117,0.019530557096004486,0.04767031595110893
1751013398702005000,3.4240048828125,0.007504521403461695,0.008562329225242138,0.04493338614702225
1751013398711948000,3.433947998046875,0.009956227615475655,-0.006425675004720688,0.025201493874192238
1751013398721890800,3.443890869140625,0.008806008845567703,-0.022964438423514366,0.01002360600978136
1751013398731833900,3.453833740234375,0.008697085082530975,-0.037213679403066635,0.004864263813942671
1751013398741778000,3.46377783203125,0.017366472631692886,-0.041655033826828,0.004286624025553465
1751013398751721000,3.473720947265625,0.02407550811767578,-0.030303044244647026,0.0031396006233990192
1751013398761664000,3.4836640625,0.026564765721559525,-0.01642770878970623,-0.004854143597185612
1751013398771607000,3.49360693359375,0.029938191175460815,-0.006563626695424318,-0.020736437290906906
1751013398781549800,3.5035498046875,0.03443334251642227,-0.016819993034005165,-0.03810930252075195
1751013398791492900,3.513492919921875,0.034619495272636414,-0.019111376255750656,-0.04254665970802307
1751013398801436000,3.523435791015625,0.034824028611183167,-0.023684024810791016,-0.032825056463479996
1751013398811379000,3.53337890625,0.03545359894633293,-0.01588362455368042,-0.0007350324303843081
1751013398821322000,3.543322021484375,0.03930239751935005,-0.01022653840482235,0.025423601269721985
1751013398831265000,3.55326513671875,0.04182068258523941,-0.00036724991514347494,0.0423639677464962
1751013398841208000,3.5632080078125,0.03880225494503975,0.006488259416073561,0.03392520919442177
1751013398851151000,3.573151123046875,0.03289776295423508,0.009416671469807625,0.008044078014791012
1751013398861095000,3.583094970703125,0.028329908847808838,0.012662265449762344,-0.021827533841133118
1751013398871038000,3.593037841796875,0.020536433905363083,0.007829693146049976,-0.045158423483371735
1751013398880981000,3.60298095703125,0.013112340122461319,-0.005259476602077484,-0.05535833165049553
1751013398890924000,3.612924072265625,0.0070949275977909565,-0.012958409264683723,-0.04752464219927788
1751013398900867000,3.6228671875,0.002823483431711793,-0.0043803672306239605,-0.030233269557356834
1751013398910810000,3.63281005859375,-0.0010599381057545543,0.009999371133744717,-0.024042751640081406
1751013398920753000,3.6427529296875,-0.0006391586503013968,0.033665817230939865,-0.018379805609583855
1751013398930696000,3.652696044921875,0.0026442527305334806,0.05541239306330681,-0.018976354971528053
1751013398940639000,3.662638916015625,0.009344233199954033,0.06678755581378937,-0.016317719593644142
1751013398950582000,3.67258203125,0.01788019761443138,0.07075752317905426,-0.020051738247275352
1751013398960526000,3.682526123046875,0.018256235867738724,0.06645732372999191,-0.030360301956534386
1751013398970469000,3.69246923828125,0.02171514928340912,0.05711868032813072,-0.05059926211833954
1751013398980412000,3.702411865234375,0.016630908474326134,0.03766215592622757,-0.06778889894485474
1751013398990355000,3.71235498046875,0.009225189685821533,0.024019315838813782,-0.08023731410503387
1751013399000298000,3.722298095703125,0.0042733084410429,0.014873487874865532,-0.08778364956378937
1751013399010241000,3.732240966796875,-0.002656769473105669,0.006013683974742889,-0.07791929692029953
1751013399020184000,3.74218408203125,-0.0020066918805241585,0.0022482406347990036,-0.053946323692798615
1751013399030127000,3.752127197265625,0.0011853729374706745,0.011918178759515285,-0.021338578313589096
1751013399040070100,3.762070068359375,0.005393167492002249,0.03292812407016754,0.006023005116730928
1751013399050013200,3.77201318359375,0.01275547593832016,0.050672497600317,0.018398448824882507
1751013399059956000,3.7819560546875,0.018684471026062965,0.049971554428339005,0.005921538453549147
1751013399069899000,3.79189892578125,0.016458867117762566,0.05197638273239136,-0.02327602729201317
1751013399079843000,3.801843017578125,0.011653993278741837,0.044562939554452896,-0.062314774841070175
1751013399089786000,3.8117861328125,0.009615076705813408,0.03315981850028038,-0.0924638882279396
1751013399099729200,3.821729248046875,0.00902944803237915,0.02960050292313099,-0.09984004497528076
1751013399109672200,3.831672119140625,0.012084625661373138,0.028077440336346626,-0.08937728404998779
1751013399119615000,3.841614990234375,0.00959803257137537,0.02040220983326435,-0.06823790818452835
1751013399129558000,3.85155810546875,0.006909571588039398,0.001871136948466301,-0.05119873955845833
1751013399139500800,3.861500732421875,0.006708236411213875,-0.0157717727124691,-0.03375450149178505
1751013399149443800,3.87144384765625,0.017887653782963753,-0.02834508940577507,-0.020664798095822334
1751013399159387000,3.881386962890625,0.022419022396206856,-0.026089923456311226,-0.01944054290652275
1751013399169330000,3.891329833984375,0.03298138454556465,-0.018266888335347176,-0.021509552374482155
1751013399179274000,3.90127392578125,0.0375383198261261,-0.014134993776679039,-0.033226128667593
1751013399189217000,3.911217041015625,0.03949015215039253,-0.011244931258261204,-0.042928293347358704
1751013399199159800,3.921159912109375,0.04247262701392174,-0.015249260701239109,-0.05199076235294342
1751013399209102800,3.931102783203125,0.03869945928454399,-0.014460165984928608,-0.05495939031243324
1751013399219046000,3.9410458984375,0.032575786113739014,-0.006850183010101318,-0.057561565190553665
1751013399228989000,3.950989013671875,0.025604695081710815,-0.002341717481613159,-0.050747066736221313
1751013399238932000,3.960931884765625,0.014632471837103367,0.006716492120176554,-0.038903988897800446
1751013399248875000,3.970875,0.003959587775170803,0.011513111181557178,-0.024388696998357773
1751013399258817800,3.98081787109375,-0.001975000137463212,0.013285178691148758,-0.014871091581881046
1751013399268760800,3.9907607421875,0.002065015025436878,0.016202671453356743,-0.008475776761770248
1751013399278703900,4.000703857421875,0.000609863898716867,0.019053319469094276,-0.01130831427872181
1751013399288648000,4.01064794921875,0.0015214639715850353,0.02166454866528511,-0.026762371882796288
1751013399298591000,4.020591064453125,0.00999457761645317,0.02461453340947628,-0.04550490155816078
1751013399308530700,4.03053076171875,0.01019591186195612,0.02256922423839569,-0.07335490733385086
1751013399318473500,4.040473388671875,0.01278796698898077,0.014300642535090446,-0.10200732201337814
1751013399328416500,4.05041650390625,0.011579956859350204,-0.0038211036007851362,-0.12311900407075882
1751013399338359300,4.060359375,0.010086989030241966,-0.017489511519670486,-0.1293952763080597
1751013399348302300,4.07030224609375,0.0003153182624373585,-0.030432740226387978,-0.11870667338371277
1751013399358245400,4.080245361328125,-0.00029108350281603634,-0.03531245142221451,-0.09760485589504242
1751013399368188400,4.0901884765625,-0.006985471583902836,-0.04855421930551529,-0.07496505230665207
1751013399378131500,4.10013134765625,-0.009131979197263718,-0.05257799103856087,-0.04982747882604599
1751013399388074500,4.110074462890625,-0.009859554469585419,-0.05627232789993286,-0.03755509853363037
1751013399398018300,4.120018310546875,-0.007983091287314892,-0.04843997210264206,-0.027953870594501495
1751013399407961300,4.12996142578125,-0.008839830756187439,-0.029682794585824013,-0.02899463288486004
1751013399417904400,4.139904296875,-0.016621854156255722,-0.01458959560841322,-0.03620647266507149
1751013399427847400,4.149847412109375,-0.027635356411337852,-0.011561847291886806,-0.05510319769382477
1751013399437790500,4.15979052734375,-0.03430444374680519,-0.010453173890709877,-0.0646575540304184
1751013399447733500,4.1697333984375,-0.047206927090883255,-0.018460499122738838,-0.06392917782068253
1751013399457676300,4.17967626953125,-0.057426806539297104,-0.021385716274380684,-0.045162949711084366
1751013399467619300,4.189619384765625,-0.057973820716142654,-0.021498100832104683,-0.010722152888774872
1751013399477562400,4.199562255859375,-0.06071394681930542,-0.024539964273571968,0.02431732416152954
1751013399487505400,4.20950537109375,-0.0604737289249897,-0.023062175139784813,0.05229942500591278
1751013399497449500,4.219449462890625,-0.05585633963346481,-0.01721946708858013,0.06363410502672195
1751013399507392500,4.229392578125,-0.05082616209983826,-0.009998039342463017,0.04869723320007324
1751013399517335300,4.239335205078125,-0.0440974198281765,-0.011124024167656898,0.016278039664030075
1751013399527278300,4.2492783203125,-0.043242279440164566,-0.0179385207593441,-0.02630537375807762
1751013399537221400,4.259221435546875,-0.040775127708911896,-0.018192851915955544,-0.06318349391222
1751013399547164400,4.269164306640625,-0.03467568755149841,-0.015894809737801552,-0.0866592600941658
1751013399557107500,4.279107421875,-0.030235400423407555,-0.007297594100236893,-0.08053665608167648
1751013399567050500,4.289050537109375,-0.02436659298837185,0.007036071736365557,-0.05486777424812317
1751013399576993500,4.29899365234375,-0.02050953544676304,0.02249785140156746,-0.022647522389888763
1751013399586936600,4.3089365234375,-0.01926477439701557,0.029675602912902832,0.005644835997372866
1751013399596879400,4.31887939453125,-0.022654712200164795,0.027534687891602516,0.021385982632637024
1751013399606823400,4.328823486328125,-0.02305498532950878,0.02550749108195305,0.022731145843863487
1751013399616766500,4.338766357421875,-0.026037726551294327,0.026247849687933922,0.012806609272956848
1751013399626709500,4.34870947265625,-0.026455042883753777,0.015023957006633282,0.004009655211120844
1751013399636652500,4.358652587890625,-0.030829550698399544,0.011648932471871376,-0.004583300091326237
1751013399646595600,4.368595703125,-0.02858583815395832,0.012255334295332432,-0.008920524269342422
1751013399656538400,4.378538330078125,-0.02773655578494072,0.012920059263706207,-0.01073653344064951
1751013399666481400,4.3884814453125,-0.029137112200260162,0.012396748177707195,-0.006866960786283016
1751013399676424400,4.398424560546875,-0.0287642702460289,0.01619335077702999,0.001418665866367519
1751013399686367500,4.408367431640625,-0.028751220554113388,0.03862675279378891,0.01708471029996872
1751013399696310500,4.418310546875,-0.0232952032238245,0.045946184545755386,0.03590287268161774
1751013399706253600,4.428253662109375,-0.015567507594823837,0.05254283547401428,0.04417997971177101
1751013399716197400,4.438197265625,-0.01047501154243946,0.05597511678934097,0.043292079120874405
1751013399726140400,4.448140380859375,-0.004341751337051392,0.05194229260087013,0.03410497307777405
1751013399736083500,4.45808349609375,0.00395612558349967,0.0418744795024395,0.01588628813624382
1751013399746026500,4.468026611328125,0.011566108092665672,0.01973135955631733,-0.001570998691022396
1751013399755969500,4.477969482421875,0.012460132129490376,-0.000007456851108145202,-0.01483220886439085
1751013399765912600,4.48791259765625,0.02286323718726635,-0.010657704435288906,-0.013846040703356266
1751013399775855600,4.497855712890625,0.02877012826502323,-0.011719506233930588,-0.008508266881108284
1751013399785798700,4.507798583984375,0.028845496475696564,-0.01022600568830967,0.004804875236004591
1751013399795741400,4.517741455078125,0.03436063602566719,-0.00504003232344985,0.020352143794298172
1751013399805684500,4.5276845703125,0.03597104921936989,0.0015472965314984322,0.041061948984861374
1751013399815628500,4.537628662109375,0.03489433601498604,0.01649641804397106,0.054004378616809845
1751013399825571600,4.547571533203125,0.038970302790403366,0.031024761497974396,0.05880312994122505
1751013399835514600,4.5575146484375,0.039870984852313995,0.04952121526002884,0.06553666293621063
1751013399845457700,4.567457763671875,0.039143938571214676,0.059783972799777985,0.05745423957705498
1751013399855400400,4.577400390625,0.041249435395002365,0.06077653169631958,0.05103069171309471
1751013399865343500,4.587343505859375,0.0362301766872406,0.0474117249250412,0.03779904544353485
1751013399875286500,4.59728662109375,0.030823159962892532,0.028627384454011917,0.03009372018277645
1751013399885229600,4.6072294921875,0.024457672610878944,0.004789162427186966,0.01805436797440052
1751013399895172400,4.61717236328125,0.021099159494042397,-0.012377574108541012,0.014943795278668404
1751013399905115400,4.627115478515625,0.02021259441971779,-0.015171762555837631,0.0071007865481078625
1751013399915059500,4.6370595703125,0.02267681621015072,-0.0089378347620368,0.004341751337051392
1751013399925002500,4.64700244140625,0.01800030656158924,-0.0025779400020837784,-0.000672448193654418
1751013399934945500,4.656945556640625,0.018206700682640076,-0.004366785287857056,0.0007273092633113265
1751013399944888600,4.666888671875,0.018701249733567238,-0.008790295571088791,0.0017033577896654606
1751013399954831400,4.676831298828125,0.0244334377348423,-0.014385064132511616,0.012662531808018684
1751013399964774400,4.6867744140625,0.028115790337324142,-0.016324112191796303,0.023545805364847183
1751013399974717400,4.696717529296875,0.0354277640581131,-0.003649862250313163,0.030533941462635994
1751013399984660500,4.706660400390625,0.038905587047338486,0.01787886582314968,0.028015123680233955
1751013399994603500,4.716603515625,0.04586868733167648,0.03340935707092285,0.00866379588842392
1751013400004546300,4.72654638671875,0.042816173285245895,0.038358572870492935,-0.024871528148651123
1751013400014489300,4.7364892578125,0.03471323847770691,0.034396324306726456,-0.05860046297311783
1751013400024433400,4.746433349609375,0.02467205747961998,0.022770825773477554,-0.08195319026708603
1751013400034376400,4.75637646484375,0.01697179302573204,0.012918195687234402,-0.07508356869220734
1751013400044319500,4.766319580078125,0.009312807582318783,0.00615190202370286,-0.05102669820189476
1751013400054262300,4.77626220703125,-0.0008849684381857514,-0.0001395496365148574,-0.005823001731187105
1751013400064205300,4.786205322265625,-0.012718192301690578,0.003484213724732399,0.03654682636260986
1751013400074148400,4.7961484375,-0.017357418313622475,0.012252938002347946,0.07653471827507019
1751013400084091400,4.80609130859375,-0.015858856961131096,0.030546722933650017,0.09426338225603104
1751013400094034400,4.816034423828125,-0.015839150175452232,0.046057771891355515,0.08966304361820221
1751013400103977500,4.8259775390625,-0.014621553011238575,0.06470070034265518,0.06397685408592224
1751013400113920500,4.83592041015625,-0.012471850030124187,0.08454124629497528,0.03008519858121872
1751013400123864300,4.8458642578125,-0.009469668380916119,0.10167469829320908,0.004960403777658939
1751013400133807400,4.855807373046875,0.003501257859170437,0.08056701719760895,-0.01702532172203064
1751013400143750400,4.86575048828125,0.006903179921209812,0.07138523459434509,-0.036022450774908066
1751013400153693400,4.875693359375,0.0014261227333918214,0.04054050147533417,-0.045334458351135254
1751013400163636500,4.885636474609375,-0.0015611450653523207,0.011313374154269695,-0.04975290969014168
1751013400173579500,4.89557958984375,0.0012444951571524143,-0.014007695019245148,-0.044205810874700546
1751013400183522600,4.9055224609375,0.007400392089039087,-0.03160186856985092,-0.02544836886227131
1751013400193465300,4.91546533203125,0.01139966119080782,-0.03117496334016323,-0.01203961856663227
1751013400203408400,4.925408447265625,0.017965683713555336,-0.018066352233290672,0.001198955113068223
1751013400213351400,4.935351318359375,0.029164277017116547,0.0017070862231776118,0.0005496764206327498
1751013400223295500,4.94529541015625,0.03777720779180527,0.015514777041971684,-0.009646768681704998
1751013400233238500,4.955238525390625,0.0437924861907959,0.02262861281633377,-0.023077888414263725
1751013400243181600,4.965181640625,0.04705645889043808,0.03256779536604881,-0.037648044526576996
1751013400253124400,4.975124267578125,0.04602235183119774,0.03519740328192711,-0.04626896232366562
1751013400263067400,4.9850673828125,0.0443594753742218,0.033367808908224106,-0.0498913936316967
1751013400273010400,4.995010498046875,0.043821781873703,0.01762213744223118,-0.04908711835741997
1751013400282953500,5.004953369140625,0.03281120955944061,0.010164220817387104,-0.0460260808467865
1751013400292896500,5.014896484375,0.029648173600435257,0.010838000103831291,-0.031383223831653595
1751013400302839600,5.024839599609375,0.018685270100831985,0.01577523536980152,-0.007367901504039764
1751013400312783400,5.034783447265625,0.013231117278337479,0.01943841204047203,0.015194132924079895
1751013400322727200,5.04472705078125,0.012437760829925537,0.019109511747956276,0.03748905286192894
1751013400332670200,5.054670166015625,0.009044627659022808,0.01576405018568039,0.048292431980371475
1751013400342613200,5.06461328125,0.010596717707812786,0.015556855127215385,0.0409008264541626
1751013400352556300,5.074556396484375,0.020624319091439247,0.013102219440042973,0.0256318598985672
1751013400362499300,5.084499267578125,0.027638019993901253,0.017246898263692856,0.004740426782518625
1751013400372442400,5.0944423828125,0.0331995002925396,0.031806133687496185,-0.012897688895463943
1751013400382385200,5.10438525390625,0.04255704581737518,0.04368782415986061,-0.02652668207883835
1751013400392328200,5.114328125,0.048171523958444595,0.040528517216444016,-0.02979091927409172
1751013400402271200,5.124271240234375,0.04812678322196007,0.027247600257396698,-0.02232368104159832
1751013400412214300,5.13421435546875,0.041313618421554565,0.004770786967128515,-0.010119745507836342
1751013400422158300,5.144158447265625,0.03489460051059723,-0.020972393453121185,-0.00227886694483459
1751013400432101400,5.154101318359375,0.026143454015254974,-0.03845338150858879,0.001901230658404529
1751013400442044200,5.164044189453125,0.01732918992638588,-0.03710662201046944,0.01047421246767044
1751013400451987200,5.1739873046875,0.015534218400716782,-0.02166534774005413,0.01583489030599594
1751013400461930200,5.18393017578125,0.007179882377386093,-0.005307679995894432,0.01137036643922329
1751013400471873300,5.193873291015625,0.0072930664755403996,0.012461995705962181,0.0038988678716123104
1751013400481816300,5.20381640625,0.01062095258384943,0.025480059906840324,-0.0008671252289786935
1751013400491759400,5.21375927734375,0.005225654691457748,0.03274889290332794,-0.0111059146001935
1751013400501702400,5.223702392578125,-0.0004593952908180654,0.02652828022837639,-0.026668362319469452
1751013400511645400,5.2336455078125,-0.0043774377554655075,0.006558566819876432,-0.03995620459318161
1751013400521588200,5.243588134765625,-0.008445150218904018,-0.0190780870616436,-0.047519583255052567
1751013400531532300,5.2535322265625,-0.006322877015918493,-0.03808533400297165,-0.041011083871126175
1751013400541475300,5.263475341796875,-0.0035201662685722113,-0.057887002825737,-0.017138240858912468
1751013400551418400,5.27341845703125,-0.0033507891930639744,-0.060267068445682526,0.011349593289196491
1751013400561361400,5.283361328125,0.0012247877893969417,-0.06556063145399094,0.03549354523420334
1751013400571304400,5.293304443359375,-0.0011182613670825958,-0.06855615973472595,0.0454481765627861
1751013400581247200,5.303247314453125,-0.010047308169305325,-0.07013807445764542,0.044744834303855896
1751013400591190300,5.313190185546875,-0.02099902555346489,-0.06713509559631348,0.05114254727959633
1751013400601133000,5.323133056640625,-0.027963723987340927,-0.05011270195245743,0.06962621212005615
1751013400611076000,5.333076171875,-0.03507835790514946,-0.02612161450088024,0.0836845114827156
1751013400621019100,5.34301904296875,-0.034930285066366196,-0.008710134774446487,0.10748997330665588
1751013400630963200,5.352963134765625,-0.04024329409003258,0.014597051776945591,0.11174357682466507
1751013400640906200,5.36290625,-0.05042349174618721,0.021018732339143753,0.09285350888967514
1751013400650849300,5.372849365234375,-0.060867611318826675,0.02611842006444931,0.047271642833948135
1751013400660792000,5.3827919921875,-0.0719146728515625,0.01599814184010029,-0.012489426881074905
1751013400670735000,5.392735107421875,-0.08683370053768158,0.011720305308699608,-0.0759325847029686
1751013400680678100,5.40267822265625,-0.09284605085849762,0.0228579118847847,-0.12827807664871216
1751013400690621200,5.41262109375,-0.08920497447252274,0.047138482332229614,-0.15860483050346375
1751013400700564200,5.422564208984375,-0.08669095486402512,0.07584762573242188,-0.15923865139484406
1751013400710507300,5.43250732421875,-0.08077394217252731,0.08997649699449539,-0.13757064938545227
1751013400720451000,5.442451171875,-0.08223947882652283,0.0804692730307579,-0.10007839649915695
1751013400730394000,5.45239404296875,-0.08717431873083115,0.044973865151405334,-0.06464077532291412
1751013400740337200,5.462337158203125,-0.0879405066370964,0.000218645524000749,-0.039988163858652115
1751013400750280200,5.4722802734375,-0.08693436533212662,-0.017197096720337868,-0.030052972957491875
1751013400760223200,5.48222314453125,-0.06979852169752121,-0.030410103499889374,-0.02900821529328823
1751013400770166300,5.492166259765625,-0.051601409912109375,-0.022114889696240425,-0.03662965074181557
1751013400780109000,5.502109130859375,-0.04012931138277054,-0.01558401994407177,-0.055684033781290054
1751013400790052000,5.512052001953125,-0.03621606156229973,-0.018642660230398178,-0.05910992622375488
1751013400799995100,5.5219951171875,-0.024640897288918495,-0.01702106185257435,-0.03954208269715309
1751013400809938200,5.531938232421875,-0.006050435826182365,-0.023181485012173653,0.011263040825724602
1751013400819881200,5.541881103515625,0.002046905690804124,-0.029146965593099594,0.07208751142024994
1751013400829825300,5.5518251953125,0.01122176181524992,-0.03128521889448166,0.13798609375953674
1751013400839768000,5.56176806640625,0.021625135093927383,-0.026071548461914062,0.1845296323299408
1751013400849711000,5.571711181640625,0.0303973201662302,-0.017014402896165848,0.19997623562812805
1751013400859654100,5.581654052734375,0.029935527592897415,-0.0122441491112113,0.18665163218975067
1751013400869597200,5.59159716796875,0.03217710927128792,-0.013218600302934647,0.15172773599624634
1751013400879540200,5.601540283203125,0.03612018749117851,-0.014809572137892246,0.1033218577504158
1751013400889483300,5.611483154296875,0.027965055778622627,-0.005106344819068909,0.06411053985357285
1751013400899426300,5.62142626953125,0.02528298646211624,0.0065111625008285046,0.022302109748125076
1751013400909369300,5.631369384765625,0.0167949590831995,0.007292001508176327,-0.0215939749032259
1751013400919312100,5.64131201171875,0.01564766839146614,0.009340505115687847,-0.05645954608917236
1751013400929256200,5.651256103515625,0.013432984240353107,0.013700632378458977,-0.07918856292963028
1751013400939199200,5.66119921875,0.00862997304648161,0.014095579273998737,-0.09587646275758743
1751013400949142300,5.671142333984375,0.007564975414425135,0.01119220070540905,-0.10055962949991226
1751013400959085300,5.681085205078125,0.00040613205055706203,0.0019315907265990973,-0.09492544829845428
1751013400969028400,5.6910283203125,-0.008024903014302254,-0.009647301398217678,-0.07843568921089172
1751013400978971100,5.70097119140625,-0.012688098475337029,-0.01810363680124283,-0.060144830495119095
1751013400988914200,5.7109140625,-0.011326690204441547,-0.023674435913562775,-0.043651871383190155
1751013400998857200,5.720857177734375,-0.003748931922018528,-0.021836057305336,-0.027819113805890083
1751013401008800300,5.73080029296875,0.01329849474132061,-0.024945029988884926,-0.018818428739905357
1751013401018743300,5.740743408203125,0.02918558195233345,-0.02496926486492157,-0.009433715604245663
1751013401028687400,5.750687255859375,0.0441240519285202,-0.0178208090364933,-0.014165620319545269
1751013401038630100,5.760630126953125,0.05654982849955559,-0.010495783761143684,-0.01010696217417717
1751013401048573200,5.7705732421875,0.0643068179488182,-0.009228385984897614,-0.0004295678809285164
1751013401058516200,5.78051611328125,0.07245129346847534,-0.003073021536692977,0.013075055554509163
1751013401068459300,5.790459228515625,0.08421926945447922,0.0092923017218709,0.026490729302167892
1751013401078402300,5.80040234375,0.09101273119449615,0.009543703868985176,0.040771931409835815
1751013401088345300,5.810345458984375,0.08623688668012619,0.005310076754540205,0.0549015998840332
1751013401098288400,5.820288330078125,0.0845058262348175,0.006146842148154974,0.07769852131605148
1751013401108231400,5.8302314453125,0.07991001009941101,0.015243401750922203,0.0962490364909172
1751013401118174200,5.84017431640625,0.07529155910015106,0.01835770159959793,0.11327409744262695
1751013401128118300,5.8501181640625,0.06412865221500397,0.027658525854349136,0.12206492573022842
1751013401138061300,5.860061279296875,0.05355297401547432,0.037761494517326355,0.12787167727947235
1751013401148004400,5.87000439453125,0.0460207536816597,0.040353547781705856,0.12285374850034714
1751013401157947400,5.879947509765625,0.04411712661385536,0.044623661786317825,0.1159905195236206
1751013401167890400,5.889890380859375,0.030397852882742882,0.048527587205171585,0.08950884640216827
1751013401177833200,5.899833251953125,0.014415424317121506,-0.0035052525345236063,0.06632442772388458
1751013401187776300,5.9097763671875,-0.0051902346312999725,-0.07134582102298737,0.041918687522411346
1751013401197719300,5.91971923828125,-0.041189782321453094,-0.12909726798534393,0.008466987870633602
1751013401207662000,5.929662109375,-0.09515287727117538,-0.2010316401720047,-0.07316422462463379
1751013401217605000,5.939605224609375,-0.15782158076763153,-0.2003866285085678,-0.10594560950994492
1751013401227549400,5.949549560546875,0.00045540055725723505,0.006767092272639275,-0.19787552952766418
1751013401237492200,5.9594921875,0.1375565230846405,0.24367551505565643,-0.2659459412097931
1751013401247435300,5.969435302734375,0.17896682024002075,0.3948090970516205,-0.2872597277164459
1751013401257378300,5.97937841796875,0.15396293997764587,0.4464171826839447,-0.27846652269363403
1751013401267321000,5.989321044921875,0.1361144334077835,0.4886453151702881,-0.23564687371253967
1751013401277264100,5.99926416015625,0.13762018084526062,0.4811655580997467,-0.1594916582107544
1751013401287207200,6.009207275390625,0.11324959248304367,0.39832472801208496,-0.07939708977937698
1751013401297150200,6.019150146484375,0.07241348177194595,0.26766180992126465,-0.0032618397381156683
1751013401307093200,6.02909326171875,0.0337049663066864,0.13476607203483582,0.09101832658052444
1751013401317035800,6.039035888671875,0.006016347091645002,0.017659420147538185,0.1985304057598114
1751013401326979600,6.0489794921875,-0.002569684060290456,-0.06748902797698975,0.31111446022987366
1751013401336922600,6.058922607421875,0.007163636852055788,-0.09997107088565826,0.3969273865222931
1751013401346865700,6.06886572265625,0.027759991586208344,-0.10286832600831985,0.4522833228111267
1751013401356808700,6.07880859375,0.04926661401987076,-0.08815782517194748,0.46609607338905334
1751013401366751700,6.088751708984375,0.06440002471208572,-0.05437988415360451,0.44941747188568115
1751013401376694800,6.09869482421875,0.07729585468769073,-0.007224090863019228,0.3977082073688507
1751013401386637600,6.108637451171875,0.08907102048397064,0.0377202145755291,0.32980746030807495
1751013401396580600,6.11858056640625,0.09147638827562332,0.060198090970516205,0.24104218184947968
1751013401406523600,6.128523681640625,0.0840483009815216,0.054779890924692154,0.15075355768203735
1751013401416467700,6.1384677734375,0.06938466429710388,0.027158915996551514,0.06077466532588005
1751013401426410800,6.14841064453125,0.03626479580998421,0.016089487820863724,-0.036064259707927704
1751013401436353800,6.158353759765625,0.0012727247085422277,0.04920429736375809,-0.14893515408039093
1751013401446296600,6.168296630859375,-0.01583249308168888,0.1288439929485321,-0.27589336037635803
1751013401456239600,6.178239501953125,-0.012536564841866493,0.2372296005487442,-0.4110559821128845
1751013401466182700,6.1881826171875,-0.005930060520768166,0.33437931537628174,-0.5454505681991577
1751013401476125700,6.198125732421875,-0.01315042283385992,0.3802405595779419,-0.6584522128105164
1751013401486068500,6.208068359375,-0.03207031637430191,0.3626902997493744,-0.7242602109909058
1751013401496011500,6.218011474609375,-0.06318961828947067,0.2968825399875641,-0.7301982641220093
1751013401505954600,6.22795458984375,-0.10414238274097443,0.20814228057861328,-0.6783753037452698
1751013401515898600,6.237898681640625,-0.1388644129037857,0.10057241469621658,-0.5862131714820862
1751013401525841700,6.247841552734375,-0.17062899470329285,-0.013281983323395252,-0.46598315238952637
1751013401535784400,6.257784423828125,-0.18840479850769043,-0.09790898859500885,-0.3288884162902832
1751013401545727500,6.2677275390625,-0.17909225821495056,-0.15961788594722748,-0.18671289086341858
1751013401555670500,6.27767041015625,-0.1557464599609375,-0.18602658808231354,-0.04887779429554939
1751013401565613600,6.287613525390625,-0.12443993240594864,-0.18152637779712677,0.06990371644496918
1751013401575556600,6.297556640625,-0.08013318479061127,-0.15723276138305664,0.1581970900297165
1751013401585499600,6.307499755859375,-0.04219698905944824,-0.12912443280220032,0.2024116963148117
1751013401595442400,6.3174423828125,-0.009443835355341434,-0.11274092644453049,0.20219863951206207
1751013401605385500,6.327385498046875,0.015149657614529133,-0.09451265633106232,0.1676449179649353
1751013401615329500,6.33732958984375,0.03526690974831581,-0.08066076040267944,0.11423629522323608
1751013401625272600,6.3472724609375,0.04788736626505852,-0.047802943736314774,0.06400108337402344
1751013401635215600,6.357215576171875,0.04825488105416298,-0.017614945769309998,0.020437896251678467
1751013401645158700,6.36715869140625,0.05031590163707733,0.0065196845680475235,0.006749249063432217
1751013401655101400,6.377101318359375,0.0505467988550663,0.02358042635023594,0.011660650372505188
1751013401665044500,6.38704443359375,0.0423184297978878,0.027229223400354385,0.03163542225956917
1751013401674987500,6.396987548828125,0.040104277431964874,0.029107019305229187,0.06707677245140076
1751013401684930600,6.4069306640625,0.035890623927116394,0.031320370733737946,0.11502432078123093
1751013401694873600,6.41687353515625,0.030255639925599098,0.031028490513563156,0.15693369507789612
1751013401704816600,6.426816650390625,0.01570013351738453,0.022731412202119827,0.1900911182165146
1751013401714760400,6.436760498046875,0.012029765173792839,0.006194246467202902,0.20310518145561218
1751013401724703500,6.446703369140625,-0.00016937704640440643,-0.012205533683300018,0.19743743538856506
1751013401734646500,6.456646484375,-0.004208060912787914,-0.0369391106069088,0.18275809288024902
1751013401744589600,6.466589599609375,-0.01770016737282276,-0.058155715465545654,0.17117974162101746
1751013401754532600,6.47653271484375,-0.032155804336071014,-0.0744079202413559,0.16066451370716095
1751013401764475600,6.4864755859375,-0.05601400136947632,-0.08886115998029709,0.15886421501636505
1751013401774418700,6.496418701171875,-0.07213012129068375,-0.08357159048318863,0.15374694764614105
1751013401784361700,6.50636181640625,-0.07880932837724686,-0.04145023599267006,0.14270202815532684
1751013401794304500,6.516304443359375,-0.07684924453496933,0.033130254596471786,0.10844019055366516
1751013401804248600,6.52624853515625,-0.0673002079129219,0.11601342260837555,0.04855475202202797
1751013401814191600,6.536191650390625,-0.059297945350408554,0.17163221538066864,-0.03235367685556412
1751013401824134700,6.546134765625,-0.06717877089977264,0.19165918231010437,-0.12634462118148804
1751013401834077700,6.55607763671875,-0.0950937569141388,0.16947264969348907,-0.231679305434227
1751013401844020500,6.5660205078125,-0.1345578134059906,0.09170328825712204,-0.3317340016365051
1751013401853963500,6.575963623046875,-0.18685510754585266,-0.02587101235985756,-0.4133090078830719
1751013401863906600,6.585906494140625,-0.23541465401649475,-0.15057246387004852,-0.44810160994529724
1751013401873849600,6.595849609375,-0.2748531401157379,-0.24705718457698822,-0.4286474883556366
1751013401883792600,6.605792724609375,-0.30085650086402893,-0.28117868304252625,-0.3724156320095062
1751013401893735700,6.615735595703125,-0.301448255777359,-0.24779514968395233,-0.27012524008750916
1751013401903679500,6.625679443359375,-0.26978540420532227,-0.14044232666492462,-0.14625094830989838
1751013401913622500,6.63562255859375,-0.20220182836055756,0.03003060258924961,-0.021168135106563568
1751013401923565600,6.645565673828125,-0.12382740527391434,0.2164904922246933,0.0743434727191925
1751013401933508600,6.655508544921875,-0.04496374726295471,0.3482522666454315,0.12034638226032257
1751013401943451600,6.66545166015625,0.022946327924728394,0.4081376791000366,0.11264105886220932
1751013401953394700,6.675394775390625,0.07597705721855164,0.41521450877189636,0.08187729120254517
1751013401963337700,6.685337646484375,0.10688117891550064,0.39077362418174744,0.0421365350484848
1751013401973280800,6.69528076171875,0.12732785940170288,0.33012357354164124,0.01131017878651619
1751013401983223600,6.7052236328125,0.12721601128578186,0.23705463111400604,-0.004038417246192694
1751013401993167600,6.715167724609375,0.11367862671613693,0.12900379300117493,-0.008274707943201065
1751013402003110700,6.725110595703125,0.0796588733792305,0.012860138900578022,0.008899485692381859
1751013402013053700,6.7350537109375,0.04044383019208908,-0.09227986633777618,0.0395846925675869
1751013402022996700,6.744996826171875,0.0071753547526896,-0.16869740188121796,0.07968204468488693
1751013402032939800,6.754939697265625,-0.02641296572983265,-0.19920390844345093,0.1149177998304367
1751013402042882600,6.764882568359375,-0.04026699438691139,-0.19014810025691986,0.14390204846858978
1751013402052825600,6.77482568359375,-0.03817028924822807,-0.1635148972272873,0.15570543706417084
1751013402062768600,6.7847685546875,-0.01810310408473015,-0.138246551156044,0.148574560880661
1751013402072711700,6.794711669921875,0.007089334540069103,-0.11607839912176132,0.1326397955417633
1751013402082654700,6.80465478515625,0.03530286252498627,-0.09045719355344772,0.11758787930011749
1751013402092598800,6.814598876953125,0.051727376878261566,-0.06776626408100128,0.10054071992635727
1751013402102541600,6.82454150390625,0.06106788292527199,-0.05434286594390869,0.0882108211517334
1751013402112484600,6.834484619140625,0.058466505259275436,-0.0361713208258152,0.06907334178686142
1751013402122427600,6.844427734375,0.04259113594889641,0.006451241206377745,0.04265212267637253
1751013402132370700,6.85437060546875,0.021563882008194923,0.0594358965754509,0.003091397462412715
1751013402142313500,6.8643134765625,0.011333348229527473,0.10961943864822388,-0.05150047689676285
1751013402152256500,6.874256591796875,0.008616657927632332,0.15236397087574005,-0.10255859792232513
1751013402162199600,6.884199462890625,0.0112236263230443,0.17116695642471313,-0.12810470163822174
1751013402172142600,6.894142578125,0.018926553428173065,0.17847706377506256,-0.13007810711860657
1751013402182086700,6.904086669921875,0.028386900201439857,0.16319558024406433,-0.11402670294046402
1751013402192029700,6.91402978515625,0.02930675633251667,0.14012302458286285,-0.08895330876111984
1751013402201972500,6.923972412109375,0.031624771654605865,0.10284062474966049,-0.057255566120147705
1751013402211915500,6.93391552734375,0.028612736612558365,0.05619695782661438,-0.026190059259533882
1751013402221858600,6.943858642578125,0.022944463416934013,0.004515655804425478,0.0013195963110774755
1751013402231801600,6.953801513671875,0.01689828932285309,-0.04157966747879982,0.021435517817735672
1751013402241744600,6.96374462890625,0.016711601987481117,-0.07836271822452545,0.03713724762201309
1751013402251687400,6.9736875,0.02123471535742283,-0.09749166667461395,0.045764025300741196
1751013402261630500,6.98363037109375,0.021997710689902306,-0.09591134637594223,0.05657246708869934
1751013402271574500,6.993574462890625,0.023322099819779396,-0.08193507790565491,0.0648314580321312
1751013402281517600,7.003517578125,0.027999144047498703,-0.0572076290845871,0.0726129487156868
1751013402291460600,7.013460693359375,0.036257605999708176,-0.018912438303232193,0.07086991518735886
1751013402301403600,7.023403564453125,0.04165104031562805,0.027231620624661446,0.05822575464844704
1751013402311346200,7.03334619140625,0.04850681498646736,0.06173873320221901,0.027754932641983032
1751013402321289000,7.0432890625,0.052499692887067795,0.08106289803981781,-0.0039036613889038563
1751013402331232000,7.05323193359375,0.04198473319411278,0.08349063247442245,-0.03837588429450989
1751013402341175000,7.063175048828125,0.02821565978229046,0.06512893736362457,-0.07088375836610794
1751013402351118000,7.0731181640625,0.00447011599317193,0.03226206451654434,-0.09496406465768814
1751013402361061000,7.08306103515625,-0.020788103342056274,0.006596117280423641,-0.10715015232563019
1751013402371005200,7.093005126953125,-0.048765942454338074,-0.003251719754189253,-0.10784097760915756
1751013402380948000,7.102947998046875,-0.06343623250722885,-0.002886333968490362,-0.10297884792089462
1751013402390891000,7.11289111328125,-0.06704375147819519,0.012443353421986103,-0.10268723219633102
1751013402400834000,7.122833984375,-0.05679111182689667,0.03285808116197586,-0.10582896322011948
1751013402410777000,7.132777099609375,-0.04021240025758743,0.045581597834825516,-0.1097765639424324
1751013402420720000,7.14272021484375,-0.028665199875831604,0.044129379093647,-0.11966275423765182
1751013402430663200,7.1526630859375,-0.015727298334240913,0.04158952087163925,-0.12171125411987305
1751013402440606200,7.162606201171875,-0.004746818449348211,0.03314889967441559,-0.11338594555854797
1751013402450550000,7.172550048828125,0.001317998394370079,0.015448731370270252,-0.10287844389677048
1751013402460493000,7.1824931640625,0.0041555967181921005,-0.002118811011314392,-0.08317158371210098
1751013402470436000,7.19243603515625,-0.0024535702541470528,-0.02720392309129238,-0.06141329184174538
1751013402480379100,7.202379150390625,-0.016057264059782028,-0.054606255143880844,-0.04513152688741684
1751013402490322200,7.212322265625,-0.029147231951355934,-0.06749435514211655,-0.03439818695187569
1751013402500265200,7.22226513671875,-0.03489353507757187,-0.05811017379164696,-0.032706279307603836
1751013402510208300,7.232208251953125,-0.03232358396053314,-0.037458959966897964,-0.03664349764585495
1751013402520151000,7.242151123046875,-0.02293141558766365,-0.017739582806825638,-0.05176625773310661
1751013402530094000,7.252093994140625,-0.014423414133489132,0.0022951122373342514,-0.07563803344964981
1751013402540038100,7.2620380859375,-0.008495749905705452,0.019528428092598915,-0.10015083849430084
1751013402549981200,7.271981201171875,0.0013432984706014395,0.03723471984267235,-0.11070281267166138
1751013402559924200,7.28192431640625,-0.002055161399766803,0.04424495995044708,-0.11647681146860123
1751013402569867000,7.291866943359375,-0.006071208510547876,0.04385826736688614,-0.10848626494407654
1751013402579810000,7.30181005859375,-0.014814100228250027,0.037041109055280685,-0.09521200507879257
1751013402589753000,7.311753173828125,-0.019404323771595955,0.038730084896087646,-0.07496985048055649
1751013402599696100,7.321696044921875,-0.02315671741962433,0.038486938923597336,-0.059245213866233826
1751013402609639200,7.33163916015625,-0.021506624296307564,0.033659957349300385,-0.04674699902534485
1751013402619582200,7.341582275390625,-0.020840033888816833,0.02202088013291359,-0.03997031971812248
1751013402629525200,7.351525146484375,-0.01708231493830681,-0.00020719393796753138,-0.04790147766470909
1751013402639469000,7.361468994140625,-0.012890764512121677,-0.032702554017305374,-0.05903349071741104
1751013402649412000,7.371412109375,-0.01569906808435917,-0.06105669587850571,-0.07059933245182037
1751013402659355100,7.381355224609375,-0.02251010201871395,-0.07060226052999496,-0.0816354751586914
1751013402669298200,7.391298095703125,-0.02442890964448452,-0.0742792934179306,-0.081563301384449
1751013402679241200,7.4012412109375,-0.013430854305624962,-0.0635097324848175,-0.08323709666728973
1751013402689184300,7.411184326171875,0.01720242202281952,-0.034329745918512344,-0.0812506452202797
1751013402699127300,7.421127197265625,0.03255288302898407,-0.0072954632341861725,-0.07767269015312195
1751013402709070000,7.431070068359375,0.03881131112575531,0.01660267822444439,-0.07062463462352753
1751013402719014100,7.44101416015625,0.052068259567022324,0.01859259232878685,-0.057969558984041214
1751013402728957200,7.450957275390625,0.055992163717746735,0.010391121730208397,-0.0408765934407711
1751013402738900200,7.460900146484375,0.04856860265135765,-0.01161804050207138,-0.01458666566759348
1751013402748843300,7.47084326171875,0.03290415555238724,-0.03479925915598869,-0.006198773626238108
1751013402758786300,7.480786376953125,0.016632240265607834,-0.03189481422305107,-0.00968325324356556
1751013402768729000,7.49072900390625,0.0032325449865311384,-0.036670129746198654,-0.02978825569152832
1751013402778671900,7.500671875,0.020656542852520943,0.03099786303937435,-0.03429139405488968
1751013402788615000,7.510614990234375,0.036428581923246384,0.1156855896115303,-0.03447036072611809
1751013402798558000,7.520557861328125,0.03166525065898895,0.10907988250255585,-0.04159191623330116
1751013402808502300,7.530502197265625,0.033916689455509186,0.06768850237131119,-0.05134068429470062
1751013402818445300,7.5404453125,0.047858867794275284,0.05410797521471977,-0.04538026452064514
1751013402828388000,7.55038818359375,0.04326597973704338,0.06137574091553688,-0.027168238535523415
1751013402838331000,7.560330810546875,0.030414897948503494,0.0427330806851387,-0.01690308377146721
1751013402848274000,7.57027392578125,0.004482632502913475,0.018509767949581146,-0.009178318083286285
1751013402858217000,7.580217041015625,-0.02015080861747265,0.006292783189564943,-0.001751827308908105
1751013402868160000,7.590159912109375,-0.0317629911005497,-0.005028048064559698,0.0081474082544446
1751013402878103000,7.60010302734375,-0.03436596319079399,-0.017731059342622757,0.008313589729368687
1751013402888046000,7.610046142578125,-0.02328667975962162,-0.01133654359728098,-0.0031646343413740396
1751013402897990000,7.619989990234375,-0.006105296779423952,0.012087022885680199,-0.021686919033527374
1751013402907933000,7.629932861328125,0.012543488293886185,0.04056606814265251,-0.039563655853271484
1751013402917876000,7.6398759765625,0.03123967908322811,0.06358616799116135,-0.05456843599677086
1751013402927819000,7.649819091796875,0.04952094703912735,0.07961120456457138,-0.05389438942074776
1751013402937762000,7.659761962890625,0.05579641833901405,0.07661594450473785,-0.03532363474369049
1751013402947705000,7.669705078125,0.054668836295604706,0.057017747312784195,0.0013829795643687248
1751013402957648100,7.679648193359375,0.047636229544878006,0.030721960589289665,0.03512469679117203
1751013402967591200,7.689591064453125,0.038910381495952606,0.011342668905854225,0.07867883145809174
1751013402977534000,7.699533935546875,0.0314178429543972,-0.016096943989396095,0.11671409755945206
1751013402987478000,7.70947802734375,0.03551352024078369,-0.034441862255334854,0.13905535638332367
1751013402997421000,7.719421142578125,0.05566858872771263,-0.01943867839872837,0.13015906512737274
1751013403007364000,7.729364013671875,0.08249220997095108,0.010556237772107124,0.09279704838991165
1751013403017307100,7.73930712890625,0.1028619334101677,0.046546995639801025,0.04415414482355118
1751013403027250200,7.749250244140625,0.11008229851722717,0.09193924069404602,0.008595085702836514
1751013403037193000,7.75919287109375,0.09660962969064713,0.11143758147954941,-0.010861702263355255
1751013403047136000,7.769135986328125,0.07517038285732269,0.1058792918920517,-0.011690211482346058
1751013403057079000,7.7790791015625,0.05993923172354698,0.09319998323917389,-0.008551943115890026
1751013403067022000,7.78902197265625,0.05493435636162758,0.08102507889270782,0.0073287528939545155
1751013403076966100,7.798966064453125,0.05403633788228035,0.06263808161020279,0.03514227271080017
1751013403086909000,7.808908935546875,0.048718005418777466,0.046963512897491455,0.07355198264122009
1751013403096852000,7.81885205078125,0.0483078770339489,0.01948821358382702,0.11193079501390457
1751013403106795000,7.828794921875,0.05146132782101631,-0.00022929816623218358,0.13837970793247223
1751013403116738000,7.838738037109375,0.0617416612803936,-0.012348012998700142,0.15427851676940918
1751013403126681000,7.84868115234375,0.07831531018018723,-0.007097324356436729,0.14992797374725342
1751013403136624000,7.8586240234375,0.09254564344882965,0.014940067194402218,0.1317465752363205
1751013403146567200,7.868567138671875,0.11505760997533798,0.04109044373035431,0.10562256723642349
1751013403156510200,7.87851025390625,0.14493268728256226,0.09282208234071732,0.07507584244012833
1751013403166454000,7.8884541015625,0.14496517181396484,0.11426585167646408,0.06317523866891861
1751013403176397000,7.89839697265625,0.054779890924692154,0.08763877302408218,0.0722438395023346
1751013403186340000,7.908340087890625,-0.03021329641342163,0.05981486290693283,0.08029989898204803
1751013403196283100,7.918283203125,-0.04912014305591583,0.054307714104652405,0.049372609704732895
1751013403206226200,7.92822607421875,-0.03638090938329697,0.0452289953827858,0.0023675502743571997
1751013403216169200,7.938169189453125,-0.022641129791736603,0.03814738616347313,-0.051293015480041504
1751013403226112000,7.948112060546875,-0.013893178664147854,0.04766073077917099,-0.09427084028720856
1751013403236055000,7.958054931640625,-0.005316734779626131,0.05625182017683983,-0.12954840064048767
1751013403245999000,7.9679990234375,0.003626426449045539,0.0567500963807106,-0.13822364807128906
1751013403255942100,7.977942138671875,0.003619768423959613,0.050816841423511505,-0.1328107714653015
1751013403265885200,7.98788525390625,-0.0049159289337694645,0.03957111015915871,-0.10216951370239258
1751013403275828200,7.997828125,-0.011404188349843025,0.018445853143930435,-0.0746537297964096
1751013403285771000,8.00777099609375,-0.011463576927781105,-0.007507184520363808,-0.04886500909924507
1751013403295714000,8.017714111328125,-0.008945558220148087,-0.03274303302168846,-0.03099919483065605
1751013403305657000,8.027656982421876,-0.0051686628721654415,-0.035834964364767075,-0.018150774762034416
1751013403315602000,8.037601806640625,-0.010343451052904129,-0.026336532086133957,-0.017249027267098427
1751013403325545000,8.047544921875,-0.0065292720682919025,-0.005001150071620941,-0.03833939880132675
1751013403335488800,8.05748876953125,0.003216566052287817,0.012535765767097473,-0.06289747357368469
1751013403345431800,8.067431884765625,0.00869175884872675,0.020120447501540184,-0.08393751084804535
1751013403355374800,8.077374755859376,0.008588694036006927,0.01877448707818985,-0.09061272442340851
1751013403365318000,8.08731787109375,0.004013650119304657,0.012746687978506088,-0.08727285265922546
1751013403375261000,8.097260986328125,-0.005366269499063492,0.009187906049191952,-0.0769088938832283
1751013403385203700,8.10720361328125,-0.010897921398282051,0.012147743254899979,-0.06630365550518036
1751013403395146500,8.117146484375,-0.017720673233270645,0.020681044086813927,-0.05847715958952904
1751013403405089500,8.127089599609375,-0.023560985922813416,0.028749888762831688,-0.05757967382669449
1751013403415033900,8.137033935546874,-0.02720126137137413,0.028171183541417122,-0.06568899750709534
1751013403424977000,8.146976806640625,-0.02768542431294918,0.022396385669708252,-0.06930823624134064
1751013403434920000,8.156919921875,-0.02231942117214203,0.019180618226528168,-0.06843578070402145
1751013403444862700,8.16686279296875,-0.017665280029177666,0.024096548557281494,-0.062249790877103806
1751013403454805500,8.176805419921875,-0.015841813758015633,0.03302452713251114,-0.06291797757148743
1751013403464748500,8.18674853515625,-0.010909372940659523,0.03592950478196144,-0.057493653148412704
1751013403474691600,8.196691650390624,-0.012407135218381882,0.02961035631597042,-0.055799614638090134
1751013403484634600,8.206634521484375,-0.01070883683860302,0.020049074664711952,-0.04872679337859154
1751013403494577700,8.21657763671875,-0.012841496616601944,0.0073444657027721405,-0.035897813737392426
1751013403504521700,8.226521728515625,-0.01122043002396822,-0.0049468218348920345,-0.0333947092294693
1751013403514464500,8.236464599609375,-0.0008356999605894089,-0.01127955224364996,-0.036493830382823944
1751013403524407600,8.246407470703126,0.010378072038292885,-0.00959749985486269,-0.052148155868053436
1751013403534350600,8.2563505859375,0.016628511250019073,-0.005291967187076807,-0.06847412884235382
1751013403544293600,8.266293701171875,0.017642909660935402,-0.002002430846914649,-0.07648731768131256
1751013403554236700,8.276236572265624,0.014159228652715683,-0.001020523370243609,-0.08496149629354477
1751013403564179700,8.2861796875,0.015268701128661633,0.0035870117135345936,-0.07984556257724762
1751013403574122800,8.296122802734375,0.010436927899718285,0.007877630181610584,-0.06978654116392136
1751013403584066600,8.306066650390624,0.017857827246189117,0.013234579004347324,-0.060258012264966965
1751013403594009600,8.316009521484375,0.014796257019042969,0.014992265030741692,-0.04989245906472206
1751013403603952600,8.32595263671875,0.018315358087420464,0.009984989650547504,-0.037941522896289825
1751013403613895700,8.335895751953124,0.019817113876342773,0.005812082905322313,-0.026453711092472076
1751013403623838700,8.345838623046875,0.027573037892580032,-0.0007997472421266139,-0.011779960244894028
1751013403633781800,8.35578173828125,0.03564534708857536,-0.010386061854660511,0.0017052220646291971
1751013403643724800,8.365724853515625,0.0363960899412632,-0.01709163561463356,0.014067082665860653
1751013403653667600,8.37566748046875,0.045402370393276215,-0.027055053040385246,0.024563666433095932
1751013403663610600,8.385610595703126,0.06010967493057251,-0.027590082958340645,0.02490082196891308
1751013403673554700,8.3955546875,0.08130257576704025,-0.037936195731163025,0.01792813464999199
1751013403683497700,8.405497802734375,0.11212653666734695,-0.04610278084874153,0.006019542925059795
1751013403693440800,8.415440673828124,0.12713292241096497,-0.0420028455555439,0.004024835303425789
1751013403703383800,8.4253837890625,0.13214685022830963,-0.03652285784482956,0.007444334216415882
1751013403713326600,8.43532666015625,0.11924117058515549,-0.021339910104870796,0.027231354266405106
1751013403723269600,8.44526953125,0.09918943047523499,-0.005600095260888338,0.04959897696971893
1751013403733212700,8.455212646484375,0.08388344943523407,0.003427488263696432,0.06917454302310944
1751013403743155700,8.46515576171875,0.07407662272453308,0.006876281928271055,0.07437250018119812
1751013403753099800,8.475099853515625,0.06416886299848557,0.012713132426142693,0.06083139404654503
1751013403763042800,8.485042724609375,0.06168892979621887,0.01426255889236927,0.03590340539813042
1751013403772985600,8.494985595703126,0.04975131154060364,0.029439648613333702,0.014355503022670746
1751013403782928600,8.5049287109375,0.03907336667180061,0.04169658198952675,0.005289836786687374
1751013403792871700,8.51487158203125,0.02285817824304104,0.04097965732216835,0.00019281286222394556
1751013403802814700,8.524814697265626,0.002168079372495413,0.031435687094926834,-0.00720518222078681
1751013403812757800,8.5347578125,-0.01834571734070778,0.018999790772795677,-0.017004016786813736
1751013403822700800,8.54470068359375,-0.035177960991859436,0.014334997162222862,-0.02522093430161476
1751013403832643800,8.554643798828126,-0.05004372447729111,0.016335297375917435,-0.03590340539813042
1751013403842587600,8.564587646484375,-0.06509484350681305,0.028379710391163826,-0.04415840655565262
1751013403852530700,8.57453076171875,-0.07123956084251404,0.02839382365345955,-0.056064069271087646
1751013403862473700,8.5844736328125,-0.08180352300405502,0.022172680124640465,-0.06434543430805206
1751013403872416800,8.594416748046875,-0.08473192900419235,0.019992083311080933,-0.07148563116788864
1751013403882359800,8.60435986328125,-0.08353324234485626,0.014074806123971939,-0.06949971616268158
1751013403892302800,8.614302734375,-0.08014623820781708,0.01678350754082203,-0.05681454762816429
1751013403902245600,8.62424560546875,-0.07111359387636185,0.023259516805410385,-0.03437555208802223
1751013403912188700,8.634188720703126,-0.060511812567710876,0.02015959657728672,-0.012320049107074738
1751013403922132700,8.6441328125,-0.05000324547290802,0.02003522776067257,0.017949173226952553
1751013403932075800,8.65407568359375,-0.04252482205629349,0.02437111921608448,0.035898879170417786
1751013403942018800,8.664018798828126,-0.03967098146677017,0.02088184654712677,0.042400188744068146
1751013403951961900,8.6739619140625,-0.035655733197927475,0.01543248537927866,0.03171052411198616
1751013403961904600,8.683904541015625,-0.03014538623392582,0.011695005930960178,0.016705477610230446
1751013403971847700,8.69384765625,-0.02015453577041626,0.009619071148335934,-0.008297344669699669
1751013403981790700,8.703790771484375,-0.008298410102725029,0.008439024910330772,-0.024645958095788956
1751013403991733800,8.713733642578125,-0.0065625617280602455,0.008262723684310913,-0.038367096334695816
1751013404001676800,8.7236767578125,-0.005543103441596031,0.005449892953038216,-0.04243374243378639
1751013404011620900,8.733620849609375,-0.007435279432684183,0.007845406420528889,-0.0339885950088501
1751013404021563600,8.743563720703126,-0.011508850380778313,0.0035025894176214933,-0.019228288903832436
1751013404031506700,8.753506591796874,-0.013798103667795658,0.005368666257709265,0.000143544384627603
1751013404041449700,8.76344970703125,-0.012662798166275024,0.012470518238842487,0.006283195689320564
1751013404051392800,8.773392822265626,-0.0067716194316744804,0.016170447692275047,0.010371680371463299
1751013404061335800,8.783335693359374,-0.0014969628537073731,0.018365424126386642,0.00026045716367661953
1751013404071278800,8.79327880859375,-0.004544151946902275,0.013973605819046497,-0.023493342101573944
1751013404081222000,8.803221923828126,-0.0040852888487279415,-0.008024103939533234,-0.051595814526081085
1751013404091165700,8.813165771484375,-0.0027052389923483133,-0.016141684725880623,-0.07467450201511383
1751013404101108700,8.823108642578125,-0.000934236915782094,-0.014790929853916168,-0.09252247959375381
1751013404111051800,8.8330517578125,0.00526799913495779,-0.004083424806594849,-0.09740830957889557
1751013404120994800,8.842994873046875,0.007693605963140726,0.003712712787091732,-0.07479993999004364
1751013404130937900,8.852937744140625,0.014120612293481827,0.02239185757935047,-0.03840331360697746
1751013404140881000,8.862880859375,0.012918728403747082,0.028183966875076294,0.0026586337480694056
1751013404150824000,8.872823974609375,0.009060872718691826,0.027789553627371788,0.029400499537587166
1751013404160766700,8.8827666015625,0.009308546781539917,0.026140790432691574,0.035107918083667755
1751013404170710800,8.892710693359374,0.01582130789756775,0.02701324224472046,0.02690858021378517
1751013404180653800,8.90265380859375,0.020958811044692993,0.03626985847949982,0.0035308189690113068
1751013404190596900,8.912596923828126,0.025843581184744835,0.034930553287267685,-0.014025803655385971
1751013404200540000,8.922539794921875,0.0208301804959774,0.03146125376224518,-0.02400546707212925
1751013404210483000,8.93248291015625,0.020108463242650032,0.02538471855223179,-0.028238030150532722
1751013404220425700,8.94242578125,0.01980060338973999,0.02389148436486721,-0.025436917319893837
1751013404230368500,8.952368408203125,0.021587584167718887,0.025289909914135933,-0.03183542564511299
1751013404240311600,8.9623115234375,0.02147866040468216,0.029524868354201317,-0.03403972461819649
1751013404250254600,8.972254638671876,0.019698603078722954,0.031008249148726463,-0.0388222299516201
1751013404260199000,8.982198974609375,0.01871643029153347,0.03581765294075012,-0.03518461808562279
1751013404270142000,8.992141845703125,0.01847940869629383,0.03586292639374733,-0.03169720992445946
1751013404280084700,9.002084716796874,0.02570536360144615,0.03182663768529892,-0.028353344649076462
1751013404290027500,9.012027587890625,0.02689100243151188,0.02604491636157036,-0.029319273307919502
1751013404299970600,9.021970458984375,0.0252853836864233,0.02117479406297207,-0.033722810447216034
1751013404309913600,9.03191357421875,0.023801470175385475,0.009410812519490719,-0.03840677812695503
1751013404319855400,9.04185546875,0.01709403283894062,-0.006622482556849718,-0.04351045936346054
1751013404329798400,9.05179833984375,0.016922257840633392,-0.014964302070438862,-0.041182857006788254
1751013404339742500,9.061742431640624,0.013624199666082859,-0.0153752276673913,-0.03742700070142746
1751013404349685500,9.071685546875,0.018609371036291122,0.0007632619817741215,-0.034216560423374176
1751013404359628500,9.081628662109376,0.01684183068573475,0.02895149029791355,-0.0369873121380806
1751013404369571300,9.0915712890625,0.02755413018167019,0.03380589932203293,-0.044143494218587875
1751013404379514400,9.101514404296875,0.03051316738128662,0.03579847887158394,-0.04405134543776512
1751013404389457400,9.11145751953125,0.025606293231248856,0.031381357461214066,-0.033840786665678024
1751013404399400200,9.121400146484374,0.01495125237852335,0.014134727418422699,-0.018666096031665802
1751013404409343200,9.13134326171875,0.010105897672474384,-0.00993039458990097,-0.006427539046853781
1751013404419287600,9.14128759765625,0.011895009316504002,-0.011480887420475483,-0.00640836451202631
1751013404429230300,9.151230224609375,0.013530722819268703,0.0017542241839691997,-0.014762966893613338
1751013404439173400,9.16117333984375,0.013569071888923645,0.017664214596152306,-0.025378327816724777
1751013404449116200,9.1711162109375,0.01170246209949255,0.02088823728263378,-0.03816442936658859
1751013404459059200,9.18105908203125,0.012673983350396156,0.01684316247701645,-0.04562101513147354
1751013404469002200,9.191002197265625,0.014154967851936817,0.013728861697018147,-0.04441966116428375
1751013404478945300,9.2009453125,0.01823732629418373,0.009725864045321941,-0.03791755437850952
1751013404488888300,9.210888427734375,0.015260445885360241,0.013264672830700874,-0.024937573820352554
1751013404498831400,9.220831298828125,0.012235094793140888,0.017973940819501877,-0.02016439102590084
1751013404508775200,9.230775146484374,0.0070765516720712185,0.011709652841091156,-0.01948448456823826
1751013404518718200,9.24071826171875,0.00993119366466999,-0.0032466596458107233,-0.025228656828403473
1751013404528661200,9.2506611328125,0.005406749434769154,-0.01618323102593422,-0.033903107047080994
1751013404538604300,9.260604248046874,0.008975385688245296,-0.030765635892748833,-0.04418104141950607
1751013404548547300,9.27054736328125,0.007881625555455685,-0.03141677752137184,-0.05084400624036789
1751013404558490400,9.280490478515626,0.010275807231664658,-0.02172793261706829,-0.055024102330207825
1751013404568433400,9.290433349609375,0.014028999954462051,-0.006534065585583448,-0.053347378969192505
1751013404578376200,9.300376220703125,0.017468472942709923,0.010961837135255337,-0.049726009368896484
1751013404588320300,9.3103203125,0.02196575328707695,0.01745222695171833,-0.03821635991334915
1751013404598263300,9.32026318359375,0.020805146545171738,0.018803780898451805,-0.028303010389208794
1751013404608206300,9.330206298828125,0.012504606507718563,0.014397847466170788,-0.015910256654024124
1751013404618149400,9.3401494140625,0.004936701618134975,0.002879942301660776,-0.00373055599629879
1751013404628092400,9.350092529296875,0.00316063966602087,-0.00014168016787152737,0.010085923597216606
1751013404638035200,9.36003515625,0.003916711080819368,-0.004974252078682184,0.01257864199578762
1751013404647978200,9.369978271484374,0.005872270092368126,-0.007167631760239601,0.010780476033687592
1751013404657921300,9.37992138671875,0.008737831376492977,-0.0018852517241612077,0.00019520970818120986
1751013404667865300,9.389865234375,0.018383268266916275,0.004595817066729069,-0.004702077247202396
1751013404677808400,9.399808349609375,0.02436579391360283,0.005782521795481443,-0.010430004447698593
1751013404687751200,9.409751220703125,0.024147147312760353,0.014912636950612068,-0.007468036375939846
1751013404697694200,9.419694091796876,0.02033057250082493,0.020049607381224632,-0.0027451864443719387
1751013404707637200,9.42963720703125,0.019221099093556404,0.018091918900609016,0.005672533065080643
1751013404717580300,9.439580322265625,0.017355287447571754,0.017715081572532654,0.012140818871557713
1751013404727523300,9.4495234375,0.01877954602241516,0.010812168009579182,0.01540612056851387
1751013404737466400,9.45946630859375,0.015166969038546085,-0.0022951122373342514,0.02040513977408409
1751013404747409400,9.469409423828125,0.009368201717734337,-0.01005103625357151,0.026128806173801422
1751013404757353200,9.479353271484374,0.008975385688245296,-0.010028665885329247,0.031072165817022324
1751013404767296300,9.489296142578125,0.005575327668339014,-0.0024146882351487875,0.0291735976934433
1751013404777239300,9.4992392578125,0.005818474106490612,0.011758921667933464,0.03104926273226738
1751013404787182300,9.509182373046874,0.006797452457249165,0.027826039120554924,0.02773469127714634
1751013404797125400,9.51912548828125,0.010267551057040691,0.04698508605360985,0.02387923374772072
1751013404807068400,9.529068359375,0.01583142764866352,0.05763586610555649,0.02185150235891342
1751013404817011500,9.539011474609374,0.017524132505059242,0.055212121456861496,0.020072776824235916
1751013404826954200,9.548954345703125,0.010484598577022552,0.042693667113780975,0.020891966298222542
1751013404836898300,9.558898193359376,0.00863210391253233,0.019466375932097435,0.02695358730852604
1751013404846841300,9.56884130859375,0.002811232814565301,-0.004282096866518259,0.039976976811885834
1751013404856784400,9.578784423828125,0.00039068571641109884,-0.008403604850172997,0.06000954285264015
1751013404866727400,9.5887275390625,0.003718571737408638,-0.0013957626651972532,0.07943170517683029
1751013404876670500,9.59867041015625,0.008680840022861958,0.007844074629247189,0.09413528442382812
1751013404886613200,9.60861328125,0.00634897593408823,0.005857356358319521,0.0925363227725029
1751013404896556300,9.618556396484376,0.0034762241411954165,0.007497863844037056,0.07472243905067444
1751013404906499300,9.628499267578125,-0.0049588060937821865,-0.004334827419370413,0.05096491426229477
1751013404916443400,9.638443359375,-0.014690529555082321,-0.01990845985710621,0.02641429752111435
1751013404926386400,9.648386474609374,-0.016151273623108864,-0.01980619505047798,0.011373561806976795
1751013404936329500,9.65832958984375,-0.00646642129868269,-0.020167052745819092,0.001731320982798934
1751013404946272300,9.668272216796876,0.0002633866388350725,-0.02937493287026882,0.00040027310024015605
1751013404956215300,9.67821533203125,0.001859419047832489,-0.06722324341535568,0.007441671099513769
1751013404966158300,9.688158447265625,0.008137821219861507,-0.06949332356452942,0.03211425989866257
1751013404976101400,9.698101318359376,0.00603419030085206,-0.05621320381760597,0.05983137711882591
1751013404986044400,9.70804443359375,-0.00006684534309897572,-0.03726241737604141,0.0796053484082222
1751013404995987500,9.717987548828125,-0.0006032059900462627,-0.018824288621544838,0.08874824643135071
1751013405005931300,9.72793115234375,0.0009587379754520953,-0.0024650217965245247,0.08130470663309097
1751013405015874300,9.737874267578125,0.003593669505789876,0.006314088590443134,0.07551366835832596
1751013405025817300,9.7478173828125,0.007327953819185495,0.006638728082180023,0.06436754018068314
1751013405035760400,9.757760498046874,0.004309793468564749,0.004879177547991276,0.05246454104781151
1751013405045703400,9.767703369140625,0.0018820558907464147,0.008360994048416615,0.031326763331890106
1751013405055646500,9.777646484375,0.00008868326403899118,0.01672385260462761,0.012467055581510067
1751013405065589500,9.787589599609374,-0.0016351809026673436,0.02105974592268467,-0.006911968346685171
1751013405075532500,9.797532470703125,0.0020120181143283844,0.02250930294394493,-0.020847225561738014
1751013405085476400,9.807476318359376,0.0015073491958901286,0.01512968447059393,-0.02991582080721855
1751013405095419400,9.81741943359375,-0.00002210423735959921,0.0010583401890471578,-0.033237580209970474
1751013405105362400,9.827362548828125,0.0020964404102414846,-0.008262723684310913,-0.03322293609380722
1751013405115305500,9.837305419921876,0.0020040287636220455,-0.007298126816749573,-0.027410319074988365
1751013405125248500,9.84724853515625,0.0031308121979236603,0.006548180244863033,-0.014082263223826885
1751013405135191600,9.857191650390625,0.0024618261959403753,0.01486336812376976,0.00035473305615596473
1751013405145134300,9.86713427734375,0.0013795174891129136,0.018332401290535927,0.008288023993372917
1751013405155077400,9.877077392578125,0.004776645917445421,0.021646440029144287,0.010330401360988617
1751013405165021400,9.887021484375,0.0041457428596913815,0.021142570301890373,0.0023513049818575382
1751013405174964500,9.896964599609374,0.007692806888371706,0.02707502618432045,-0.009845706634223461
1751013405184907500,9.906907470703125,0.006125004030764103,0.02484969049692154,-0.017297763377428055
1751013405194850600,9.9168505859375,0.005964681971818209,0.03117443062365055,-0.015050321817398071
1751013405204793300,9.92679345703125,0.0008988168556243181,0.03328072652220726,-0.01576245203614235
1751013405214736400,9.936736328125,0.0006964165950194001,0.03467249125242233,-0.012825783342123032
1751013405224679200,9.94667919921875,0.004009921569377184,0.0332876481115818,-0.010869692079722881
1751013405234622200,9.956622314453124,0.006406500469893217,0.028447354212403297,-0.013044162653386593
1751013405244566500,9.96656640625,0.006616090890020132,0.02406565472483635,-0.020906081423163414
1751013405254509600,9.976509521484376,0.004318581894040108,0.026922959834337234,-0.030732080340385437
1751013405264452400,9.986452392578125,-0.000630902883131057,0.02273860201239586,-0.03522110357880592
1751013405274395400,9.9963955078125,0.0010607370641082525,0.02256043627858162,-0.038240328431129456
1751013405284338200,10.006338134765626,0.001484712352976203,0.02293061651289463,-0.032577116042375565
1751013405294281200,10.01628125,0.006124471314251423,0.02340865321457386,-0.026311231777071953
1751013405304224300,10.026224365234375,0.0036272252909839153,0.0232858806848526,-0.016630908474326134
1751013405314167600,10.03616748046875,0.002659698948264122,0.021856030449271202,-0.011002317070960999
1751013405324111400,10.046111328125,0.004607801325619221,0.023629695177078247,-0.009349559433758259
1751013405334054400,10.056054443359375,0.0009398295660503209,0.016202937811613083,-0.00580702256411314
1751013405343997400,10.06599755859375,-0.0018753979820758104,0.014815697446465492,-0.0010780475568026304
1751013405353940500,10.0759404296875,-0.0046964846551418304,0.023750336840748787,-0.00014141385327093303
1751013405363883500,10.085883544921876,-0.0013249226612970233,0.032468460500240326,0.0051803807727992535
1751013405373826600,10.09582666015625,-0.0044291033409535885,0.03278457745909691,-0.0014554174849763513
1751013405383769300,10.105769287109375,-0.0008684568456374109,0.03417208418250084,-0.0067846691235899925
1751013405393712400,10.11571240234375,0.0033153691329061985,0.03756095841526985,-0.01552196778357029
1751013405403656400,10.125656494140625,0.004896221682429314,0.03618277236819267,-0.01961018703877926
1751013405413599500,10.135599609375,0.005769738461822271,0.03189508244395256,-0.02153485268354416
1751013405423542500,10.14554248046875,0.006732471287250519,0.019604593515396118,-0.01798272877931595
1751013405433485600,10.155485595703125,0.0037470676470547915,0.0128761176019907,-0.01152616087347269
1751013405443428400,10.165428466796875,-0.0020607539918273687,0.011292868293821812,-0.00797110702842474
1751013405453371400,10.175371337890626,0.0022889869287610054,0.021742580458521843,0.0005986785981804132
1751013405463314200,10.185314208984375,0.007706922013312578,0.030911842361092567,0.006734068971127272
1751013405473257200,10.19525732421875,0.013351225294172764,0.030417826026678085,0.009021191857755184
1751013405483201500,10.205201416015624,0.014897456392645836,0.027722174301743507,0.000871652620844543
1751013405493144300,10.215144287109375,0.009905627928674221,0.016292953863739967,-0.0022746059112250805
1751013405503087400,10.22508740234375,0.006176935974508524,0.012929114513099194,-0.005601160228252411
1751013405513030400,10.235030517578124,0.009442769922316074,0.015556588768959045,-0.010617224499583244
1751013405522973200,10.24497314453125,0.012404205277562141,0.016224775463342667,-0.009098423644900322
1751013405532916200,10.254916259765626,0.008251272141933441,0.023611586540937424,-0.009049154818058014
1751013405542859300,10.264859375,0.008886702358722687,0.02171781286597252,-0.008413458243012428
1751013405552802300,10.27480224609375,0.007177751511335373,0.00788322277367115,-0.007655256427824497
1751013405562745300,10.284745361328126,0.012012188322842121,-0.0037140443455427885,-0.006374276243150234
1751013405572689400,10.294689453125,0.017176058143377304,-0.00755112711340189,-0.005080245900899172
1751013405582632200,10.304632080078125,0.017065269872546196,-0.012269449420273304,-0.010941863991320133
1751013405592575200,10.3145751953125,0.01119273342192173,-0.00854208879172802,-0.019597403705120087
1751013405602518300,10.324518310546875,0.011408715508878231,0.0003680488734971732,-0.03283730894327164
1751013405612461300,10.33446142578125,0.010760501958429813,0.01576751098036766,-0.043296873569488525
1751013405622404400,10.344404296875,0.014002367854118347,0.020542027428746223,-0.05005011707544327
1751013405632347400,10.354347412109375,0.015675365924835205,0.02232341468334198,-0.04887406527996063
1751013405642291200,10.364291259765626,0.012138155288994312,0.022298114374279976,-0.030458573251962662
1751013405652234200,10.374234130859374,0.00953864399343729,0.023089339956641197,-0.01721733622252941
1751013405662177300,10.38417724609375,0.0033633061684668064,0.017905764281749725,-0.013364807702600956
1751013405672120300,10.394120361328126,0.0003430151555221528,0.006930610164999962,-0.014135792851448059
1751013405682063400,10.4040634765625,-0.0008484831196255982,0.006509830709546804,-0.014671354554593563
1751013405692006400,10.41400634765625,0.0028394623659551144,0.01290487963706255,-0.01672065630555153
1751013405701949400,10.423949462890626,0.004966795444488525,0.0266510508954525,-0.010536530055105686
1751013405711892500,10.433892578125,0.011463576927781105,0.04373975843191147,-0.001240766723640263
1751013405721836300,10.443836181640625,0.00574843306094408,0.06715507060289383,0.007515972945839167
1751013405731779300,10.453779296875,-0.0015694007743149996,0.08686059713363647,0.016699884086847305
1751013405741722400,10.463722412109375,-0.006958307232707739,0.10388512164354324,0.027275295928120613
1751013405751665400,10.47366552734375,-0.013368003070354462,0.10945644974708557,0.022853383794426918
1751013405761608400,10.4836083984375,-0.018070880323648453,0.11771038919687271,-0.008390022441744804
1751013405771551500,10.493551513671875,-0.013334713876247406,0.0885050967335701,-0.028500882908701897
1751013405781494300,10.503494384765625,-0.006640592124313116,0.06115363538265228,-0.03982704132795334
1751013405791437300,10.513437255859374,0.0051625375635921955,0.050402719527482986,-0.033669281750917435
1751013405801380400,10.52338037109375,0.017197096720337868,0.05206906050443649,-0.008974852971732616
1751013405811324400,10.533324462890626,0.02521880343556404,0.05691415071487427,0.022711437195539474
1751013405821267500,10.543267333984375,0.021140173077583313,0.1264314353466034,0.09022576361894608
1751013405831210500,10.55321044921875,-0.006523679476231337,0.20048116147518158,0.22958391904830933
1751013405841153300,10.5631533203125,-0.02647608146071434,0.1742948442697525,0.34103721380233765
1751013405851096300,10.573096435546875,-0.010522149503231049,0.10269202291965485,0.3764524757862091
1751013405861039400,10.583039306640625,0.007645935285836458,0.0419037751853466,0.32678744196891785
1751013405870982400,10.592982421875,0.015394136309623718,-0.017114005982875824,0.22512419521808624
1751013405880926500,10.602926513671875,0.014229003340005875,-0.04229366034269333,0.11703421175479889
1751013405890869500,10.612869384765625,0.01852468214929104,-0.030438067391514778,0.010188987478613853
1751013405900812300,10.622812255859374,0.0390709713101387,-0.013972274959087372,-0.10059957951307297
1751013405910755300,10.63275537109375,0.05928542837500572,0.0056829191744327545,-0.1989639699459076
1751013405920698400,10.642698486328126,0.04512673243880272,0.024627048522233963,-0.2776486575603485
1751013405930641400,10.652641357421874,0.009998305700719357,0.0751248449087143,-0.26255759596824646
