time,seconds_elapsed,z,y,x
1751013379850114800,0.33611474609375,0.03596172854304314,0.028990639373660088,-0.014974155463278294
1751013379860057900,0.346057861328125,0.0442391000688076,0.03133555129170418,-0.028246551752090454
1751013379870001000,0.3560009765625,0.05031270533800125,0.03424878418445587,-0.03386262431740761
1751013379879944000,0.36594384765625,0.05156119540333748,0.030177343636751175,-0.01689882203936577
1751013379889887000,0.375886962890625,0.05825585126876831,0.026285400614142418,0.0187196247279644
1751013379899829800,0.385829833984375,0.05965640768408775,0.01359543763101101,0.05368666350841522
1751013379909772800,0.395772705078125,0.06073338910937309,0.009065666235983372,0.07416850328445435
1751013379919715800,0.4057158203125,0.061833806335926056,0.005305016878992319,0.08165411651134491
1751013379929659000,0.415658935546875,0.05820738151669502,0.0025984463281929493,0.06453797966241837
1751013379939602000,0.425601806640625,0.05684863403439522,-0.002508165081962943,0.05253031849861145
1751013379949545000,0.435544921875,0.05583743378520012,0.005841909907758236,0.040158338844776154
1751013379959488000,0.445488037109375,0.05844999477267265,0.011902465485036373,0.03448314219713211
1751013379969430000,0.455429931640625,0.051596347242593765,0.011965849436819553,0.027421770617365837
1751013379979373000,0.465373046875,0.047094542533159256,0.012986105866730213,0.022972160950303078
1751013379989316000,0.475316162109375,0.043957602232694626,0.0049281795509159565,0.018312428146600723
1751013379999259000,0.4852587890625,0.036672260612249374,0.001996838254854083,0.007485879585146904
1751013380009201700,0.49520166015625,0.02864975482225418,-0.0036812876351177692,-0.0059420447796583176
1751013380019144700,0.505144775390625,0.030476415529847145,0.003771835006773472,-0.007427023723721504
1751013380029087700,0.515087646484375,0.03380563482642174,0.013373329304158688,-0.001222390914335847
1751013380039030800,0.52503076171875,0.034272219985723495,0.02149197645485401,-0.003905259305611253
1751013380048973800,0.534973876953125,0.033252228051424026,0.019895145669579506,-0.01255014631897211
1751013380058916900,0.544916748046875,0.03417235240340233,0.01661359705030918,-0.0209438968449831
1751013380068860000,0.55485986328125,0.02971714921295643,0.027228690683841705,-0.013113139197230339
1751013380078803000,0.564802978515625,0.03341175243258476,0.03557184338569641,0.0010311759542673826
1751013380088745700,0.574745849609375,0.02551627904176712,0.036499954760074615,0.025972478091716766
1751013380098688800,0.584688720703125,0.024445155635476112,0.029519276693463326,0.04849083721637726
1751013380108631800,0.5946318359375,0.023264575749635696,0.022941535338759422,0.07023394852876663
1751013380118573800,0.60457373046875,0.02738102339208126,0.03062901459634304,0.09731350094079971
1751013380128516900,0.614516845703125,0.032341692596673965,0.04604285955429077,0.11383495479822159
1751013380138460000,0.6244599609375,0.033906832337379456,0.052813414484262466,0.1187993511557579
1751013380148403000,0.63440283203125,0.030054038390517235,0.06004895642399788,0.1030568778514862
1751013380158346000,0.644345947265625,0.03039385750889778,0.07034793496131897,0.08303416520357132
1751013380168289000,0.6542890625,0.03322852775454521,0.07761010527610779,0.05627365782856941
1751013380178232000,0.664232177734375,0.04014448821544647,0.06440428644418716,0.028564266860485077
1751013380188174800,0.6741748046875,0.04428038001060486,0.03828240931034088,0.00016165387933142483
1751013380198118000,0.684117919921875,0.037581197917461395,-0.0003177151083946228,-0.024155670776963234
1751013380208061000,0.69406103515625,0.031193871051073074,-0.02755865640938282,-0.031927306205034256
1751013380218004000,0.70400390625,0.028917402029037476,-0.027177292853593826,-0.02058090828359127
1751013380227946800,0.71394677734375,0.02070314809679985,-0.021951638162136078,0.0018429075134918094
1751013380237889800,0.723889892578125,0.013577860780060291,-0.016275376081466675,0.023961525410413742
1751013380247832800,0.733832763671875,0.013223127461969852,-0.005015264730900526,0.040170587599277496
1751013380257775900,0.74377587890625,0.009794041514396667,0.006825681775808334,0.04146328568458557
1751013380267719000,0.753718994140625,0.008821987546980381,0.014151771552860737,0.03819425776600838
1751013380277661000,0.763660888671875,0.006858705077320337,0.023356720805168152,0.03469539433717728
1751013380287604000,0.77360400390625,0.010803112760186195,0.02803110145032406,0.03844086453318596
1751013380297546500,0.78354638671875,0.01302498858422041,0.02864575944840908,0.05083495005965233
1751013380307489300,0.7934892578125,0.0175640806555748,0.022231535986065865,0.06657503545284271
1751013380317432300,0.803432373046875,0.020202739164233208,0.0205681249499321,0.07925087958574295
1751013380327375000,0.813375,0.021404357627034187,0.019085010513663292,0.08672557026147842
1751013380337318100,0.823318115234375,0.02148531749844551,0.02575649507343769,0.08471781760454178
1751013380347261200,0.83326123046875,0.023551665246486664,0.0305778831243515,0.08165518194437027
1751013380357204200,0.843204345703125,0.02111194282770157,0.02906840294599533,0.07521459460258484
1751013380367147300,0.853147216796875,0.018372349441051483,0.017711352556943893,0.059907007962465286
1751013380377090300,0.86309033203125,0.01293337531387806,0.006616357248276472,0.04224998503923416
1751013380387033300,0.873033447265625,0.012357866391539574,0.006124737672507763,0.026080336421728134
1751013380396976000,0.88297607421875,0.006991596892476082,0.0064837317913770676,0.010483799502253532
1751013380406919200,0.892919189453125,0.003799265483394265,0.00675244489684701,0.002475142013281584
1751013380416862200,0.9028623046875,0.004633633885532618,0.009780991822481155,-0.0004239752306602895
1751013380426804200,0.91280419921875,-0.00017337177996523678,0.007489341776818037,0.00301682879216969
1751013380436747300,0.922747314453125,-0.0005960154230706394,0.004751345608383417,0.010487528517842293
1751013380446690300,0.932690185546875,-0.006697850301861763,0.0005848301807418466,0.01522902026772499
1751013380456633300,0.94263330078125,-0.004850149154663086,-0.003037601476535201,0.01864958368241787
1751013380466576400,0.952576416015625,-0.006471215281635523,-0.000291616132017225,0.020906614139676094
1751013380476519400,0.96251953125,-0.005604356061667204,0.0020751350093632936,0.02430533990263939
1751013380486462500,0.97246240234375,-0.006959372665733099,-0.0029755497816950083,0.021322065964341164
1751013380496405200,0.9824052734375,-0.012657471932470798,-0.0024138891603797674,0.018212558701634407
1751013380506348300,0.992348388671875,-0.015265505760908127,-0.0055151404812932014,0.01531477365642786
1751013380516291300,1.002291259765625,-0.011742942035198212,-0.007860586047172546,0.006166016682982445
1751013380526234400,1.012234375,-0.013636183924973011,-0.009465939365327358,-0.007800132501870394
1751013380536177400,1.022177490234375,-0.015152853913605213,-0.009690443985164165,-0.020609937608242035
1751013380546120400,1.032120361328125,-0.016022643074393272,-0.009240636602044106,-0.02972300723195076
1751013380556063200,1.042063232421875,-0.011291802860796452,-0.005109274294227362,-0.03331827372312546
1751013380566006300,1.05200634765625,-0.00782489962875843,0.010192450135946274,-0.03364531323313713
1751013380575949300,1.06194921875,-0.006667756475508213,0.02334260754287243,-0.023753533139824867
1751013380585891300,1.071891357421875,0.0008905610884539783,0.032646894454956055,-0.01287398673593998
1751013380595834400,1.08183447265625,0.0013305152533575892,0.030819963663816452,-0.003783819265663624
1751013380605777200,1.091777099609375,0.0006245112745091319,0.031205058097839355,0.005776130128651857
1751013380615720200,1.10172021484375,-0.0020029633305966854,0.018973425030708313,0.004656004719436169
1751013380625663200,1.111663330078125,-0.008304002694785595,0.0029201561119407415,0.00407623453065753
1751013380635606300,1.121606201171875,-0.007642473094165325,-0.011231615208089352,0.004765193909406662
1751013380645549300,1.13154931640625,-0.008449677377939224,-0.022534603253006935,-0.0002545981842558831
1751013380655492400,1.141492431640625,-0.013585316948592663,-0.030729150399565697,0.0004665858286898583
1751013380665435400,1.151435302734375,-0.01914173737168312,-0.02623453363776207,0.0024828650057315826
1751013380675378400,1.16137841796875,-0.016761669889092445,-0.004292482975870371,0.006642722524702549
1751013380685321200,1.1713212890625,-0.013905162923038006,0.02069755457341671,0.014253770932555199
1751013380695264300,1.18126416015625,-0.014050304889678955,0.0308159701526165,0.020848024636507034
1751013380705207300,1.191207275390625,-0.008668056689202785,0.028925923630595207,0.02382197603583336
1751013380715150300,1.201150390625,-0.005227252375334501,0.02833896316587925,0.019123360514640808
1751013380725093400,1.21109326171875,-0.0021971079986542463,0.032399218529462814,0.007297860458493233
1751013380735036400,1.221036376953125,-0.0059566921554505825,0.02821698971092701,-0.014154701493680477
1751013380744979500,1.2309794921875,-0.0084877610206604,0.02232634462416172,-0.03626879304647446
1751013380754921200,1.240921142578125,-0.015616510063409805,0.00999058224260807,-0.053940463811159134
1751013380764864300,1.2508642578125,-0.018255436792969704,0.002633333671838045,-0.06434037536382675
1751013380774807300,1.260807373046875,-0.01944587007164955,-0.0007568703731521964,-0.060447629541158676
1751013380784750300,1.270750244140625,-0.01696007512509823,0.00515880947932601,-0.04218047484755516
1751013380794693000,1.280693115234375,-0.013103018514811993,0.02166481502354145,-0.01732998713850975
1751013380804636200,1.29063623046875,-0.009061405435204506,0.032592564821243286,0.005014998838305473
1751013380814579200,1.3005791015625,-0.0059257997199893,0.029983198270201683,0.007731422781944275
1751013380824522200,1.310522216796875,-0.0035481294617056847,0.016338227316737175,0.0003709783486556262
1751013380834465300,1.32046533203125,0.00036724991514347494,0.008676844649016857,-0.016105998307466507
1751013380844408300,1.330408203125,0.0008823052630759776,0.0012298477813601494,-0.03598170354962349
1751013380854351400,1.340351318359375,0.0013970943400636315,-0.004494084510952234,-0.04405134543776512
1751013380864294400,1.35029443359375,0.0007811051327735186,-0.008261658251285553,-0.04535256698727608
1751013380874237200,1.3602373046875,-0.0015249260468408465,-0.0017936390358954668,-0.02502812072634697
1751013380884180200,1.37018017578125,-0.0014476943761110306,0.006053098943084478,0.0007986819837242365
1751013380894123300,1.380123291015625,-0.00008149272616719827,0.011450793594121933,0.022246982902288437
1751013380904066300,1.39006640625,0.0028565065003931522,0.022112226113677025,0.03404824808239937
1751013380914009300,1.40000927734375,0.0057404437102377415,0.029814887791872025,0.03376515209674835
1751013380923952400,1.409952392578125,0.006044842768460512,0.025847310200333595,0.018456239253282547
1751013380933894400,1.419894287109375,0.005015531089156866,0.01716007851064205,0.00016937704640440643
1751013380943837400,1.42983740234375,0.006259493995457888,0.006960703991353512,-0.012892362661659718
1751013380953780200,1.4397802734375,0.004005660768598318,-0.0014543522847816348,-0.023270169273018837
1751013380963723300,1.44972314453125,0.0022085595410317183,-0.008363657630980015,-0.029380526393651962
1751013380973666300,1.459666259765625,0.0018599516479298472,-0.005707953125238419,-0.022228073328733444
1751013380983609000,1.469609130859375,0.004539091605693102,0.005921804811805487,-0.012587697245180607
1751013380993552100,1.47955224609375,0.004144677426666021,0.017198961228132248,-0.0015723302494734526
1751013381003495200,1.4894951171875,0.00691889226436615,0.03020557202398777,0.016752082854509354
1751013381013438200,1.499438232421875,0.006966562941670418,0.035710059106349945,0.020135361701250076
1751013381023381200,1.50938134765625,0.008548214100301266,0.03520965203642845,0.01932096667587757
1751013381033324300,1.51932421875,0.003980360459536314,0.027286216616630554,0.00672421557828784
1751013381043267300,1.529267333984375,0.002133458387106657,0.02178146131336689,-0.007734352257102728
1751013381053210400,1.53921044921875,-0.0006791060441173613,0.011937619186937809,-0.02093910425901413
1751013381063153200,1.549153076171875,-0.0023792681749910116,0.0020485036075115204,-0.028732579201459885
1751013381073096200,1.55909619140625,0.0026234800461679697,0.0070914654061198235,-0.026071015745401382
1751013381083039200,1.569039306640625,0.005432316102087498,0.016652213409543037,-0.015446334145963192
1751013381092982300,1.578982177734375,0.00811811350286007,0.020985176786780357,-0.0011829761788249016
1751013381102925300,1.58892529296875,0.010966364294290543,0.030492661520838737,0.0016990967560559511
1751013381112867300,1.598867431640625,0.017342237755656242,0.03614628687500954,0.0016279903938993812
1751013381122810400,1.608810302734375,0.015471101738512516,0.036499954760074615,-0.009209477342665195
1751013381132753400,1.61875341796875,0.012707007117569447,0.029936859384179115,-0.019881296902894974
1751013381142696400,1.628696533203125,0.010926683433353901,0.01828339882194996,-0.02183419279754162
1751013381152639500,1.638639404296875,0.009002016857266426,0.014724617823958397,-0.020431771874427795
1751013381162582300,1.648582275390625,0.006280266214162111,0.015402392484247684,-0.015429290011525154
1751013381172525300,1.658525390625,0.012769857421517372,0.019463712349534035,-0.012292618863284588
1751013381182468000,1.668468017578125,0.008554339408874512,0.021405156701803207,-0.007899735122919083
1751013381192411100,1.6784111328125,0.010313889943063259,0.019171297550201416,0.0020732709672302008
1751013381202354200,1.688354248046875,0.011559717357158661,0.014575480483472347,0.00974690355360508
1751013381212297200,1.698297119140625,0.01882908120751381,0.019215505570173264,0.016863135620951653
1751013381222240300,1.708240234375,0.020973725244402885,0.01804691180586815,0.01768844947218895
1751013381232183300,1.718183349609375,0.02352556586265564,0.015929166227579117,0.015234879218041897
1751013381242126300,1.728126220703125,0.026857979595661163,0.013204218819737434,0.01284682285040617
1751013381252069000,1.738069091796875,0.023838486522436142,0.005880259443074465,0.009442769922316074
1751013381262012200,1.74801220703125,0.019217636436223984,0.008069644682109356,0.01173442043364048
1751013381271955200,1.757955078125,0.014216220006346703,0.011769840493798256,0.015185344032943249
1751013381281898200,1.767898193359375,0.01404764223843813,0.009927199222147465,0.017674334347248077
1751013381291841500,1.777841552734375,0.01655181311070919,0.004201935604214668,0.010906975716352463
1751013381301783600,1.787783447265625,0.014831410720944405,0.0035273567773401737,0.003802461316809058
1751013381311726600,1.7977265625,0.008237423375248909,0.0032226911280304193,-0.006518885493278503
1751013381321669600,1.807669677734375,-0.0005161206354387105,-0.00006924218905624002,-0.01398718822747469
1751013381331612700,1.81761279296875,-0.008855543099343777,-0.002025866648182273,-0.01050537172704935
1751013381341555700,1.8275556640625,-0.00686190091073513,0.0025803367607295513,0.002638659905642271
1751013381351498500,1.83749853515625,0.0026051041204482317,0.006199306342750788,0.016532370820641518
1751013381361441500,1.847441650390625,0.008716260083019733,0.014158962294459343,0.024775654077529907
1751013381371384600,1.857384521484375,0.011885154992341995,0.023445405066013336,0.03086390718817711
1751013381381327600,1.86732763671875,0.013978665694594383,0.022418756037950516,0.018253039568662643
1751013381391270700,1.877270751953125,0.01263909600675106,0.020108729600906372,-0.0022913836874067783
1751013381401213700,1.887213623046875,0.009836651384830475,0.012523515149950981,-0.020130833610892296
1751013381411156700,1.89715673828125,0.0018048242200165987,-0.004378769546747208,-0.03706987202167511
1751013381421099500,1.907099609375,0.0009462211164645851,-0.020355870947241783,-0.033973414450883865
1751013381431042600,1.91704248046875,-0.0010751180816441774,-0.024225445464253426,-0.02112206257879734
1751013381440985300,1.9269853515625,-0.0017624800093472004,-0.022189192473888397,0.0007624630234204233
1751013381450928400,1.936928466796875,-0.002823483431711793,-0.013880928047001362,0.026816166937351227
1751013381460871400,1.946871337890625,-0.004484763368964195,-0.002376604825258255,0.04976382851600647
1751013381470814500,1.956814453125,-0.005164668429642916,0.008347677998244762,0.06316432356834412
1751013381480757500,1.966757568359375,-0.006679474376142025,0.017409084364771843,0.06836148351430893
1751013381490700500,1.976700439453125,-0.007125553674995899,0.023860858753323555,0.060565341264009476
1751013381500643600,1.9866435546875,0.00213585514575243,0.02364061400294304,0.04405640810728073
1751013381510585600,1.996585693359375,-0.0003576625313144177,0.020855747163295746,0.025794045999646187
1751013381520528600,2.006528564453125,0.004396346397697926,0.012914999388158321,0.010399910621345043
1751013381530471700,2.0164716796875,0.006597182713449001,0.006455236114561558,-0.00040480049210600555
1751013381540414500,2.02641455078125,0.004703674931079149,-0.0023997745011001825,-0.006515423767268658
1751013381550357500,2.036357421875,0.004253600724041462,-0.008790561929345131,-0.014001836068928242
1751013381560300500,2.046300537109375,0.0017773937433958054,-0.019272230565547943,-0.014005031436681747
1751013381570243600,2.05624365234375,0.0007629956235177815,-0.018931878730654716,-0.008108526468276978
1751013381580186600,2.0661865234375,0.0018074874533340335,-0.012556537985801697,0.011165834963321686
1751013381590129700,2.076129638671875,0.005291700828820467,-0.0029265477787703276,0.03197604417800903
1751013381600072700,2.08607275390625,0.01245081052184105,0.007905594073235989,0.051604606211185455
1751013381610015700,2.096015625,0.015856461599469185,0.017071926966309547,0.0610220730304718
1751013381619958500,2.10595849609375,0.015616776421666145,0.01727539300918579,0.049560096114873886
1751013381629901600,2.115901611328125,0.015308382920920849,0.017969679087400436,0.03375929594039917
1751013381639844600,2.1258447265625,0.012173841707408428,0.01818219944834709,0.010494186542928219
1751013381649787400,2.135787353515625,0.012599415145814419,0.009108010679483414,-0.0044322991743683815
1751013381659730400,2.14573046875,0.006101568229496479,-0.0021252024453133345,-0.015787752345204353
1751013381669673500,2.155673583984375,0.006113019771873951,-0.010586597956717014,-0.01996598392724991
1751013381679616500,2.165616455078125,0.004406199790537357,-0.013561348430812359,-0.010351174511015415
1751013381689559600,2.1755595703125,0.004661863669753075,-0.007470699492841959,0.0012040151050314307
1751013381699502600,2.185502685546875,0.006019809283316135,0.005027515348047018,0.013231117278337479
1751013381709445400,2.1954453125,0.009642773307859898,0.019601130858063698,0.01775502786040306
1751013381719388400,2.205388427734375,0.014290256425738335,0.0245484858751297,0.010205233469605446
1751013381729331500,2.21533154296875,0.012926983647048473,0.022007297724485397,-0.013592507690191269
1751013381739274500,2.2252744140625,0.011111773550510406,0.0130540169775486,-0.03879346698522568
1751013381749216500,2.235216552734375,0.009880327619612217,0.0020807278342545033,-0.06186683103442192
1751013381759159600,2.24515966796875,0.009755158796906471,-0.010836934670805931,-0.07169229537248611
1751013381769102600,2.2551025390625,0.004677576012909412,-0.019277025014162064,-0.06514304876327515
1751013381779045600,2.265045654296875,0.006180131807923317,-0.014935540035367012,-0.035714320838451385
1751013381788988700,2.27498876953125,0.0037092508282512426,-0.008382033556699753,-0.011696070432662964
1751013381798931700,2.284931640625,0.0036535905674099922,-0.0041244374588131905,0.006419549696147442
1751013381808874500,2.29487451171875,-0.0009624664089642465,0.0031489215325564146,0.013406086713075638
1751013381818817500,2.304817626953125,-0.0015811186749488115,0.01323857344686985,0.010523214936256409
1751013381828760600,2.314760498046875,0.0005736448802053928,0.015005048364400864,-0.0006799050024710596
1751013381838703600,2.32470361328125,-0.006000368390232325,0.015556056052446365,-0.01992044411599636
1751013381848646700,2.334646728515625,-0.00079735042527318,0.010629208758473396,-0.026695260778069496
1751013381858589700,2.344589599609375,0.0038312235847115517,0.008310927078127861,-0.02328028902411461
1751013381868532500,2.354532470703125,0.003626160090789199,0.00954157393425703,-0.012179967015981674
1751013381878475500,2.3644755859375,0.00108284130692482,0.010064618661999702,0.0013217268278822303
1751013381888418600,2.37441845703125,-0.003924434073269367,0.008900816552340984,0.0169086754322052
1751013381898361300,2.384361328125,-0.005789978429675102,0.010119212791323662,0.03085964545607567
1751013381908304400,2.394304443359375,-0.011509383097290993,0.005289570428431034,0.03310415893793106
1751013381918247400,2.404247314453125,-0.013262275606393814,0.006106894463300705,0.03766721859574318
1751013381928190500,2.4141904296875,-0.011455587111413479,0.0068211546167731285,0.03142716363072395
1751013381938133500,2.424133544921875,-0.008792426437139511,0.007595601491630077,0.01641758903861046
1751013381948076500,2.43407666015625,-0.008080829866230488,0.02171728014945984,-0.004600344225764275
1751013381958019600,2.44401953125,-0.006509298458695412,0.024890169501304626,-0.02340785413980484
1751013381967962600,2.453962646484375,-0.007758320774883032,0.01720615103840828,-0.04789908230304718
1751013381977905400,2.463905517578125,-0.012290221638977528,0.006642722524702549,-0.05908169597387314
1751013381987848400,2.473848388671875,-0.010367685928940773,-0.0018524948973208666,-0.06390760838985443
1751013381997790500,2.48379052734375,-0.009165002964437008,-0.009167665615677834,-0.054012101143598557
1751013382007733500,2.4937333984375,-0.009749832563102245,-0.021764418110251427,-0.03351002186536789
1751013382017676500,2.503676513671875,-0.008348210714757442,-0.020235497504472733,-0.005938316695392132
1751013382027619600,2.51361962890625,-0.006474144756793976,-0.011392736807465553,0.022915968671441078
1751013382037562600,2.523562744140625,-0.005361209623515606,0.0002990729990415275,0.04893558472394943
1751013382047505700,2.533505615234375,-0.0023965786676853895,0.00711623253300786,0.05632798746228218
1751013382057448700,2.54344873046875,-0.0018053569365292788,0.008641957305371761,0.048171788454055786
1751013382067391700,2.553391845703125,0.001549959764815867,0.008559665642678738,0.038302648812532425
1751013382077334500,2.56333447265625,0.005537244491279125,0.012819924391806126,0.02087785117328167
1751013382087277600,2.573277587890625,0.008498147130012512,0.01173415407538414,0.008964200504124165
1751013382097220400,2.583220458984375,0.009769806638360023,0.009957026690244675,-0.005916478578001261
1751013382107163400,2.593163330078125,0.009169530123472214,0.015994412824511528,-0.023430224508047104
1751013382117106400,2.6031064453125,0.009000951424241066,0.01062414888292551,-0.03538994863629341
1751013382127049500,2.613049560546875,0.007454187609255314,0.004915129859000444,-0.036796897649765015
1751013382136992500,2.622992431640625,0.009950635023415089,0.00407623453065753,-0.028903819620609283
1751013382146935600,2.632935546875,0.007276821415871382,0.0021912488155066967,-0.00869175884872675
1751013382156878600,2.642878662109375,0.004863731097429991,-0.00006870955257909372,-0.00045912896166555583
1751013382166821400,2.6528212890625,0.002293514320626855,-0.007349525578320026,0.009858756326138973
1751013382176764400,2.662764404296875,0.006479204632341862,-0.01179460808634758,0.00956634059548378
1751013382186707500,2.67270751953125,0.008404403924942017,-0.01931271143257618,0.00119602563790977
1751013382196650500,2.682650390625,0.009916546754539013,-0.020125241950154305,-0.015859922394156456
1751013382206593500,2.692593505859375,0.014209029264748096,-0.010939200408756733,-0.03689756244421005
1751013382216536600,2.70253662109375,0.018257034942507744,-0.005911951418966055,-0.06401733309030533
1751013382226479600,2.712479736328125,0.014916631393134594,0.0035052525345236063,-0.08812213689088821
1751013382236422700,2.722422607421875,0.015449530445039272,0.004537493921816349,-0.11058083921670914
1751013382246365400,2.732365478515625,0.01113494299352169,0.000025566347176209092,-0.12376029044389725
1751013382256308500,2.74230859375,0.007470166776329279,-0.00592526700347662,-0.11947180330753326
1751013382266251500,2.75225146484375,0.006453372072428465,-0.012123508378863335,-0.09774786233901978
1751013382276193500,2.762193603515625,0.005590774118900299,-0.010262757539749146,-0.05273112282156944
1751013382286136600,2.772136474609375,0.011728827841579914,0.0015297196805477142,-0.00041571943438611925
1751013382296080000,2.782079833984375,0.013362676836550236,0.00911360327154398,0.045034054666757584
1751013382306023000,2.79202294921875,0.015337144955992699,0.011945076286792755,0.06975378096103668
1751013382315966000,2.801966064453125,0.011030812747776508,0.010083526372909546,0.07372908294200897
1751013382325909000,2.811908935546875,0.014623683877289295,0.009965016506612301,0.05634476616978645
1751013382335851800,2.821851806640625,0.009543437510728836,0.008075237274169922,0.024585237726569176
1751013382345794600,2.831794677734375,0.005349758081138134,0.010174873284995556,-0.006141782272607088
1751013382355737600,2.841737548828125,0.007852330803871155,0.007772435434162617,-0.02678634040057659
1751013382365680600,2.8516806640625,0.015274027362465858,0.013258547522127628,-0.027948543429374695
1751013382375623700,2.861623779296875,0.013042565435171127,0.01919633150100708,-0.01818219944834709
1751013382385566700,2.871566650390625,0.010206298902630806,0.0183531753718853,-0.0021920478902757168
1751013382395509800,2.881509765625,0.007779359817504883,0.016561932861804962,0.008416654542088509
1751013382405452800,2.891452880859375,0.0064975805580616,0.010368485003709793,0.012886770069599152
1751013382415395800,2.901395751953125,0.003038134193047881,0.006985471583902836,0.015086008235812187
1751013382425338600,2.911338623046875,-0.0012370382901281118,0.005416869651526213,0.01720615103840828
1751013382435281700,2.92128173828125,0.0010668623726814985,0.0067931911908090115,0.018198978155851364
1751013382445224700,2.931224609375,-0.0007203850545920432,0.01768472045660019,0.01836515963077545
1751013382455167700,2.941167724609375,-0.004721251782029867,0.024869663640856743,0.017370468005537987
1751013382465110800,2.95111083984375,-0.008393485099077225,0.021683724597096443,0.018622687086462975
1751013382475053800,2.9610537109375,-0.01064971461892128,0.012954414822161198,0.019452527165412903
1751013382484996900,2.970996826171875,-0.005769472103565931,0.002907106652855873,0.01925145834684372
1751013382494940000,2.98093994140625,-0.0016397082945331931,-0.00008202536264434457,0.022107699885964394
1751013382504882700,2.990882568359375,-0.0004703142330981791,0.004346545320004225,0.024512000381946564
1751013382514825700,3.00082568359375,0.0031971249263733625,0.014621286652982235,0.019567042589187622
1751013382524768800,3.010768798828125,0.0005006743012927473,0.03226606175303459,0.013066267594695091
1751013382534711800,3.0207119140625,-0.0008285093936137855,0.046727292239665985,-0.000934236915782094
1751013382544654800,3.03065478515625,-0.0018500980222597718,0.04206782579421997,-0.016029033809900284
1751013382554598000,3.040597900390625,-0.004529770463705063,0.030674556270241737,-0.03437475115060806
1751013382564541000,3.050541015625,-0.00652687530964613,0.02237801067531109,-0.045889727771282196
1751013382574484000,3.06048388671875,-0.012367986142635345,0.008948487229645252,-0.04277835786342621
1751013382584425700,3.07042578125,-0.017846908420324326,-0.0019587550777941942,-0.019347865134477615
1751013382594368800,3.08036865234375,-0.015513712540268898,0.0006985471700318158,0.014657772146165371
1751013382604311800,3.090311767578125,-0.014319551177322865,0.012205800041556358,0.047140080481767654
1751013382614254600,3.100254638671875,-0.011533617973327637,0.02219238691031933,0.06533053517341614
1751013382624197600,3.11019775390625,-0.0014207963831722736,0.03280375152826309,0.07373441010713577
1751013382634140700,3.120140625,0.0004511394945438951,0.04255491867661476,0.06359042972326279
1751013382644083700,3.130083740234375,0.0016290555940940976,0.045163217931985855,0.0405769869685173
1751013382654026800,3.14002685546875,0.0030429279431700706,0.03557344153523445,0.012979181483387947
1751013382663969800,3.1499697265625,0.003739877138286829,0.03135232999920845,-0.0026048377621918917
1751013382673912800,3.159912841796875,0.006731672212481499,0.027270769700407982,-0.011539210565388203
1751013382683856000,3.16985595703125,-0.0007089334540069103,0.01757233589887619,-0.010785802267491817
1751013382693798700,3.179798583984375,-0.002817091764882207,0.012577044777572155,-0.0005643238546326756
1751013382703741700,3.18974169921875,-0.0005217132274992764,0.0075572519563138485,0.007872037589550018
1751013382713684700,3.199684814453125,-0.0023209447972476482,0.007232080213725567,0.021754564717411995
1751013382723627800,3.209627685546875,-0.0012522183824330568,0.007355384528636932,0.021642444655299187
1751013382733570800,3.21957080078125,-0.0014048174489289522,0.009762882255017757,0.011315238662064075
1751013382743513900,3.229513916015625,-0.003962783608585596,0.009211075492203236,-0.006881874520331621
1751013382753457000,3.239456787109375,-0.0011856392957270145,0.0051833102479577065,-0.021454691886901855
1751013382763400000,3.24939990234375,-0.0021523667965084314,0.001669003046117723,-0.02647262066602707
1751013382773342700,3.2593427734375,-0.0011124024167656898,0.010012419894337654,-0.020110594108700752
1751013382783285800,3.26928564453125,-0.0007155913626775146,0.019329223781824112,-0.0027499801944941282
1751013382793228800,3.279228759765625,-0.0009001484140753746,0.02261769399046898,0.005556153133511543
1751013382803171800,3.289171875,0.000966727442573756,0.026762105524539948,0.010597783140838146
1751013382813115000,3.299114990234375,0.000027164242055732757,0.026549585163593292,0.007208910770714283
1751013382823058000,3.309057861328125,0.0011981561547145247,0.023734357208013535,-0.008626511320471764
1751013382833001000,3.3190009765625,0.0011491540353745222,0.018609371036291122,-0.019225625321269035
1751013382842944000,3.328944091796875,-0.0015864450251683593,0.014123808592557907,-0.02124643325805664
1751013382852886800,3.33888671875,-0.0002537992550060153,0.013434582389891148,-0.01726127788424492
1751013382862829600,3.34882958984375,0.0010985539993271232,0.014446317218244076,-0.011657188646495342
1751013382872772600,3.358772705078125,0.0023097596131265163,0.014179201796650887,-0.008108792826533318
1751013382882715600,3.368715576171875,0.007121292874217033,0.013429256156086922,0.0007515440811403096
1751013382892658700,3.37865869140625,0.0076147764921188354,0.013070794753730297,0.008097341284155846
1751013382902601700,3.388601806640625,0.009912285953760147,0.013969877734780312,0.022517027333378792
1751013382912544800,3.398544677734375,0.012619654648005962,0.009039567783474922,0.024686969816684723
1751013382922487800,3.40848779296875,0.010463826358318329,0.003623230615630746,0.02249971590936184
1751013382932429800,3.418429931640625,0.010047041811048985,0.0035217641852796078,0.01528521254658699
1751013382942372900,3.428372802734375,0.008312257938086987,0.00669438811019063,0.01028885692358017
1751013382952316000,3.43831591796875,0.006449643522500992,0.012373046018183231,0.005863215308636427
1751013382962258700,3.4482587890625,0.005878129042685032,0.012528042308986187,0.002886600326746702
1751013382972201700,3.45820166015625,0.003877029987052083,0.00657534459605813,-0.009988185949623585
1751013382982144800,3.468144775390625,0.0010484865633770823,0.0012833772925660014,-0.025315476581454277
1751013382992087800,3.478087890625,0.0006543386843986809,-0.007035805378109217,-0.03784671425819397
1751013383002030800,3.48803076171875,0.002584597794339061,-0.004465854726731777,-0.041729602962732315
1751013383011974000,3.497973876953125,0.006788664031773806,0.0022032330743968487,-0.04700293019413948
1751013383021917000,3.5079169921875,0.0015448997728526592,0.0076153092086315155,-0.03761421889066696
1751013383031860000,3.51785986328125,0.002569684060290456,0.00854714959859848,-0.03609355539083481
1751013383041803000,3.527802978515625,0.0029313412960618734,0.006645918358117342,-0.02696637064218521
1751013383051745800,3.537745849609375,0.005175853613764048,-0.002290318487212062,-0.026767166331410408
1751013383061688800,3.547688720703125,0.007995874620974064,-0.0054693338461220264,-0.0284124668687582
1751013383071631600,3.557631591796875,0.0075998627580702305,-0.005050684791058302,-0.03600354120135307
1751013383081574700,3.56757470703125,0.008615059778094292,0.005319930613040924,-0.04241403564810753
1751013383091517700,3.577517578125,0.005248824134469032,0.010949053801596165,-0.049422409385442734
1751013383101460700,3.587460693359375,0.004397145472466946,0.014575480483472347,-0.051965996623039246
1751013383111403800,3.59740380859375,0.0003147856332361698,0.014603976160287857,-0.05137770250439644
1751013383121346800,3.607346923828125,0.002755572786554694,0.015401327051222324,-0.03646240383386612
1751013383131289600,3.61728955078125,0.004485029727220535,0.016277506947517395,-0.013593573123216629
1751013383141232600,3.627232666015625,0.006311425473541021,0.020660802721977234,0.011365572921931744
1751013383151175700,3.63717578125,0.003605121048167348,0.02087971568107605,0.030835410580039024
1751013383161118700,3.64711865234375,-0.0010484865633770823,0.02250903658568859,0.040054742246866226
1751013383171061800,3.657061767578125,-0.0005914880894124508,0.02401239238679409,0.04764261841773987
1751013383181004800,3.6670048828125,0.002755572786554694,0.02761697955429554,0.04850814864039421
1751013383190947800,3.67694775390625,0.008028099313378334,0.03323198854923248,0.05329278111457825
1751013383200891000,3.686890869140625,0.008620119653642178,0.03485412150621414,0.04638800397515297
1751013383210833700,3.696833740234375,0.011651329696178436,0.03440644219517708,0.027356790378689766
1751013383220776700,3.706776611328125,0.01896197348833084,0.037754833698272705,0.007783354725688696
1751013383230719700,3.7167197265625,0.01937875710427761,0.04536135494709015,-0.017116669565439224
1751013383240662800,3.726662841796875,0.01139912847429514,0.04426652938127518,-0.040406279265880585
1751013383250605800,3.736605712890625,0.011476626619696617,0.03226206451654434,-0.04639066755771637
1751013383260548900,3.746548828125,0.012500345706939697,0.019629893824458122,-0.044749628752470016
1751013383270492000,3.756491943359375,0.010045443661510944,0.01894892379641533,-0.03334570676088333
1751013383280435000,3.76643505859375,0.010602843016386032,0.022394254803657532,-0.021455757319927216
1751013383290377700,3.776377685546875,0.006174805108457804,0.024112526327371597,-0.01636805385351181
1751013383300320300,3.7863203125,0.002341717481613159,0.016415458172559738,-0.02028263546526432
1751013383310263000,3.796262939453125,0.002243979601189494,0.012575979344546795,-0.026217754930257797
1751013383320206000,3.8062060546875,0.005579322576522827,0.005816343706101179,-0.02767849899828434
1751013383330149000,3.816149169921875,0.004343882203102112,0.0028839372098445892,-0.02876373752951622
1751013383340092200,3.826092041015625,0.005556685384362936,0.0001877528557088226,-0.033190175890922546
1751013383350035200,3.83603515625,0.0032285500783473253,0.006087187211960554,-0.03873461112380028
1751013383359978200,3.845978271484375,0.0021084246691316366,0.009378055110573769,-0.036671727895736694
1751013383369921300,3.85592138671875,-0.002620816696435213,0.012589561752974987,-0.04079936072230339
1751013383379864300,3.8658642578125,-0.009968211874365807,0.010754376649856567,-0.04337490350008011
1751013383389807000,3.87580712890625,-0.010367685928940773,0.007574296556413174,-0.04488358646631241
1751013383399750100,3.885750244140625,-0.012019111774861813,0.004315119702368975,-0.041122935712337494
1751013383409693000,3.89569287109375,-0.005839779507368803,0.005037635564804077,-0.03425570949912071
1751013383419636000,3.905635986328125,-0.002246110001578927,0.011608718894422054,-0.030165625736117363
1751013383429579000,3.9155791015625,0.0024983114562928677,0.01631239429116249,-0.02544250898063183
1751013383439522000,3.92552197265625,0.006178533658385277,0.017914285883307457,-0.030131537467241287
1751013383449465000,3.935465087890625,0.010559167712926865,0.017797639593482018,-0.0416603609919548
1751013383459408100,3.945408203125,0.012478773482143879,0.016268186271190643,-0.05778393894433975
1751013383469351200,3.95535107421875,0.012918195687234402,0.01630653440952301,-0.0641195997595787
1751013383479294000,3.9652939453125,0.013286776840686798,0.01900298520922661,-0.05921671912074089
1751013383489237000,3.975237060546875,0.011679825372993946,0.014280668459832668,-0.049606699496507645
1751013383499180000,3.985179931640625,0.0002990729990415275,0.014568289741873741,-0.040463004261255264
1751013383509123000,3.995123046875,-0.00177952426020056,0.01581891067326069,-0.03232704848051071
1751013383519066000,4.005066162109375,-0.007871771231293678,0.005373460240662098,-0.023485617712140083
1751013383529009200,4.015009033203125,-0.00686163455247879,0.0015241270884871483,-0.01877049170434475
1751013383538952200,4.0249521484375,-0.007837150245904922,0.005163336638361216,-0.01004837267100811
1751013383548895200,4.034895263671875,-0.004549211822450161,0.010692858137190342,-0.0020714066922664642
1751013383558838000,4.044838134765625,0.004002464935183525,0.015454057604074478,0.0020908478181809187
1751013383568781000,4.054781005859375,0.0026256104465574026,0.021283984184265137,0.0013701963471248746
1751013383578724000,4.06472412109375,0.00002450108149787411,0.034451182931661606,-0.009623865596950054
1751013383588667100,4.074667236328125,-0.00011584750609472394,0.031535554677248,-0.019538814201951027
1751013383598610200,4.084610107421875,-0.0018610169645398855,0.024628380313515663,-0.03182584047317505
1751013383608553200,4.09455322265625,0.001050617080181837,0.013159478083252907,-0.03545146808028221
1751013383618496300,4.104496337890625,0.0004724447790067643,0.007278685458004475,-0.036163330078125
1751013383628439300,4.114439208984375,0.006707703694701195,0.008856608532369137,-0.03218163922429085
1751013383638382000,4.124382080078125,0.004058124963194132,0.01775449514389038,-0.03247405216097832
1751013383648325000,4.1343251953125,0.005372128449380398,0.026973560452461243,-0.04219219461083412
1751013383658268200,4.14426806640625,0.0023840616922825575,0.03039013035595417,-0.05988996475934982
1751013383668211200,4.154211181640625,-0.0011725898366421461,0.02346005290746689,-0.08245998620986938
1751013383678154200,4.164154296875,0.0013736584223806858,0.01540798507630825,-0.0975840836763382
1751013383688097300,4.17409716796875,-0.002802444389089942,0.007778827100992203,-0.09460800141096115
1751013383698040000,4.1840400390625,0.0005936186062172055,0.006171609275043011,-0.06771592795848846
1751013383707983000,4.193983154296875,0.002007490722462535,0.00908617302775383,-0.021081317216157913
1751013383717925000,4.203925048828125,0.0035276231355965137,0.014338192529976368,0.026322150602936745
1751013383727868200,4.2138681640625,0.008974852971732616,0.021326327696442604,0.05387042090296745
1751013383737811200,4.223811279296875,0.009633985348045826,0.030557110905647278,0.0650855228304863
1751013383747754000,4.23375390625,0.017763817682862282,0.03508208692073822,0.045460693538188934
1751013383757697000,4.243697021484375,0.014970427379012108,0.030368026345968246,0.01137116551399231
1751013383767640000,4.25364013671875,0.02147573046386242,0.018375545740127563,-0.019930299371480942
1751013383777583000,4.2635830078125,0.020049074664711952,0.01709083653986454,-0.03731993958353996
1751013383787526100,4.273526123046875,0.018548117950558662,0.01613635942339897,-0.03785177320241928
1751013383797469200,4.28346923828125,0.015916382893919945,0.015497466549277306,-0.03220480680465698
1751013383807412200,4.293412109375,0.012442022562026978,0.018326809629797935,-0.022819295525550842
1751013383817355300,4.303355224609375,0.014368286356329918,0.018312161788344383,-0.004465588368475437
1751013383827298000,4.313298095703125,0.009692574851214886,0.014093182049691677,0.0070645674131810665
1751013383837241000,4.323240966796875,0.011198858730494976,0.014139520935714245,0.015426360070705414
1751013383847184100,4.33318408203125,0.01245160959661007,0.018798988312482834,0.0127584058791399
1751013383857127200,4.343127197265625,0.018549982458353043,0.023269103839993477,0.005234176758676767
1751013383867070200,4.3530703125,0.019217103719711304,0.026154639199376106,-0.01642424613237381
1751013383877013200,4.36301318359375,0.023090405389666557,0.023986026644706726,-0.03538302332162857
1751013383886956300,4.372956298828125,0.01961844228208065,0.01768472045660019,-0.04717336967587471
1751013383896899300,4.3828994140625,0.022243520244956017,0.011271828785538673,-0.05029033496975899
1751013383906842000,4.392842041015625,0.020737236365675926,0.013513677753508091,-0.04117326810956001
1751013383916785200,4.40278515625,0.01595127023756504,0.00875034835189581,-0.030060430988669395
1751013383926728000,4.41272802734375,0.0158306285738945,0.011563179083168507,-0.01660454273223877
1751013383936671000,4.4226708984375,0.014976286329329014,0.01823253370821476,-0.001264468883164227
1751013383946614000,4.432614013671875,0.012774650938808918,0.020863469690084457,0.004829376470297575
1751013383956557000,4.44255712890625,0.012010057456791401,0.019053585827350616,0.00350392097607255
1751013383966500000,4.4525,0.011032943613827229,0.017678596079349518,-0.00785739067941904
1751013383976443100,4.462443115234375,0.015276957303285599,0.019114039838314056,-0.017133712768554688
1751013383986386200,4.47238623046875,0.01829964481294155,0.02407231368124485,-0.024811873212456703
1751013383996329000,4.482328857421875,0.024262728169560432,0.02473623864352703,-0.030611971393227577
1751013384006272000,4.49227197265625,0.02731337957084179,0.01136876828968525,-0.023864585906267166
1751013384016215000,4.502215087890625,0.03211798891425133,-0.0014831144362688065,-0.017791513353586197
1751013384026158000,4.512157958984375,0.032159801572561264,-0.01775689236819744,0.0033566481433808804
1751013384036101000,4.52210107421875,0.03377314284443855,-0.03219388797879219,0.011817777529358864
1751013384046044200,4.532044189453125,0.03169028460979462,-0.0448463000357151,0.02267521806061268
1751013384055987200,4.5419873046875,0.030959779396653175,-0.04176369309425354,0.031033815816044807
1751013384065930200,4.55193017578125,0.02648460492491722,-0.019894080236554146,0.03014352172613144
1751013384075873000,4.561873046875,0.018330803140997887,0.004320446401834488,0.029217272996902466
1751013384085816000,4.571816162109375,0.009072324261069298,0.02846200205385685,0.018877817317843437
1751013384095759000,4.581759033203125,-0.004021639470010996,0.030772292986512184,-0.002463157754391432
1751013384105702100,4.5917021484375,-0.014149907045066357,0.017788052558898926,-0.031022630631923676
1751013384115645200,4.601645263671875,-0.021691979840397835,0.0012066783383488655,-0.04018177464604378
1751013384125588200,4.611588134765625,-0.026606043800711632,-0.01531530637294054,-0.031142206862568855
1751013384135531300,4.62153125,-0.03706294670701027,-0.047082025557756424,-0.010892595164477825
1751013384145474300,4.631474365234375,-0.03823287412524223,-0.07652407139539719,0.007287740241736174
1751013384155417000,4.6414169921875,-0.03281760215759277,-0.08947288990020752,0.021449364721775055
1751013384165360000,4.651360107421875,-0.023661652579903603,-0.09983818233013153,0.032217856496572495
1751013384175302100,4.66130224609375,-0.01432114839553833,-0.10064911097288132,0.041438255459070206
1751013384185245000,4.671244873046875,-0.0046384274028241634,-0.09795745462179184,0.0557924248278141
1751013384195188000,4.68118798828125,0.00293347192928195,-0.09230942279100418,0.07554642111063004
1751013384205131000,4.691131103515625,0.019409917294979095,-0.07473016530275345,0.08547735214233398
1751013384215074000,4.701073974609375,0.03117309883236885,-0.051953211426734924,0.0822695717215538
1751013384225017000,4.71101708984375,0.04133492335677147,-0.02581189014017582,0.061654575169086456
1751013384234960100,4.720960205078125,0.053889863193035126,-0.0070091737434268,0.03846083953976631
1751013384244903200,4.730903076171875,0.06097067520022392,0.009707488119602203,0.018250109627842903
1751013384254846200,4.74084619140625,0.06826667487621307,0.03493880853056908,0.022478144615888596
1751013384264789000,4.7507890625,0.0691756084561348,0.051664792001247406,0.03973329812288284
1751013384274732000,4.76073193359375,0.06251291185617447,0.06037066504359245,0.07212479412555695
1751013384284675000,4.770675048828125,0.0519351027905941,0.05999649316072464,0.10062780976295471
1751013384294617600,4.78061767578125,0.036076243966817856,0.052442967891693115,0.12299250066280365
1751013384304560600,4.790560546875,0.017483917996287346,0.041850510984659195,0.1298522651195526
1751013384314503700,4.800503662109375,0.005075452383607626,0.026824690401554108,0.13524916768074036
1751013384324446700,4.81044677734375,-0.011861452832818031,0.010550645180046558,0.12646552920341492
1751013384334389800,4.8203896484375,-0.017857294529676437,0.00794447585940361,0.11618918925523758
1751013384344332800,4.830332763671875,-0.015992281958460808,0.023274429142475128,0.10367126762866974
1751013384354275600,4.840275634765625,-0.010805243626236916,0.05030737817287445,0.09040206670761108
1751013384364218600,4.850218505859375,-0.004890629090368748,0.06379522383213043,0.07931532710790634
1751013384374161700,4.86016162109375,0.0016903083305805922,0.0697050467133522,0.07630649209022522
1751013384384104700,4.870104736328125,0.012476909905672073,0.07852809876203537,0.074894480407238
1751013384394047700,4.8800478515625,0.02088344469666481,0.0759645402431488,0.07783807069063187
1751013384403990500,4.889990478515625,0.02286749891936779,0.05860419198870659,0.07490380108356476
1751013384413933600,4.89993359375,0.025793246924877167,0.046366434544324875,0.06957082450389862
1751013384423876600,4.909876708984375,0.028843898326158524,0.034499652683734894,0.056001216173172
1751013384433819600,4.919819580078125,0.026644393801689148,0.01756620965898037,0.04039802402257919
1751013384443762400,4.929762451171875,0.023737020790576935,0.0007685882737860084,0.016655143350362778
1751013384453705500,4.93970556640625,0.021462414413690567,-0.003064765827730298,-0.005191832315176725
1751013384463648500,4.9496484375,0.015743009746074677,-0.002808303339406848,-0.024921327829360962
1751013384473591600,4.959591552734375,0.017962755635380745,0.009552492760121822,-0.03747307136654854
1751013384483534600,4.96953466796875,0.013983193784952164,0.02021845243871212,-0.040160201489925385
1751013384493477600,4.9794775390625,0.018141720443964005,0.030660174787044525,-0.04029522463679314
1751013384503420700,4.989420654296875,0.017420003190636635,0.029518743976950645,-0.03766295686364174
1751013384513363700,4.99936376953125,0.019540678709745407,0.012761867605149746,-0.04294773191213608
1751013384523306500,5.009306396484375,0.015906527638435364,-0.002784601179882884,-0.05440199002623558
1751013384533249500,5.01924951171875,0.008562861941754818,-0.013147760182619095,-0.06592149287462234
1751013384543192600,5.029192626953125,-0.0002644518972374499,-0.022311430424451828,-0.07565081864595413
1751013384553135600,5.039135498046875,-0.008755940943956375,-0.025725070387125015,-0.0773634985089302
1751013384563078700,5.04907861328125,-0.01787007786333561,-0.027399400249123573,-0.07561886310577393
1751013384573021700,5.059021728515625,-0.018271150067448616,-0.013844708912074566,-0.06976602971553802
1751013384582964700,5.06896484375,-0.018398182466626167,-0.0031212246976792812,-0.06192382052540779
1751013384592907800,5.07890771484375,-0.015002917498350143,0.022949257865548134,-0.053350839763879776
1751013384602850600,5.0888505859375,-0.013498764485120773,0.04524897038936615,-0.050992079079151154
1751013384612793600,5.098793701171875,-0.010252105072140694,0.05626806616783142,-0.04851347208023071
1751013384622736600,5.108736572265625,-0.011769307777285576,0.04680505394935608,-0.0592779703438282
1751013384632679700,5.1186796875,-0.011745605617761612,0.023082682862877846,-0.06925204396247864
1751013384642622700,5.128622802734375,-0.013038303703069687,-0.002170742489397526,-0.08067380636930466
1751013384652565800,5.138565673828125,-0.010700315237045288,-0.015379222109913826,-0.08487467467784882
1751013384662508800,5.1485087890625,-0.009461145848035812,-0.014054033905267715,-0.08611437678337097
1751013384672451800,5.158451904296875,-0.010422547347843647,-0.004188619554042816,-0.07985781133174896
1751013384682394600,5.16839453125,-0.004773982334882021,0.014514227397739887,-0.06939585506916046
1751013384692337400,5.17833740234375,-0.004742290824651718,0.03418486937880516,-0.05728166550397873
1751013384702279700,5.18827978515625,-0.004793423693627119,0.03586612269282341,-0.054120227694511414
1751013384712222500,5.198222412109375,-0.006932474672794342,0.018017616122961044,-0.059610866010189056
1751013384722165500,5.20816552734375,-0.011433749459683895,0.008539426140487194,-0.06504903733730316
1751013384732108500,5.218108642578125,-0.011446266435086727,0.005315402988344431,-0.06397312134504318
1751013384742051600,5.228051513671875,-0.011300325393676758,0.006666957400739193,-0.05692187324166298
1751013384751994600,5.23799462890625,-0.011246529407799244,0.009709885343909264,-0.05119873955845833
1751013384761937700,5.247937744140625,-0.011054248549044132,0.006302903406322002,-0.04902293533086777
1751013384771880700,5.257880615234375,-0.009321596473455429,0.008408931083977222,-0.057011887431144714
1751013384781823700,5.26782373046875,-0.004824848845601082,0.01264096051454544,-0.0731559693813324
1751013384791766500,5.2777666015625,-0.007879228331148624,0.008193215355277061,-0.09189583361148834
1751013384801709600,5.28770947265625,0.0026101642288267612,0.005349758081138134,-0.10385528951883316
1751013384811652600,5.297652587890625,0.007412376347929239,-0.004573978949338198,-0.10629235208034515
1751013384821595600,5.307595703125,0.013131247833371162,-0.009164203889667988,-0.09004253894090652
1751013384831538700,5.31753857421875,0.02093937061727047,-0.010253436863422394,-0.06568926572799683
1751013384841481700,5.327481689453125,0.02640470862388611,-0.01332699041813612,-0.04237009212374687
1751013384851424800,5.3374248046875,0.025183117017149925,-0.015165637247264385,-0.020073309540748596
1751013384861367800,5.347367919921875,0.02292342483997345,-0.016741961240768433,-0.010942928493022919
1751013384871310600,5.357310546875,0.028056135401129723,-0.015181615948677063,-0.007767109200358391
1751013384881253600,5.367253662109375,0.030961377546191216,-0.007366569712758064,-0.007423827890306711
1751013384891196700,5.37719677734375,0.033848777413368225,0.0012434299569576979,-0.0038599856197834015
1751013384901139700,5.3871396484375,0.03916231542825699,0.011900069192051888,-0.0015472965314984322
1751013384911082500,5.39708251953125,0.04159644618630409,0.005539108533412218,-0.0049398974515497684
1751013384921025500,5.407025634765625,0.03887709230184555,-0.0024399880785495043,-0.00914289802312851
1751013384930968600,5.416968505859375,0.03364850580692291,-0.009808422066271305,-0.017737185582518578
1751013384940911600,5.42691162109375,0.02719114162027836,-0.013320865109562874,-0.021322332322597504
1751013384950854700,5.436854736328125,0.024231836199760437,-0.017401892691850662,-0.027350131422281265
1751013384960797400,5.44679736328125,0.015380820259451866,-0.01907755434513092,-0.031297467648983
1751013384970740500,5.456740478515625,0.013464676216244698,-0.011804994195699692,-0.035532426089048386
1751013384980683500,5.46668359375,0.011038269847631454,-0.009100819937884808,-0.03614974766969681
1751013384990626600,5.47662646484375,0.008518386632204056,0.0012351741315796971,-0.028208734467625618
1751013385000569600,5.486569580078125,0.012397014535963535,0.008159126155078411,-0.010726413689553738
1751013385010512600,5.4965126953125,0.018809907138347626,0.01452914159744978,0.01327186357229948
1751013385020455700,5.50645556640625,0.025831863284111023,0.017292171716690063,0.037403564900159836
1751013385030398700,5.516398681640625,0.030667098239064217,0.01840776950120926,0.04874064028263092
1751013385040341500,5.526341552734375,0.039077095687389374,0.009188704192638397,0.04348675534129143
1751013385050284500,5.536284423828125,0.04128645360469818,0.005301821045577526,0.026824424043297768
1751013385060227600,5.5462275390625,0.04302123561501503,0.004305532667785883,0.010926949791610241
1751013385070170600,5.556170654296875,0.04250485077500343,0.004594751633703709,-0.006797718815505505
1751013385080113700,5.56611376953125,0.03609488904476166,0.0030043120495975018,-0.024749288335442543
1751013385090056700,5.576056640625,0.02545103058218956,-0.000245543458731845,-0.039920784533023834
1751013385099999700,5.585999755859375,0.01865704171359539,-0.004355067387223244,-0.04807964339852333
1751013385109942800,5.59594287109375,0.011831359006464481,0.00009108010999625549,-0.040763143450021744
1751013385119885600,5.605885498046875,0.01411448698490858,0.0043910201638937,-0.02112472616136074
1751013385129828600,5.61582861328125,0.017018398270010948,0.008770588785409927,0.009165002964437008
1751013385139771600,5.625771728515625,0.026944799348711967,0.01575792394578457,0.047448474913835526
1751013385149714700,5.635714599609375,0.0384690947830677,0.02503371424973011,0.08289515227079391
1751013385159657700,5.64565771484375,0.04785061255097389,0.03217364847660065,0.1055983304977417
1751013385169600800,5.655600830078125,0.047566186636686325,0.02768675424158573,0.1086745485663414
1751013385179543800,5.665543701171875,0.04545003920793533,0.011257714591920376,0.08846994489431381
1751013385189486600,5.675486572265625,0.041902974247932434,-0.01828473061323166,0.04929724335670471
1751013385199429600,5.6854296875,0.03768133372068405,-0.0476122610270977,0.013116600923240185
1751013385209372400,5.695372314453125,0.035177163779735565,-0.05028181150555611,-0.00361737166531384
1751013385219315500,5.7053154296875,0.03237098827958107,-0.03133528679609299,-0.00800226628780365
1751013385229258500,5.715258544921875,0.030794663354754448,0.013015400618314743,-0.0021760689560323954
1751013385239201500,5.725201416015625,0.02984737791121006,0.07671262323856354,0.012615393847227097
1751013385249144600,5.73514453125,0.03441496565937996,0.13188053667545319,0.03134993463754654
1751013385259087600,5.745087646484375,0.04119670391082764,0.17852286994457245,0.0526493638753891
1751013385269030700,5.75503076171875,0.05213430896401405,0.2236381471157074,0.07293333113193512
1751013385278973700,5.7649736328125,0.061939533799886703,0.2513211667537689,0.07793554663658142
1751013385288916500,5.77491650390625,0.07301481813192368,0.27825692296028137,0.07592538744211197
1751013385298859300,5.784859375,0.08363870531320572,0.28497394919395447,0.05962711200118065
1751013385308802300,5.79480224609375,0.07773686945438385,0.25494495034217834,0.04557254537940025
1751013385318745300,5.804745361328125,0.07332082092761993,0.20547060668468475,0.04063158109784126
1751013385328688400,5.8146884765625,0.061952847987413406,0.1390012949705124,0.04157620668411255
1751013385338631400,5.82463134765625,0.05338306352496147,0.0705636516213417,0.05552317947149277
1751013385348574500,5.834574462890625,0.04260152205824852,0.023429958149790764,0.06852393597364426
1751013385358517200,5.844517333984375,0.031316909939050674,0.007303186692297459,0.08334149420261383
1751013385368460300,5.854460205078125,0.03271320462226868,0.002112419344484806,0.0898744985461235
1751013385378403000,5.864403076171875,0.03616892173886299,0.017660751938819885,0.08858366310596466
1751013385388346000,5.87434619140625,0.04363775998353958,0.026729349046945572,0.0706387460231781
1751013385398289200,5.8842890625,0.047383226454257965,0.0355721078813076,0.05078035593032837
1751013385408232200,5.894232177734375,0.049003761261701584,0.04350167140364647,0.02106853388249874
1751013385418175200,5.90417529296875,0.04797178506851196,0.04416293278336525,-0.012799152173101902
1751013385428118300,5.9141181640625,0.04679493606090546,0.034629616886377335,-0.03675534948706627
1751013385438061300,5.924061279296875,0.039864856749773026,0.01926264353096485,-0.05226826295256615
1751013385448003300,5.93400341796875,0.03705975040793419,0.003969707991927862,-0.055607870221138
1751013385457947100,5.943947021484375,0.029561886563897133,-0.00449807895347476,-0.047513723373413086
1751013385467889400,5.953889404296875,0.032230641692876816,-0.013640178367495537,-0.033303096890449524
1751013385477832200,5.963832275390625,0.028963474556803703,-0.012428440153598785,-0.025722939521074295
1751013385487775200,5.973775146484375,0.026253441348671913,-0.01077142171561718,-0.021585186943411827
1751013385497718300,5.98371826171875,0.025946378707885742,-0.015739016234874725,-0.029407955706119537
1751013385507661300,5.993661376953125,0.017654893919825554,-0.020745225250720978,-0.04360580071806908
1751013385517604400,6.003604248046875,0.01571318320930004,-0.02797810547053814,-0.03519740328192711
1751013385527547400,6.01354736328125,0.009554356336593628,-0.03567943349480629,-0.022246450185775757
1751013385537490400,6.023490478515625,0.006013417616486549,-0.03413000702857971,-0.005003280472010374
1751013385547433500,6.03343359375,0.0010247844038531184,-0.025198563933372498,0.013349094428122044
1751013385557376500,6.04337646484375,-0.005861883983016014,-0.016989635303616524,0.023810524493455887
1751013385567319300,6.0533193359375,-0.01380875613540411,-0.006460562348365784,0.030548587441444397
1751013385577262300,6.063262451171875,-0.015842612832784653,-0.0010420948965474963,0.023989755660295486
1751013385587205000,6.073205078125,-0.023133281618356705,-0.00043782367720268667,0.007694405037909746
1751013385597148200,6.083148193359375,-0.03593190014362335,0.0032232238445430994,-0.016816796734929085
1751013385607091200,6.09309130859375,-0.04411552846431732,0.011531753465533257,-0.03527409955859184
1751013385617034200,6.1030341796875,-0.038537804037332535,0.027424167841672897,-0.04123212397098541
1751013385626977300,6.112977294921875,-0.039873380213975906,0.04446147382259369,-0.03164234757423401
1751013385636920300,6.12292041015625,-0.03705575689673424,0.06162474676966667,-0.010968495160341263
1751013385646863000,6.132863037109375,-0.02706757001578808,0.07179669290781021,0.014299577102065086
1751013385656806100,6.14280615234375,-0.02033696323633194,0.06919025629758835,0.04107899218797684
1751013385666749200,6.152749267578125,-0.015307051129639149,0.05752614513039589,0.05994855612516403
1751013385676692200,6.162692138671875,-0.01864825189113617,0.034327082335948944,0.061775483191013336
1751013385686635300,6.17263525390625,-0.01896223984658718,0.011460913345217705,0.05656793713569641
1751013385696578300,6.182578369140625,-0.02243766374886036,-0.010994061827659607,0.048107609152793884
1751013385706521300,6.192521240234375,-0.019356919452548027,-0.019477561116218567,0.04441007599234581
1751013385716464400,6.20246435546875,-0.021586252376437187,-0.019710320979356766,0.04470648616552353
1751013385726407200,6.2124072265625,-0.02112738974392414,-0.01593715511262417,0.050754256546497345
1751013385736350200,6.22235009765625,-0.013498498126864433,-0.010458766482770443,0.05308425799012184
1751013385746293200,6.232293212890625,-0.0032170985359698534,-0.004570517223328352,0.05070685222744942
1751013385756236300,6.242236328125,0.0010319749126210809,0.0009598032338544726,0.0436239093542099
1751013385766179300,6.252179443359375,0.0008932242053560913,0.005246161017566919,0.028867600485682487
1751013385776122400,6.262122314453125,0.006819023750722408,0.0007840346079319715,0.01818166673183441
1751013385786065400,6.2720654296875,0.004885302856564522,-0.011200456880033016,0.008638229221105576
1751013385796008400,6.282008544921875,-0.0011587414192035794,-0.02905775047838688,0.0108270812779665
1751013385805951200,6.291951171875,-0.0086014773696661,-0.0356069952249527,0.01925092563033104
1751013385815894300,6.301894287109375,-0.010201770812273026,-0.03513801470398903,0.035283420234918594
1751013385825837300,6.31183740234375,-0.013428190723061562,-0.023095732554793358,0.05282779410481453
1751013385835780400,6.3217802734375,-0.01920085959136486,-0.005083708092570305,0.05739724636077881
1751013385845723400,6.331723388671875,-0.02425340749323368,0.0022652847692370415,0.04139537736773491
1751013385855666400,6.34166650390625,-0.03014378808438778,0.0043505397625267506,0.011402323842048645
1751013385865609200,6.351609130859375,-0.030642863363027573,-0.005771602503955364,-0.03267858549952507
1751013385875552300,6.36155224609375,-0.030538734048604965,-0.010849718004465103,-0.06615424901247025
1751013385885495300,6.371495361328125,-0.03434359282255173,-0.011533085256814957,-0.07849907130002975
1751013385895438000,6.38143798828125,-0.03512682765722275,-0.01426468975841999,-0.06474943459033966
1751013385905381000,6.391381103515625,-0.033793382346630096,-0.009786850772798061,-0.03976206108927727
1751013385915324200,6.40132421875,-0.032773394137620926,-0.0034551850985735655,-0.01811881549656391
1751013385925267200,6.41126708984375,-0.03151345252990723,0.0012002866715192795,-0.009404687210917473
1751013385935210200,6.421210205078125,-0.02532666176557541,-0.00276196445338428,-0.01380928885191679
1751013385945153300,6.4311533203125,-0.021575067192316055,-0.0005073322099633515,-0.027282221242785454
1751013385955096300,6.441096435546875,-0.018998458981513977,0.006083991378545761,-0.04090562090277672
1751013385965039400,6.451039306640625,-0.011707255616784096,0.0001549959706608206,-0.05589122697710991
1751013385974982100,6.460982177734375,-0.012516857124865055,-0.005615807604044676,-0.062372297048568726
1751013385984925200,6.47092529296875,-0.00824061967432499,-0.008679774589836597,-0.06765148043632507
1751013385994868200,6.4808681640625,-0.00552259711548686,-0.014495852403342724,-0.07014074176549911
1751013386004811300,6.490811279296875,-0.007956193760037422,-0.014035125263035297,-0.07293172925710678
1751013386014754300,6.50075439453125,-0.01047474518418312,-0.01116397138684988,-0.06935856491327286
1751013386024697300,6.510697265625,-0.010215885937213898,-0.0070672305300831795,-0.06083538755774498
1751013386034640400,6.520640380859375,-0.012382101267576218,0.0029973878990858793,-0.05349411815404892
1751013386044583400,6.53058349609375,-0.014020211063325405,0.01804717816412449,-0.050882622599601746
1751013386054526200,6.540526123046875,-0.013236709870398045,0.022002503275871277,-0.047564323991537094
1751013386064469200,6.55046923828125,-0.010629208758473396,0.026226012036204338,-0.04542234167456627
1751013386074412300,6.560412353515625,-0.010189786553382874,0.027846278622746468,-0.04260232299566269
1751013386084355300,6.570355224609375,-0.008235027082264423,0.02418523095548153,-0.04078364744782448
1751013386094298400,6.58029833984375,-0.0072837453335523605,0.017851967364549637,-0.045406363904476166
1751013386104241400,6.590241455078125,-0.005417402368038893,0.0214240662753582,-0.04471180960536003
1751013386114184400,6.600184326171875,-0.0062392535619437695,0.02034362033009529,-0.04414961859583855
1751013386124127500,6.61012744140625,-0.006622482556849718,0.021556690335273743,-0.052085038274526596
1751013386134070300,6.6200703125,-0.00155262288171798,0.023619575425982475,-0.065339595079422
1751013386144013300,6.630013427734375,0.0007779093575663865,0.022785473614931107,-0.07410591840744019
1751013386153956000,6.6399560546875,0.004072772338986397,0.01836063154041767,-0.08041441440582275
1751013386163899100,6.649899169921875,0.0037388119380921125,0.019225092604756355,-0.07462630420923233
1751013386173842200,6.65984228515625,0.009488310664892197,0.028711538761854172,-0.06276644766330719
1751013386183785200,6.66978515625,0.008380435407161713,0.02822737768292427,-0.04590863734483719
1751013386193728300,6.679728271484375,0.011509649455547333,0.022701317444443703,-0.0316024012863636
1751013386203671300,6.68967138671875,0.007222226355224848,0.022284531965851784,-0.022839268669486046
1751013386213614300,6.6996142578125,0.008511196821928024,0.02014841139316559,-0.03388925641775131
1751013386223557000,6.70955712890625,0.006670952308923006,0.02275111898779869,-0.040346622467041016
1751013386233500200,6.719500244140625,0.004480768460780382,0.021391041576862335,-0.048954758793115616
1751013386243443200,6.729443115234375,0.005323392804712057,0.020167851820588112,-0.05513355880975723
1751013386253386200,6.73938623046875,0.005685849115252495,0.019245600327849388,-0.05819939076900482
1751013386263329300,6.749329345703125,0.0075543224811553955,0.02544517256319523,-0.061170946806669235
1751013386273272300,6.759272216796875,0.017137974500656128,0.032774459570646286,-0.05530479922890663
1751013386283215400,6.76921533203125,0.021922342479228973,0.036675188690423965,-0.05279317498207092
1751013386293158400,6.779158447265625,0.02943192422389984,0.045935001224279404,-0.03869226947426796
1751013386303101700,6.789101806640625,0.02641935646533966,0.042440932244062424,-0.02985510043799877
1751013386313044700,6.799044677734375,0.02082378976047039,0.03254888951778412,-0.01673663593828678
1751013386322987800,6.80898779296875,0.02165176533162594,0.022885074838995934,-0.007459780666977167
1751013386332930800,6.818930908203125,0.019769443199038506,0.02116999961435795,-0.0005073322099633515
1751013386342873900,6.828873779296875,0.022184398025274277,0.021751901134848595,0.003971838392317295
1751013386352817000,6.83881689453125,0.020792096853256226,0.03202930465340614,0.0022772690281271935
1751013386362760000,6.848760009765625,0.019306054338812828,0.04766498878598213,0.006016613449901342
1751013386372702700,6.85870263671875,0.01858540251851082,0.05243204906582832,0.012045477516949177
1751013386382645800,6.868645751953125,0.020258134230971336,0.060146693140268326,0.013068397529423237
1751013386392588800,6.8785888671875,0.01410729717463255,0.06780381500720978,0.009106147103011608
1751013386402531800,6.88853173828125,0.012630308046936989,0.06626290827989578,-0.007967378944158554
1751013386412474600,6.898474609375,0.008742624893784523,0.04717576876282692,-0.02287176065146923
1751013386422417700,6.908417724609375,0.006169212516397238,0.03199708089232445,-0.033369675278663635
1751013386432360700,6.918360595703125,0.008070975542068481,0.02996375784277916,-0.029756564646959305
1751013386442303700,6.9283037109375,0.0029790119733661413,0.03262718394398689,-0.01997770369052887
1751013386452246800,6.938246826171875,-0.004769455175846815,0.034504182636737823,0.0007177218794822693
1751013386462189600,6.948189453125,-0.005825132131576538,0.038002774119377136,0.024869397282600403
1751013386472132600,6.958132568359375,-0.006109823938459158,0.045591454952955246,0.03935299813747406
1751013386482075600,6.96807568359375,-0.0005744438385590911,0.055259525775909424,0.04309127852320671
1751013386492018700,6.978018798828125,0.009256348945200443,0.05673784762620926,0.041675541549921036
1751013386501961700,6.987961669921875,0.012835637666285038,0.058987684547901154,0.027884095907211304
1751013386511904800,6.99790478515625,0.016807476058602333,0.05091297999024391,0.0070760189555585384
1751013386521847800,7.007847900390625,0.014136059209704399,0.04297303408384323,-0.01571105234324932
1751013386531790800,7.017790771484375,0.016340624541044235,0.035522572696208954,-0.03280215337872505
1751013386541733600,7.027733642578125,0.014029799029231071,0.035837892442941666,-0.03774205222725868
1751013386551676700,7.0376767578125,0.01558242179453373,0.036250680685043335,-0.037215545773506165
1751013386561619700,7.04761962890625,0.011999138630926609,0.037030987441539764,-0.02166534774005413
1751013386571562800,7.057562744140625,0.01381248515099287,0.04208140820264816,-0.007115433923900127
1751013386581505800,7.067505859375,0.014944061636924744,0.04272855445742607,0.006797718815505505
1751013386591448800,7.07744873046875,0.015483085997402668,0.03604934737086296,0.014195181429386139
1751013386601391900,7.087391845703125,0.012857208959758282,0.036126844584941864,0.01098500657826662
1751013386611335000,7.0973349609375,0.02058809995651245,0.036014460027217865,0.004988633096218109
1751013386621277700,7.107277587890625,0.020850153639912605,0.03845178335905075,-0.0038725025951862335
1751013386631220700,7.117220703125,0.024393223226070404,0.041857969015836716,-0.017006147652864456
1751013386641163800,7.127163818359375,0.019578760489821434,0.0328330472111702,-0.023629695177078247
1751013386651106800,7.13710693359375,0.017822140827775,0.03303411602973938,-0.027272101491689682
1751013386661049900,7.1470498046875,0.013483052141964436,0.03714124485850334,-0.020676782354712486
1751013386670993000,7.156992919921875,0.008107194676995277,0.03598117083311081,-0.013429522514343262
1751013386680936000,7.16693603515625,0.004364654887467623,0.04164731130003929,-0.009918676689267159
1751013386690878700,7.176878662109375,0.0037641117814928293,0.037398505955934525,-0.012167450040578842
1751013386700821800,7.18682177734375,0.0034205641131848097,0.02611549012362957,-0.01648097299039364
1751013386710764500,7.1967646484375,0.0091157341375947,0.021874938160181046,-0.019096728414297104
1751013386720707600,7.20670751953125,0.007075486239045858,0.013451360166072845,-0.018447982147336006
1751013386730650600,7.216650634765625,0.011322962120175362,0.013366139493882656,-0.017243701964616776
1751013386740593700,7.22659375,0.0131496237590909,0.011208978481590748,-0.01534566655755043
1751013386750536700,7.23653662109375,0.013458284549415112,0.007266168482601643,-0.01889805682003498
1751013386760479700,7.246479736328125,0.010403638705611229,0.002171275205910206,-0.029999976977705956
1751013386770422800,7.2564228515625,0.011022557504475117,-0.002226136391982436,-0.040903490036726
1751013386780365800,7.26636572265625,0.010266751982271671,-0.0010514160385355353,-0.043419912457466125
1751013386790308600,7.27630859375,0.015392804518342018,0.006191849708557129,-0.03924940153956413
1751013386800251600,7.286251708984375,0.017194433137774467,0.020067717880010605,-0.027332555502653122
1751013386810194700,7.296194580078125,0.02124643325805664,0.029709959402680397,-0.01497894898056984
1751013386820137700,7.3061376953125,0.027468375861644745,0.030951524153351784,-0.006813431158661842
1751013386830080800,7.316080810546875,0.02875681407749653,0.019957728683948517,-0.0022064289078116417
1751013386840023800,7.32602392578125,0.024689367040991783,0.012590892612934113,-0.01181937474757433
1751013386849966800,7.335966796875,0.020675983279943466,-0.0024562333710491657,-0.027716316282749176
1751013386859910000,7.345909912109375,0.014964302070438862,-0.010786068625748158,-0.044793035835027695
1751013386869852700,7.355852783203125,0.007925300858914852,-0.008626511320471764,-0.048288434743881226
1751013386879795700,7.365795654296875,0.014675348997116089,-0.0033015208318829536,-0.04854276776313782
1751013386889738800,7.37573876953125,0.015722237527370453,0.005450691562145948,-0.033180855214595795
1751013386899681800,7.385681884765625,0.024145016446709633,0.014098774641752243,-0.017132380977272987
1751013386909624800,7.395624755859375,0.024154605343937874,0.021941252052783966,-0.006917827297002077
1751013386919568000,7.40556787109375,0.03151824325323105,0.02197081223130226,-0.006111422087997198
1751013386929511000,7.415510986328125,0.03399471938610077,0.019181683659553528,-0.014993863180279732
1751013386939454000,7.425453857421875,0.03423546999692917,0.008021441288292408,-0.028183966875076294
1751013386949396700,7.435396728515625,0.035352133214473724,-0.000036218989407643676,-0.04214292764663696
1751013386959339800,7.44533984375,0.03434306010603905,-0.011787417344748974,-0.04631663113832474
1751013386969282800,7.45528271484375,0.023319438099861145,-0.022517826408147812,-0.03779052197933197
1751013386979225600,7.4652255859375,0.019483154639601707,-0.02833709865808487,-0.013125123456120491
1751013386989168600,7.475168701171875,0.016654610633850098,-0.02148372121155262,0.01701999641954899
1751013386999111700,7.485111572265625,0.019053319469094276,-0.008222776465117931,0.0388944037258625
1751013387009054700,7.4950546875,0.02245524153113365,0.00890667550265789,0.049979012459516525
1751013387018997800,7.504997802734375,0.02539750188589096,0.022230736911296844,0.0376264713704586
1751013387028940800,7.51494091796875,0.03314011171460152,0.028663868084549904,0.010153568349778652
1751013387038883600,7.524883544921875,0.03395450487732887,0.022949524223804474,-0.023676034063100815
1751013387048826600,7.53482666015625,0.03307965770363808,0.00809361319988966,-0.060326989740133286
1751013387058769700,7.544769775390625,0.0306300800293684,-0.0057622818276286125,-0.07977499067783356
1751013387068712700,7.554712646484375,0.02490881271660328,-0.01447081845253706,-0.07946925610303879
1751013387078655700,7.56465576171875,0.02610723488032818,-0.01612597331404686,-0.05820072069764137
1751013387088598800,7.574598876953125,0.026885410770773888,-0.010417487472295761,-0.019950006157159805
1751013387098541800,7.584541748046875,0.02611522376537323,0.0034059167373925447,0.0149813462048769
1751013387108484900,7.59448486328125,0.02684919163584709,0.012291287072002888,0.035175565630197525
1751013387118427600,7.604427734375,0.024951156228780746,0.01691453531384468,0.036441098898649216
1751013387128370700,7.61437060546875,0.018604842945933342,0.009559682570397854,0.010521084070205688
1751013387138313700,7.624313720703125,0.017104951664805412,-0.002403769176453352,-0.026800189167261124
1751013387148256800,7.6342568359375,0.01618323102593422,-0.018210429698228836,-0.0556480810046196
1751013387158199800,7.64419970703125,0.012922989204525948,-0.023803332820534706,-0.058816712349653244
1751013387168142800,7.654142822265625,0.010936803184449673,-0.018633872270584106,-0.04074077308177948
1751013387178086000,7.6640859375,0.008316253311932087,-0.004060788080096245,-0.00869149249047041
1751013387188029000,7.67402880859375,0.006146043073385954,0.009001750499010086,0.019949207082390785
1751013387197971700,7.6839716796875,0.004634699318557978,0.016761137172579765,0.03659875690937042
1751013387207914800,7.693914794921875,0.007636614143848419,0.022301843389868736,0.034927092492580414
1751013387217857800,7.70385791015625,0.006244580261409283,0.02107119746506214,0.018992332741618156
1751013387227800800,7.71380078125,0.008607869036495686,0.017291639000177383,0.005336708389222622
1751013387237743900,7.723743896484375,0.0051508196629583836,0.00818096473813057,-0.013875335454940796
1751013387247687000,7.73368701171875,0.0032320122700184584,0.0031220237724483013,-0.028260666877031326
1751013387257629700,7.743629638671875,-0.0014351775171235204,-0.005306348204612732,-0.043298471719026566
1751013387267572700,7.75357275390625,-0.007392136380076408,-0.006053098943084478,-0.055094942450523376
1751013387277515800,7.763515869140625,-0.01044411864131689,-0.002817890839651227,-0.06035814806818962
1751013387287458600,7.77345849609375,-0.012881177477538586,0.005317533854395151,-0.05320276692509651
1751013387297401900,7.78340185546875,-0.015667909756302834,0.012801283039152622,-0.04521328583359718
1751013387307344600,7.7933447265625,-0.014434599317610264,0.01841709017753601,-0.02894536592066288
1751013387317287700,7.80328759765625,-0.014388526789844036,0.02136148139834404,-0.007962319068610668
1751013387327230700,7.813230712890625,-0.012566924095153809,0.025045165792107582,0.01146623957902193
1751013387337173800,7.823173828125,-0.013264140114188194,0.028970131650567055,0.024278707802295685
1751013387347116800,7.83311669921875,-0.011352789588272572,0.0318324975669384,0.03003006987273693
1751013387357059800,7.843059814453125,-0.011289671994745731,0.03298325091600418,0.026691265404224396
1751013387367002600,7.853002685546875,-0.0067686899565160275,0.037873610854148865,0.02028290182352066
1751013387376945700,7.862945556640625,-0.0052232579328119755,0.04192854091525078,0.008553540334105492
1751013387386888700,7.872888671875,-0.007865645922720432,0.045770950615406036,-0.00310524576343596
1751013387396831700,7.882831787109375,-0.008394017815589905,0.03999828174710274,-0.011353588663041592
1751013387406774800,7.89277490234375,-0.012263856828212738,0.030549919232726097,-0.014271614141762257
1751013387416717800,7.9027177734375,-0.010840130969882011,0.02052524872124195,-0.01254934724420309
1751013387426660900,7.912660888671875,-0.01128328125923872,0.01167663000524044,-0.009189769625663757
1751013387436604000,7.92260400390625,-0.008805476129055023,0.015090269967913628,-0.009210010059177876
1751013387446546700,7.932546630859375,-0.006280798930674791,0.02232980728149414,-0.011389275081455708
1751013387456489700,7.94248974609375,-0.008826514706015587,0.03176937997341156,-0.020121779292821884
1751013387466432800,7.952432861328125,-0.006916229147464037,0.036559343338012695,-0.028359735384583473
1751013387476375800,7.962375732421875,-0.0111621068790555,0.03748878464102745,-0.03779611364006996
1751013387486318800,7.97231884765625,-0.01329716295003891,0.03127562999725342,-0.04253228008747101
1751013387496262000,7.982261962890625,-0.015607988461852074,0.02321876958012581,-0.040345557034015656
1751013387506205000,7.992204833984375,-0.01070910319685936,0.020870661363005638,-0.028729116544127464
1751013387516148000,8.00214794921875,-0.01455737091600895,0.02100701443850994,-0.009246761910617352
1751013387526090800,8.0120908203125,-0.013155216351151466,0.02424994483590126,0.011364507488906384
1751013387536033800,8.02203369140625,-0.008835835382342339,0.03044578991830349,0.026565032079815865
1751013387545976800,8.031976806640625,-0.007185741327702999,0.031314246356487274,0.032830916345119476
1751013387555920000,8.041919921875,-0.0033340114168822765,0.031191475689411163,0.01721573807299137
1751013387565863000,8.05186279296875,0.0014138722326606512,0.026371685788035393,0.0032746228389441967
1751013387575806000,8.061805908203125,0.004844556096941233,0.018910307437181473,-0.012056929059326649
1751013387585748700,8.071748779296875,0.009506153874099255,0.01366095058619976,-0.02105175517499447
1751013387595691800,8.08169189453125,0.008058725856244564,0.011031611822545528,-0.023457655683159828
1751013387605634800,8.091634765625,0.0032463932875543833,0.014364558272063732,-0.01847514696419239
1751013387615577600,8.10157763671875,-0.00038722361205145717,0.017737451940774918,-0.005105812568217516
1751013387625520600,8.111520751953124,0.001484445994719863,0.015153652988374233,0.01011069118976593
1751013387635463700,8.121463623046875,-0.0008671252289786935,0.009860619902610779,0.026789003983139992
1751013387645406700,8.13140673828125,-0.003931358456611633,0.010338124819099903,0.036974262446165085
1751013387655349800,8.141349853515624,-0.0051995557732880116,0.008584166876971722,0.03440138325095177
1751013387665292800,8.151292724609375,-0.004085821565240622,0.010701379738748074,0.026281405240297318
1751013387675235800,8.16123583984375,-0.00430207047611475,0.013452958315610886,0.01943095587193966
1751013387685179000,8.171178955078124,-0.006078931502997875,0.010075004771351814,0.011019094847142696
1751013387695121700,8.18112158203125,-0.00857138354331255,0.010159959085285664,0.0034503915812820196
1751013387705064700,8.191064697265626,-0.004799549002200365,0.012515525333583355,-0.005935387220233679
1751013387715007700,8.2010078125,-0.0017326525412499905,0.014630608260631561,-0.015987223014235497
1751013387724950800,8.21095068359375,0.002570749493315816,0.019991284236311913,-0.020410733297467232
1751013387734893800,8.220893798828126,0.0062110242433846,0.021861888468265533,-0.01637125015258789
1751013387744836900,8.2308369140625,0.009470733813941479,0.024923192337155342,-0.008016381412744522
1751013387754780000,8.24077978515625,0.015902534127235413,0.02262142300605774,0.00535614974796772
1751013387764723000,8.250722900390626,0.016999224200844765,0.016597619280219078,0.02466300129890442
1751013387774665700,8.260665771484375,0.018279671669006348,0.007722900714725256,0.02485102042555809
1751013387784608800,8.27060888671875,0.011955995112657547,-0.002290851203724742,0.014476411044597626
1751013387794551800,8.2805517578125,0.009150887839496136,-0.015119564719498158,0.0005555353709496558
1751013387804494800,8.290494873046875,0.004867726005613804,-0.017613613978028297,-0.016594689339399338
1751013387814438000,8.30043798828125,0.007532218471169472,-0.01239381916821003,-0.023382287472486496
1751013387824381000,8.310380859375,0.007420632056891918,-0.005562544334679842,-0.018621888011693954
1751013387834324000,8.320323974609375,0.009167132899165154,0.0031936627347022295,-0.008753810077905655
1751013387844267000,8.33026708984375,0.0115559883415699,0.00896712951362133,0.0032671659719198942
1751013387854209800,8.340209716796876,0.012503541074693203,0.011713114567101002,0.011589810252189636
1751013387864152600,8.350152587890625,0.010162622667849064,0.014761635102331638,0.010017747059464455
1751013387874095600,8.360095703125,0.00809201505035162,0.007729558739811182,0.005659217480570078
1751013387884038700,8.37003857421875,0.009152485989034176,-0.0009741843095980585,-0.0021574266720563173
1751013387893981700,8.379981689453125,0.01509799249470234,-0.004731105640530586,-0.011388476006686687
1751013387903924700,8.3899248046875,0.012864666059613228,0.001243696198798716,-0.020506074652075768
1751013387913867800,8.39986767578125,0.012219647876918316,0.007662180811166763,-0.025908030569553375
1751013387923810800,8.409810791015625,0.01242497842758894,0.004798749927431345,-0.028534704819321632
1751013387933753900,8.41975390625,0.011391671374440193,-0.0011403656098991632,-0.023679763078689575
1751013387943696600,8.429696533203124,0.008417453616857529,-0.0031467911321669817,-0.010685667395591736
1751013387953639700,8.4396396484375,0.007959122769534588,-0.0026841999497264624,0.008081362582743168
1751013387963582700,8.449582763671875,0.007650462910532951,-0.0022570290602743626,0.018604310229420662
1751013387973525800,8.45952587890625,0.01128008496016264,0.0008751147543080151,0.02257641591131687
1751013387983468800,8.46946875,0.010510697960853577,0.009347429499030113,0.008247011341154575
1751013387993411800,8.479411865234376,0.009374859742820263,0.014061223715543747,-0.013728595338761806
1751013388003355000,8.48935498046875,0.006990531459450722,0.012658537365496159,-0.03621233254671097
1751013388013298000,8.4992978515625,0.008580971509218216,0.011807390488684177,-0.045330729335546494
1751013388023240700,8.50924072265625,0.012928049080073833,0.01143002137541771,-0.04308142513036728
1751013388033183700,8.519183837890624,0.00637773796916008,0.006305566523224115,-0.024868065491318703
1751013388043126800,8.529126708984375,0.0055092815309762955,-0.0011728560784831643,-0.007031544111669064
1751013388053069800,8.53906982421875,0.001966478070244193,-0.0006530070677399635,0.009784453548491001
1751013388063012900,8.549012939453124,0.002031459240242839,-0.00324852392077446,0.017245566472411156
1751013388072956000,8.558955810546875,-0.00013528858835343271,-0.0035486621782183647,0.015676964074373245
1751013388082899000,8.56889892578125,0.002977147698402405,-0.000827177835162729,0.006329801399260759
1751013388092842000,8.578842041015625,0.005597165785729885,0.00276116537861526,-0.007773767225444317
1751013388102784800,8.58878466796875,0.00808935146778822,0.008946890011429787,-0.024213993921875954
1751013388112727800,8.598727783203126,0.011020959354937077,0.02129197306931019,-0.0329614132642746
1751013388122670800,8.6086708984375,0.011901134625077248,0.02400999516248703,-0.042574625462293625
1751013388132614000,8.61861376953125,0.006960970349609852,0.0344112366437912,-0.04018203914165497
1751013388142557000,8.628556884765626,0.0070826769806444645,0.024959411472082138,-0.03221333026885986
1751013388152499700,8.638499755859375,0.0016018913593143225,0.013847638852894306,-0.020556939765810966
1751013388162442800,8.64844287109375,-0.0020716730505228043,0.0002402171230642125,-0.005426457151770592
1751013388172385800,8.6583857421875,-0.002621083054691553,-0.002668221015483141,0.013607953675091267
1751013388182328600,8.66832861328125,-0.0010274475207552314,0.007097057998180389,0.028134165331721306
1751013388192271600,8.678271728515625,-0.00039414784987457097,0.017123060300946236,0.03130253031849861
1751013388202214700,8.688214599609376,0.003070358419790864,0.023968448862433434,0.029208218678832054
1751013388212157700,8.69815771484375,0.0021345235873013735,0.03026123344898224,0.01714702881872654
1751013388222100700,8.708100830078125,0.008683502674102783,0.029405025765299797,0.010090983472764492
1751013388232043800,8.718043701171876,0.01004970446228981,0.02557273767888546,0.00044314999831840396
1751013388241986800,8.72798681640625,0.008812399581074715,0.022658174857497215,-0.0054514906369149685
1751013388251929900,8.737929931640625,0.009852098301053047,0.012328305281698704,-0.003686880227178335
1751013388261873000,8.747872802734374,0.007184143178164959,0.007956726476550102,-0.0005507417372427881
1751013388271815700,8.757815673828125,0.002575809368863702,0.002968092914670706,0.0005930859479121864
1751013388281758700,8.7677587890625,-0.0030597057193517685,0.010673683136701584,0.0027539748698472977
1751013388291701800,8.77770166015625,-0.002198705682530999,0.01593742147088051,0.0033342777751386166
1751013388301648100,8.787648193359376,-0.006658701691776514,0.017789915204048157,-0.0015635418239980936
1751013388311591200,8.797591064453124,-0.005650429055094719,0.021687185391783714,0.0005158542771823704
1751013388321534200,8.8075341796875,-0.002290052128955722,0.02510162442922592,-0.00013688647595699877
1751013388331477200,8.817477294921876,0.0012274509062990546,0.029746176674962044,0.0026144252624362707
1751013388341420300,8.827420166015624,0.0049468218348920345,0.03165007010102272,0.0050701261498034
1751013388351363000,8.837363037109375,0.008358864113688469,0.032773394137620926,0.007682154420763254
1751013388361306000,8.84730615234375,0.00387383415363729,0.027269704267382622,0.006901848129928112
1751013388371249200,8.857249267578124,0.00017230652156285942,0.018329739570617676,0.00133877107873559
1751013388381192200,8.867192138671875,-0.009433449245989323,0.008725048042833805,-0.005061337724328041
1751013388391135200,8.87713525390625,-0.008127967827022076,0.00401711231097579,-0.0051537491381168365
1751013388401078300,8.887078369140625,-0.009400958195328712,0.004564391914755106,-0.005887450184673071
1751013388411021300,8.897021240234375,-0.010512827895581722,0.0054725296795368195,0.0028583707753568888
1751013388420964400,8.90696435546875,-0.005827528890222311,0.008885370567440987,0.011920042335987091
1751013388430907100,8.9169072265625,0.0031499869655817747,0.012770390138030052,0.019650399684906006
1751013388440850200,8.92685009765625,0.007880560122430325,0.01623542793095112,0.02424195595085621
1751013388450793200,8.936793212890626,0.00948271807283163,0.01571051962673664,0.016473248600959778
1751013388460736300,8.946736328125,0.004805940669029951,0.014793593436479568,0.0030975225381553173
1751013388470679300,8.95667919921875,0.004038151353597641,0.00869415607303381,-0.013884656131267548
1751013388480622300,8.966622314453126,0.00034594463068060577,-0.001546763931401074,-0.021768944337964058
1751013388490565400,8.9765654296875,-0.0041252365335822105,-0.0028506475500762463,-0.01697605475783348
1751013388500508400,8.98650830078125,-0.0030916635878384113,-0.005197159014642239,-0.009379386901855469
1751013388510451200,8.996451171875,-0.0016655409708619118,0.0019342538435012102,0.005813680589199066
1751013388520394200,9.006394287109375,0.001073786523193121,0.01016848161816597,0.021463746204972267
1751013388530337300,9.016337158203125,-0.004294613376259804,0.018460232764482498,0.02466193586587906
1751013388540280300,9.0262802734375,-0.0018530274974182248,0.02340865321457386,0.016953948885202408
1751013388550223400,9.036223388671875,-0.003704190719872713,0.023450996726751328,0.008553008548915386
1751013388560167400,9.04616748046875,-0.005930859595537186,0.014823154546320438,-0.0012980246683582664
1751013388570109200,9.056109130859374,-0.005598763469606638,0.0035574506036937237,-0.0020698087755590677
1751013388580053200,9.06605322265625,-0.0019150790758430958,-0.0029385320376604795,-0.0003020024741999805
1751013388589996300,9.075996337890626,-0.003363838652148843,-0.0036935380194336176,0.009898969903588295
1751013388599939300,9.085939208984374,0.001193362521007657,-0.0035451999865472317,0.023265641182661057
1751013388609882400,9.09588232421875,0.003245328087359667,-0.003099386813119054,0.025966886430978775
1751013388619825400,9.105825439453126,0.0009981527691707015,-0.00686190091073513,0.025168202817440033
1751013388629768200,9.115768310546875,0.0046506780199706554,-0.0051569449715316296,0.019245866686105728
1751013388639711200,9.125711181640625,0.004752411041408777,0.0027545075863599777,0.011602060869336128
1751013388649654300,9.135654296875,0.005063468124717474,0.009208411909639835,-0.008165251463651657
1751013388659597000,9.14559716796875,0.002615490462630987,0.0107708889991045,-0.02352343499660492
1751013388669540000,9.1555400390625,0.003590473672375083,0.006608900614082813,-0.03303837776184082
1751013388679483100,9.165483154296876,0.0012482235906645656,0.0020386497490108013,-0.03680648282170296
1751013388689426200,9.17542626953125,-0.0010125337867066264,-0.003704989794641733,-0.02610856667160988
1751013388699369200,9.185369140625,-0.0010042780777439475,-0.009484315291047096,-0.011961054988205433
1751013388709312300,9.195312255859376,-0.0018844527658075094,-0.008899485692381859,0.0014591459184885025
1751013388719255300,9.20525537109375,0.0009411611245013773,0.0011470235185697675,0.01113520935177803
1751013388729198300,9.2151982421875,0.00213612150400877,0.0107708889991045,0.014967231079936028
1751013388739141000,9.22514111328125,0.003500725142657757,0.02056732587516308,0.014278005808591843
1751013388749084200,9.235084228515625,0.006977215874940157,0.016924122348427773,0.01167476549744606
1751013388759027200,9.245027099609375,0.004320446401834488,0.008577242493629456,0.0007249124464578927
1751013388768970200,9.25497021484375,0.002472745021805167,-0.0006772418855689466,-0.0038429414853453636
1751013388778913300,9.264913330078125,0.00256409146822989,-0.006277603097259998,-0.0006130596739239991
1751013388788856300,9.274856201171875,0.005072789266705513,0.002089249901473522,0.006485862657427788
1751013388798799400,9.28479931640625,0.0053553506731987,0.006278402172029018,0.018983544781804085
1751013388808742400,9.294742431640625,0.0057556238025426865,0.01260953489691019,0.028963740915060043
1751013388818685200,9.304685302734375,0.0035574506036937237,0.013655890710651875,0.030046049505472183
1751013388828628200,9.314628173828124,0.006307164207100868,0.014690794982016087,0.023509053513407707
1751013388838571300,9.3245712890625,0.0029316076543182135,0.014487596228718758,0.010099506005644798
1751013388848514300,9.334514404296876,0.00007616640505148098,0.017488446086645126,-0.003349990351125598
1751013388858457300,9.344457275390624,0.004571315832436085,0.027280623093247414,-0.015421566553413868
1751013388868400400,9.354400390625,0.0010998855577781796,0.019182216376066208,-0.022770293056964874
1751013388878343400,9.364343505859376,-0.0019001654582098126,0.010004697367548943,-0.0241940189152956
1751013388888286500,9.374286376953124,-0.004113784991204739,0.006773750297725201,-0.028079837560653687
1751013388898229200,9.384229248046875,-0.005407015793025494,0.009789513424038887,-0.022788936272263527
1751013388908172000,9.394172119140626,-0.0020967067684978247,0.008212389424443245,-0.010862234979867935
1751013388918115000,9.404114990234374,-0.00108284130692482,0.004378503188490868,-0.0028692898340523243
1751013388928058000,9.41405810546875,0.0013816480059176683,-0.0012034825049340725,0.005626460537314415
1751013388938001200,9.424001220703126,0.004854942671954632,0.004054130055010319,0.009759685955941677
1751013388947944200,9.433944091796874,0.00717482203617692,0.011402590200304985,0.011236941441893578
1751013388957887200,9.44388720703125,0.011065701022744179,0.016224509105086327,0.008772718720138073
1751013388967830300,9.453830322265626,0.009125321172177792,0.018159562721848488,0.0011518171522766352
1751013388977773300,9.463773193359375,0.009309079498052597,0.01236345898360014,-0.003885818412527442
1751013388987716000,9.473716064453125,0.013114203698933125,0.0073388731107115746,-0.011315771378576756
1751013388997659100,9.4836591796875,0.017107347026467323,-0.004816060420125723,-0.014986672438681126
1751013389007602200,9.493602294921875,0.011834022589027882,-0.011227354407310486,-0.016020245850086212
1751013389017545200,9.503545166015625,0.006098905112594366,-0.0076033249497413635,-0.00996261928230524
1751013389027488300,9.51348828125,0.007862450554966927,0.0011227887589484453,-0.00008149272616719827
1751013389037431300,9.523431396484375,0.0054546864703297615,0.0075689698569476604,0.009702161885797977
1751013389047374300,9.533374267578125,0.004048004746437073,0.01254934724420309,0.017584053799510002
1751013389057317400,9.5433173828125,0.004532434046268463,0.013931794092059135,0.01883760280907154
1751013389067260200,9.55326025390625,0.0019917781464755535,-0.0006258428329601884,0.013964018784463406
1751013389077203200,9.563203125,0.0010873686987906694,0.0015094797126948833,0.004956941585987806
1751013389087146200,9.573146240234376,0.004391286056488752,0.01019937451928854,-0.005059739574790001
1751013389097089300,9.58308935546875,0.0028104339726269245,0.01576431654393673,-0.01804611273109913
1751013389107032300,9.5930322265625,0.0008823052630759776,0.014873487874865532,-0.022363362833857536
1751013389116975400,9.602975341796874,-0.00010652644414221868,0.009554889053106308,-0.028685174882411957
1751013389126918400,9.61291845703125,0.001686579897068441,0.005224322900176048,-0.01847408153116703
1751013389136861400,9.622861328125,0.00654551712796092,0.001627191435545683,-0.00815033819526434
1751013389146804200,9.63280419921875,0.0017598168924450874,-0.012731773778796196,0.010490191169083118
1751013389156747300,9.642747314453125,-0.0033569145016372204,-0.01654861681163311,0.017041301354765892
1751013389166690300,9.652690185546875,-0.002365419641137123,-0.004086354281753302,0.024047546088695526
1751013389176633300,9.66263330078125,-0.00043995422311127186,-0.0012383698485791683,0.014742993749678135
1751013389186576100,9.672576171875,0.000024234765078290366,0.00771837355569005,0.004954012110829353
1751013389196520400,9.6825205078125,0.0005518069956451654,0.007384679280221462,-0.0034043188206851482
1751013389206463200,9.692463134765624,0.00048176583368331194,0.010606039315462112,-0.01116530317813158
1751013389216406300,9.70240625,0.002537459833547473,0.007253918331116438,-0.017139039933681488
1751013389226349300,9.712349365234376,0.00042796999332495034,0.004927114117890596,-0.02165123261511326
1751013389236292400,9.722292236328125,0.009839581325650215,0.011678493581712246,-0.02425234206020832
1751013389246235100,9.732235107421875,0.0038895467296242714,0.009751430712640285,-0.019298063591122627
1751013389256178200,9.74217822265625,0.002204298507422209,0.007255249656736851,-0.019451728090643883
1751013389266121200,9.752121337890625,0.003482881933450699,0.014032994396984577,-0.008232629857957363
1751013389276064300,9.762064208984375,0.00398728484287858,0.014129667542874813,-0.00250470289029181
1751013389286007000,9.772007080078126,0.0013097425689920783,0.005875998642295599,0.007965514436364174
1751013389295950000,9.7819501953125,-0.0024748756550252438,0.002383795566856861,0.011285943910479546
1751013389305889500,9.7918896484375,-0.002424541860818863,0.01128035131841898,0.0024583640042692423
1751013389315832600,9.80183251953125,-0.0018666095566004515,0.014971492812037468,-0.007080812472850084
1751013389325775400,9.811775390625,-0.0023702133912593126,0.01531477365642786,-0.005273325368762016
1751013389335718400,9.821718505859375,-0.0041310954838991165,0.020478643476963043,-0.004433896858245134
1751013389345661400,9.831661376953125,-0.0035396073944866657,0.01780722662806511,0.005403553601354361
1751013389355604500,9.8416044921875,-0.007003847509622574,0.016469787806272507,0.015177088789641857
1751013389365547500,9.851547607421875,-0.004624845460057259,0.02050873637199402,0.021705828607082367
1751013389375490300,9.861490234375,0.00035446672700345516,0.02931101620197296,0.01594514399766922
1751013389385433300,9.871433349609376,0.00047111319145187736,0.028354942798614502,0.0029702235478907824
1751013389395376400,9.88137646484375,0.002972087822854519,0.033732663840055466,-0.017548900097608566
1751013389405319400,9.8913193359375,0.0065505774691700935,0.028507808223366737,-0.03133182227611542
1751013389415262500,9.901262451171876,0.005319397896528244,0.020004067569971085,-0.03335156664252281
1751013389425205500,9.91120556640625,0.008705341257154942,0.011121626943349838,-0.029822077602148056
1751013389435148500,9.9211484375,0.0119117870926857,0.0162988118827343,-0.0073388731107115746
1751013389445091600,9.931091552734374,0.01002280693501234,0.0178743377327919,0.014386928640305996
1751013389455034400,9.941034423828125,0.004905276466161013,0.020787304267287254,0.027950674295425415
1751013389464977400,9.950977294921875,0.0014948323369026184,0.03152090683579445,0.0341169573366642
1751013389474920400,9.96092041015625,0.00005379585491027683,0.03810104727745056,0.026496589183807373
1751013389484863500,9.970863525390625,-0.00612313998863101,0.0325467586517334,0.0072805495001375675
1751013389494806500,9.980806640625,-0.007200655061751604,0.03530126437544823,-0.005744704511016607
1751013389504749600,9.99074951171875,-0.001999767730012536,0.04135383293032646,-0.020017383620142937
1751013389514692600,10.000692626953125,0.0010045443195849657,0.04867379739880562,-0.021283451467752457
1751013389524635600,10.0106357421875,0.0032599754631519318,0.05029566213488579,-0.009935455396771431
1751013389534578700,10.02057861328125,0.0000953411654336378,0.04649799317121506,0.006897054612636566
1751013389544521500,10.030521484375,-0.00013262542779557407,0.03416462987661362,0.0158253014087677
1751013389554464500,10.040464599609376,0.0006567355012521148,0.024871261790394783,0.019167834892868996
1751013389564407600,10.050407470703124,0.006046707276254892,0.018368886783719063,0.00908697210252285
1751013389574350600,10.0603505859375,0.009063003584742546,0.01158741395920515,-0.006028597708791494
1751013389584293600,10.070293701171876,0.0046418895944952965,0.01050457265228033,-0.024837173521518707
1751013389594236700,10.080236572265624,0.005564408842474222,0.007412376347929239,-0.04100282862782478
1751013389604179500,10.090179443359375,0.006441121455281973,0.009066465310752392,-0.05613863468170166
1751013389614122500,10.10012255859375,0.006441387813538313,0.0093919038772583,-0.05252952128648758
1751013389624065300,10.110065185546874,0.00301736150868237,0.012910738587379456,-0.038493864238262177
1751013389634008300,10.12000830078125,0.002924683503806591,0.016657806932926178,-0.024645425379276276
1751013389643951400,10.129951416015626,0.004500475712120533,0.023269902914762497,-0.011195928789675236
1751013389653894400,10.139894287109374,0.0041401502676308155,0.025844113901257515,-0.012416189536452293
1751013389663837400,10.14983740234375,0.002040514023974538,0.02262648195028305,-0.01998702436685562
1751013389673780500,10.159780517578126,-0.0033750240691006184,0.02033882774412632,-0.03838121145963669
1751013389683724300,10.169724365234375,-0.003629622282460332,0.018063955008983612,-0.05108768492937088
1751013389693666600,10.17966650390625,-0.004057325888425112,0.018800320103764534,-0.046616505831480026
1751013389703610400,10.1896103515625,-0.002585130510851741,0.01455790363252163,-0.035414714366197586
1751013389713553400,10.199553466796875,-0.002430134452879429,0.01501223910599947,-0.012075837701559067
1751013389723496400,10.209496337890625,0.0005182511522434652,0.018549449741840363,0.004459729418158531
1751013389733439500,10.219439453125,0.00032197617110796273,0.01697685196995735,0.02376924455165863
1751013389743382500,10.229382568359375,-0.002130795270204544,0.014211160130798817,0.03394624963402748
1751013389753325600,10.23932568359375,-0.0007872303831391037,0.01641971990466118,0.028443891555070877
1751013389763268400,10.249268310546874,-0.002094576135277748,0.014608769677579403,0.012855877168476582
1751013389773211400,10.25921142578125,-0.0011323761427775025,0.019583554938435555,0.0011576761025935411
1751013389783154400,10.269154541015626,0.0012868394842371345,0.019030949100852013,-0.002239984693005681
1751013389793097500,10.279097412109374,-0.00044341632747091353,0.019420836120843887,-0.008054996840655804
1751013389803040500,10.28904052734375,-0.0002567287301644683,0.023750603199005127,-0.011755991727113724
1751013389812983600,10.298983642578126,0.004319114610552788,0.019718578085303307,-0.011127752251923084
1751013389822926600,10.308926513671874,0.0017057546647265553,0.012177038006484509,-0.001395496423356235
1751013389832869600,10.31886962890625,-0.0019371833186596632,0.013324860483407974,0.009852631017565727
1751013389842812400,10.3288125,-0.005621400196105242,0.01607191003859043,0.013225258328020573
1751013389852755500,10.33875537109375,-0.005136971361935139,0.022824089974164963,0.013232980854809284
1751013389862698500,10.348698486328125,-0.001142229768447578,0.0263005793094635,0.010453706607222557
1751013389872641500,10.3586416015625,0.0003382214636076242,0.02484782598912716,0.008989499881863594
1751013389882584600,10.36858447265625,0.0030282805673778057,0.025834526866674423,-0.003215234261006117
1751013389892527600,10.378527587890625,0.0038424087688326836,0.014595987275242805,-0.014306235127151012
1751013389902470700,10.388470703125,-0.0007073355955071747,0.01044411864131689,-0.014621819369494915
1751013389912413700,10.39841357421875,-0.0028668928425759077,0.0052229915745556355,-0.02057558298110962
1751013389922356500,10.4083564453125,-0.0044072652235627174,0.0008000136003829539,-0.028686506673693657
1751013389932299500,10.418299560546876,0.0009749832679517567,0.003596332622691989,-0.02840234711766243
1751013389942242300,10.4282421875,0.0016796556301414967,0.01835290901362896,-0.020960142835974693
1751013389952185300,10.438185302734375,-0.0003789678157772869,0.02749047987163067,-0.008914931677281857
1751013389962128400,10.44812841796875,-0.005630721338093281,0.03784724697470665,0.0008490157779306173
1751013389972071400,10.458071533203125,-0.005782521795481443,0.04784102365374565,-0.0001549959706608206
1751013389982014500,10.468014404296875,-0.00914369709789753,0.05149887874722481,-0.005829659756273031
1751013389991957500,10.47795751953125,-0.012233763001859188,0.029936326667666435,-0.01577123999595642
1751013390001900500,10.487900634765625,-0.013676930218935013,0.014031662605702877,-0.02267441898584366
1751013390011843300,10.49784326171875,-0.008461128920316696,0.010803911834955215,-0.016156332567334175
1751013390021786400,10.507786376953124,0.002100168727338314,0.019397666677832603,-0.00013448962999973446
1751013390031729400,10.5177294921875,0.008248608559370041,0.022491194307804108,0.020734040066599846
1751013390041672400,10.52767236328125,0.012177304364740849,0.024564465507864952,0.03700515627861023
1751013390051615500,10.537615478515624,0.006061621010303497,0.04469849541783333,0.051487959921360016
1751013390061558500,10.54755859375,0.002844256116077304,0.08791308104991913,0.08030042797327042
1751013390071501600,10.55750146484375,-0.0257562305778265,0.24353809654712677,0.2358175814151764
1751013390081444600,10.567444580078124,-0.04108591750264168,0.11540941894054413,0.28550097346305847
1751013390091387400,10.577387451171875,-0.027114974334836006,0.017784856259822845,0.2777019143104553
1751013390101330400,10.587330322265625,-0.0022397185675799847,-0.004553738981485367,0.1976718008518219
1751013390111273500,10.5972734375,0.01107262447476387,-0.029438849538564682,0.11195848882198334
1751013390121217500,10.607217529296875,0.010451842099428177,-0.04098418354988098,0.021556157618761063
1751013390131160600,10.61716064453125,0.027057982981204987,-0.039812393486499786,-0.059589825570583344
1751013390141103600,10.627103515625,0.0525905080139637,-0.017072992399334908,-0.14219309389591217
1751013390151046400,10.63704638671875,0.03987843915820122,0.010923754423856735,-0.2142353355884552
1751013390160989400,10.646989501953126,0.004822452086955309,0.023912789300084114,-0.255828857421875
