time,seconds_elapsed,z,y,x
1751013646995002000,0.130002197265625,-0.050158243626356125,0.2976266145706177,-0.0771120935678482
1751013647004946000,0.13994580078125,-0.08414923399686813,0.16218224167823792,-0.08840096741914749
1751013647014889000,0.149888916015625,-0.1027119979262352,0.05046477168798447,-0.11853969842195511
1751013647024833000,0.1598330078125,-0.1084737479686737,0.03166897967457771,-0.13284993171691895
1751013647034776000,0.169776123046875,-0.14521844685077667,-0.026317624375224113,-0.1355072259902954
1751013647044719000,0.179718994140625,-0.21063953638076782,-0.09332834929227829,-0.12135838717222214
1751013647054663000,0.189662841796875,-0.2687177360057831,-0.099448561668396,-0.11637161672115326
1751013647064606000,0.19960595703125,-0.2860772907733917,-0.10697811841964722,-0.12262418866157532
1751013647074550000,0.209550048828125,-0.2741639018058777,-0.11522272974252701,-0.13948865234851837
1751013647084492800,0.219492919921875,-0.24121980369091034,-0.07732141762971878,-0.1609276384115219
1751013647094436900,0.229436767578125,-0.18854807317256927,-0.005997705273330212,-0.1815066784620285
1751013647104380000,0.2393798828125,-0.13303634524345398,0.06372544914484024,-0.20341862738132477
1751013647114323000,0.249322998046875,-0.08067886531352997,0.08936769515275955,-0.21528302133083344
1751013647124267000,0.25926708984375,-0.02400892972946167,0.10447554290294647,-0.19977383315563202
1751013647134210000,0.2692099609375,0.034745994955301285,0.10119106620550156,-0.15631210803985596
1751013647144154000,0.279154052734375,0.08483552932739258,0.06510709971189499,-0.09975508600473404
1751013647154097200,0.28909716796875,0.132399320602417,0.0025451830588281155,-0.04385906830430031
1751013647164041000,0.299041015625,0.16702067852020264,-0.060016464442014694,0.011580223217606544
1751013647173984000,0.30898388671875,0.18472670018672943,-0.1204979196190834,0.0504746250808239
1751013647183928000,0.318927978515625,0.18191413581371307,-0.1588306576013565,0.07071145623922348
1751013647193871000,0.32887109375,0.1667463779449463,-0.1707986444234848,0.07844607532024384
1751013647203814100,0.338814208984375,0.1463548094034195,-0.16465233266353607,0.06973940134048462
1751013647213758000,0.348758056640625,0.13140836358070374,-0.14145272970199585,0.05044559761881828
1751013647223701000,0.358700927734375,0.13214658200740814,-0.10057774186134338,0.0160018689930439
1751013647233645000,0.36864501953125,0.13357697427272797,-0.06214885786175728,-0.018981147557497025
1751013647243588000,0.378588134765625,0.13020141422748566,-0.019031481817364693,-0.05870911851525307
1751013647253532000,0.388531982421875,0.11670025438070297,0.03351721540093422,-0.094695083796978
1751013647263475000,0.398474853515625,0.09942325949668884,0.08636018633842468,-0.12783998250961304
1751013647273419000,0.4084189453125,0.08774423599243164,0.11181414872407913,-0.13866227865219116
1751013647283361800,0.41836181640625,0.07628811150789261,0.11883477121591568,-0.12506550550460815
1751013647293304800,0.428304931640625,0.06686398386955261,0.11671996116638184,-0.09750232100486755
1751013647303249000,0.438248779296875,0.05535406991839409,0.10583189129829407,-0.06542960554361343
1751013647313192000,0.44819189453125,0.04459383338689804,0.07598157972097397,-0.042692601680755615
1751013647323136000,0.458135986328125,0.028142156079411507,0.03211798891425133,-0.017705760896205902
1751013647333079000,0.4680791015625,0.004385693464428186,-0.012211658991873264,0.005012335255742073
1751013647343023000,0.478023193359375,-0.014625015668570995,-0.032875124365091324,0.034869566559791565
1751013647352966100,0.487966064453125,-0.03472389280796051,-0.04357330873608589,0.05663478374481201
1751013647362909200,0.4979091796875,-0.05369465425610542,-0.028487833216786385,0.06240824982523918
1751013647372853000,0.50785302734375,-0.06863019615411758,0.02220490388572216,0.056001484394073486
1751013647382796000,0.517796142578125,-0.06819556653499603,0.07418687641620636,0.03674815967679024
1751013647392740000,0.527739990234375,-0.052559882402420044,0.10927668958902359,0.01775476150214672
1751013647402683100,0.53768310546875,-0.02779780887067318,0.13233700394630432,0.0028812738601118326
1751013647412627000,0.547626953125,-0.010326140560209751,0.1442197561264038,-0.008432366885244846
1751013647422570000,0.557570068359375,0.000791491474956274,0.13928252458572388,-0.009812682867050171
1751013647432514000,0.56751416015625,0.00030652983696199954,0.12331128120422363,-0.004236556589603424
1751013647442457000,0.57745703125,-0.00401684595271945,0.09580988436937332,0.005289570428431034
1751013647452399900,0.58739990234375,0.006329268682748079,0.06468898057937622,0.017772339284420013
1751013647462344000,0.597343994140625,0.019045064225792885,0.03732500225305557,0.030107036232948303
1751013647472287000,0.607286865234375,0.024584438651800156,0.01381088700145483,0.04142360761761665
1751013647482230800,0.617230712890625,0.020320450887084007,-0.005720736458897591,0.03630341216921806
1751013647492173800,0.627173828125,0.011828429996967316,-0.018790731206536293,0.029281988739967346
1751013647502118100,0.6371181640625,-0.006295712664723396,-0.028605544939637184,0.01775103434920311
1751013647512061000,0.64706103515625,-0.020894896239042282,-0.04023530334234238,0.0008474178612232208
1751013647522004000,0.65700390625,-0.027720045298337936,-0.044860947877168655,-0.01037647482007742
1751013647531948000,0.666947998046875,-0.023501064628362656,-0.025624670088291168,-0.010607636533677578
1751013647541891000,0.67689111328125,-0.01865011639893055,-0.0071098413318395615,-0.00863050576299429
1751013647551834000,0.686834228515625,-0.011540009640157223,0.006009423173964024,-0.011081946082413197
1751013647561777000,0.69677685546875,-0.008206530474126339,0.01332832220941782,-0.01134107168763876
1751013647571721000,0.706720947265625,-0.010628143325448036,0.013821805827319622,-0.01740003004670143
1751013647581664000,0.7166640625,-0.019835757091641426,0.002067412016913295,-0.02508724294602871
1751013647591607000,0.72660693359375,-0.02563638798892498,-0.028244154527783394,-0.04054183512926102
1751013647601551000,0.736551025390625,-0.025058481842279434,-0.052431780844926834,-0.04315945506095886
1751013647611494100,0.746494140625,-0.030786940827965736,-0.056898701936006546,-0.040167659521102905
1751013647621438000,0.75643798828125,-0.040225185453891754,-0.047997619956731796,-0.02840181440114975
1751013647631381000,0.766381103515625,-0.03344344347715378,-0.03166445344686508,-0.009592173621058464
1751013647641325000,0.776324951171875,-0.025562617927789688,-0.019596604630351067,0.02040886878967285
1751013647651268000,0.78626806640625,-0.01840563863515854,-0.018811771646142006,0.037748709321022034
1751013647661212000,0.7962119140625,-0.0132673354819417,-0.026208700612187386,0.044251617044210434
1751013647671155000,0.806155029296875,-0.022473616525530815,-0.03948482498526573,0.03232225403189659
1751013647681098000,0.816097900390625,-0.03518595173954964,-0.04634938761591911,0.012430837377905846
1751013647691042000,0.8260419921875,-0.04658135026693344,-0.05949821323156357,-0.017972342669963837
1751013647700984800,0.83598486328125,-0.045892924070358276,-0.05314258113503456,-0.04212455078959465
1751013647710929000,0.845928955078125,-0.03810770437121391,-0.029651636257767677,-0.056059807538986206
1751013647720872000,0.855871826171875,-0.027848143130540848,0.0049276468344032764,-0.06966110318899155
1751013647730816000,0.86581591796875,-0.01423512864857912,0.03672872111201286,-0.07744205743074417
1751013647740758800,0.8757587890625,0.0009246495319530368,0.059609267860651016,-0.08397000283002853
1751013647750701800,0.885701904296875,0.01145851705223322,0.05944015830755234,-0.08722864836454391
1751013647760646100,0.895646240234375,0.009052883833646774,0.03880385309457779,-0.09604131430387497
1751013647770589000,0.9055888671875,-0.002341983839869499,-0.0008482168195769191,-0.11116407066583633
1751013647780533000,0.915532958984375,-0.02550829015672207,-0.027693679556250572,-0.13232740759849548
1751013647790476000,0.92547607421875,-0.05464593321084976,-0.03611166402697563,-0.13780367374420166
1751013647800420000,0.935420166015625,-0.07780797779560089,-0.027547737583518028,-0.1273244023323059
1751013647810363100,0.945363037109375,-0.08707045018672943,-0.008624646812677383,-0.10148747265338898
1751013647820307000,0.955306884765625,-0.08475909382104874,0.01703384518623352,-0.059251606464385986
1751013647830250000,0.96525,-0.07025551795959473,0.04206809028983116,-0.011087538674473763
1751013647840193000,0.975193115234375,-0.045643117278814316,0.05942950397729874,0.040528785437345505
1751013647850137000,0.98513720703125,-0.02202647179365158,0.05188636854290962,0.07968843728303909
1751013647860080000,0.995080078125,0.0025361282750964165,0.02551521360874176,0.10245553404092789
1751013647870024000,1.00502392578125,0.020601149648427963,-0.003203782718628645,0.11254172772169113
1751013647879967000,1.014967041015625,0.02640870399773121,-0.042209506034851074,0.11219152063131332
1751013647889911000,1.0249111328125,0.013830328360199928,-0.07684950530529022,0.10068133473396301
1751013647899853800,1.034853759765625,-0.0032690302468836308,-0.10551417618989944,0.0831926241517067
1751013647909796900,1.044796875,-0.026455841958522797,-0.11721264570951462,0.07221747189760208
1751013647919741000,1.054740966796875,-0.05187864229083061,-0.12262658029794693,0.05413860082626343
1751013647929684000,1.06468408203125,-0.06685332953929901,-0.11724406480789185,0.03898654878139496
1751013647939627800,1.074627685546875,-0.07797975093126297,-0.10021688044071198,0.024658741429448128
1751013647949570800,1.08457080078125,-0.07708093523979187,-0.06868451833724976,0.0024141555186361074
1751013647959515100,1.09451513671875,-0.06711246073246002,-0.021801967173814774,-0.01870817318558693
1751013647969458200,1.104458251953125,-0.05360091105103493,0.03429592028260231,-0.034881286323070526
1751013647979402000,1.114402099609375,-0.05043654143810272,0.05760790407657623,-0.051769986748695374
1751013647989345000,1.124344970703125,-0.058751996606588364,0.03796389326453209,-0.07213438302278519
1751013647999288000,1.1342880859375,-0.07330431044101715,-0.01031655352562666,-0.08999007940292358
1751013648009232100,1.144232177734375,-0.10556477308273315,-0.05518176406621933,-0.10876189917325974
1751013648019175200,1.154175048828125,-0.1398220807313919,-0.08805102854967117,-0.11914263665676117
1751013648029119000,1.164118896484375,-0.18075700104236603,-0.10113247483968735,-0.12184520810842514
1751013648039062000,1.17406201171875,-0.215840145945549,-0.11246608942747116,-0.13233833014965057
1751013648049006000,1.184006103515625,-0.23956145346164703,-0.12049978226423264,-0.1349695324897766
1751013648058949000,1.19394921875,-0.24211490154266357,-0.09230116754770279,-0.12336082011461258
1751013648068892000,1.203891845703125,-0.22785606980323792,-0.02514689788222313,-0.09815452992916107
1751013648078836000,1.2138359375,-0.1992928683757782,0.04759175330400467,-0.06721099466085434
1751013648088779000,1.223779052734375,-0.16233618557453156,0.080787792801857,-0.045406095683574677
1751013648098722800,1.233722900390625,-0.11367809772491455,0.07931239902973175,-0.04030294716358185
1751013648108665900,1.243665771484375,-0.06127773970365524,0.05065252631902695,-0.052128713577985764
1751013648118610000,1.25360986328125,-0.019998742267489433,0.010421481914818287,-0.0791507437825203
1751013648128553000,1.263552978515625,0.010477142408490181,-0.03111078217625618,-0.11504323035478592
1751013648138496800,1.273496826171875,0.032647691667079926,-0.053281597793102264,-0.1417669951915741
1751013648148439800,1.283439697265625,0.04609878733754158,-0.060509681701660156,-0.1564101129770279
1751013648158382800,1.2933828125,0.05176226422190666,-0.06422266364097595,-0.15563993155956268
1751013648168327200,1.3033271484375,0.05078248679637909,-0.06262210011482239,-0.14371295273303986
1751013648178270200,1.313270263671875,0.045156292617321014,-0.05841457471251488,-0.1335655152797699
1751013648188214000,1.323214111328125,0.042997799813747406,-0.041433192789554596,-0.11532259732484818
1751013648198157000,1.333156982421875,0.04234479367733002,-0.024345019832253456,-0.10429790616035461
1751013648208101000,1.34310107421875,0.044546693563461304,-0.015896940603852272,-0.08344562351703644
1751013648218044200,1.353044189453125,0.05530346930027008,-0.01613263040781021,-0.0665300264954567
1751013648227987000,1.362987060546875,0.06842992454767227,-0.008197476156055927,-0.046815175563097
1751013648237931000,1.372930908203125,0.08222749829292297,0.006463225465267897,-0.016379505395889282
1751013648247874000,1.3828740234375,0.0865897536277771,0.029681729152798653,0.007144728675484657
1751013648257817900,1.39281787109375,0.09469428658485413,0.04887166991829872,0.027590349316596985
1751013648267761000,1.402760986328125,0.0963321253657341,0.06771060079336166,0.03375157341361046
1751013648277705000,1.412705078125,0.09959476441144943,0.087437704205513,0.030177876353263855
1751013648287648000,1.42264794921875,0.09944616258144379,0.11288554221391678,0.01956438086926937
1751013648297591800,1.432591796875,0.09569616615772247,0.14128069579601288,0.0024716798216104507
1751013648307534800,1.442534912109375,0.08549279719591141,0.17235738039016724,-0.02040220983326435
1751013648317478000,1.452477783203125,0.07453122735023499,0.2010263204574585,-0.03423014283180237
1751013648327422000,1.462421875,0.06927894055843353,0.22391298413276672,-0.04219458997249603
1751013648337365000,1.472364990234375,0.07997685670852661,0.23553955554962158,-0.038005437701940536
1751013648347308800,1.482308837890625,0.0913245901465416,0.24393384158611298,-0.0249658040702343
1751013648357251800,1.492251953125,0.10645453631877899,0.26093146204948425,-0.011054248549044132
1751013648367196200,1.502196044921875,0.11245889961719513,0.2779408097267151,-0.006156429648399353
1751013648377139200,1.51213916015625,0.10837014764547348,0.2879401743412018,-0.012192750349640846
1751013648387083000,1.5220830078125,0.09502238780260086,0.27913710474967957,-0.02461373433470726
1751013648397026000,1.532026123046875,0.07245529443025589,0.26748043298721313,-0.04272110015153885
1751013648406969000,1.541968994140625,0.06425568461418152,0.2396852970123291,-0.05818367749452591
1751013648416913200,1.5519130859375,0.06775827705860138,0.19901376962661743,-0.07121159881353378
1751013648426856000,1.56185595703125,0.08472820371389389,0.15061773359775543,-0.08263175934553146
1751013648436800000,1.571800048828125,0.10363664478063583,0.11474575847387314,-0.08662783354520798
1751013648446743000,1.581742919921875,0.12348252534866333,0.08682331442832947,-0.08465576171875
1751013648456686800,1.591686767578125,0.15168353915214539,0.05763240158557892,-0.08506403118371964
1751013648466630000,1.6016298828125,0.17190678417682648,0.03201465681195259,-0.09869994223117828
1751013648476573000,1.611572998046875,0.1879267543554306,0.023483222350478172,-0.1160975769162178
1751013648486517000,1.62151708984375,0.19781774282455444,0.03663976863026619,-0.1318371295928955
1751013648496460000,1.6314599609375,0.2139652818441391,0.044449225068092346,-0.15301086008548737
1751013648506403800,1.64140380859375,0.2311762273311615,0.04505109786987305,-0.1662321239709854
1751013648516347000,1.651346923828125,0.24503105878829956,0.05140247195959091,-0.17667996883392334
1751013648526291000,1.661291015625,0.2427798956632614,0.06027212738990784,-0.17191743850708008
1751013648536234000,1.67123388671875,0.2291964292526245,0.06690020114183426,-0.15953293442726135
1751013648546178000,1.681177978515625,0.21145018935203552,0.051467716693878174,-0.14327460527420044
1751013648556121000,1.69112109375,0.19983161985874176,0.023613184690475464,-0.12300395220518112
1751013648566064000,1.701064208984375,0.19095876812934875,-0.0054155378602445126,-0.10213169455528259
1751013648576008200,1.71100830078125,0.19379396736621857,-0.024262728169560432,-0.07935873419046402
1751013648585951000,1.720950927734375,0.19879299402236938,-0.025679264217615128,-0.05766036733984947
1751013648595895000,1.73089501953125,0.19578441977500916,-0.04039163142442703,-0.03617105260491371
1751013648605838000,1.740838134765625,0.1858990341424942,-0.05717860162258148,-0.020836839452385902
1751013648615782100,1.7507822265625,0.17251424491405487,-0.08353111147880554,-0.014652712270617485
1751013648625725000,1.760724853515625,0.15336665511131287,-0.1086532399058342,-0.01823812536895275
1751013648635669200,1.770669189453125,0.12976518273353577,-0.11995596438646317,-0.026979686692357063
1751013648645612000,1.780612060546875,0.10221212357282639,-0.09356164187192917,-0.03415956720709801
1751013648655555000,1.79055517578125,0.0775991901755333,-0.034572359174489975,-0.03509833291172981
1751013648665499100,1.8004990234375,0.06285513192415237,0.04141215607523918,-0.01492355577647686
1751013648675442200,1.810442138671875,0.048416003584861755,0.09724479168653488,0.008430768735706806
1751013648685386200,1.82038623046875,0.029024994000792503,0.1163196861743927,0.03137337043881416
1751013648695329300,1.830329345703125,0.009120794013142586,0.11463923007249832,0.04596935585141182
1751013648705273000,1.840273193359375,-0.010076869279146194,0.08515830338001251,0.050985418260097504
1751013648715216100,1.850216064453125,-0.038181208074092865,0.052555885165929794,0.03891384229063988
1751013648725159200,1.8601591796875,-0.05415910854935646,0.030470557510852814,0.023600134998559952
1751013648735103200,1.870103271484375,-0.07043767720460892,0.020067451521754265,0.016337694600224495
1751013648745046000,1.8800458984375,-0.08126715570688248,0.012279835529625416,0.013380253687500954
1751013648754990000,1.889989990234375,-0.09058795869350433,0.009999637492001057,0.01978941820561886
1751013648764933000,1.89993310546875,-0.10519752651453018,0.01775422878563404,0.030413566157221794
1751013648774877200,1.909877197265625,-0.12098607420921326,0.024224646389484406,0.03879160434007645
1751013648784820000,1.919820068359375,-0.13507525622844696,0.022310098633170128,0.03809705004096031
1751013648794764000,1.929763916015625,-0.13986362516880035,0.0048946235328912735,0.03175713121891022
1751013648804707000,1.93970703125,-0.13222675025463104,-0.014301175251603127,0.022825421765446663
1751013648814650000,1.949650146484375,-0.11162293702363968,-0.033968884497880936,0.015623967163264751
1751013648824594000,1.959593994140625,-0.0843212753534317,-0.04465588554739952,0.012566657736897469
1751013648834537000,1.969536865234375,-0.057727210223674774,-0.039316512644290924,0.021261079236865044
1751013648844481300,1.979481201171875,-0.024101873859763145,-0.014367753639817238,0.034629881381988525
1751013648854424000,1.989424072265625,-0.0012479572324082255,0.017264474183321,0.052917275577783585
1751013648864368000,1.9993681640625,0.025310415774583817,0.04845808073878288,0.07794486731290817
1751013648874311200,2.009311279296875,0.0406331792473793,0.06818251311779022,0.10481216758489609
1751013648884255200,2.019255126953125,0.048181112855672836,0.06643921136856079,0.12028966099023819
1751013648894198300,2.0291982421875,0.04844050481915474,0.05444379895925522,0.1276644915342331
1751013648904141300,2.039141357421875,0.039498407393693924,0.03882116451859474,0.12374857068061829
1751013648914085000,2.049085205078125,0.019335081800818443,0.019246932119131088,0.11319180577993393
1751013648924028200,2.059028076171875,-0.014507836662232876,-0.0006492786924354732,0.09546713531017303
1751013648933972200,2.06897216796875,-0.0452127531170845,-0.015750201418995857,0.07990841567516327
1751013648943915000,2.0789150390625,-0.06386633217334747,-0.037205956876277924,0.07249604165554047
1751013648953859000,2.088859130859375,-0.07071571797132492,-0.04398556798696518,0.06322770565748215
1751013648963802000,2.098802001953125,-0.06608793884515762,-0.03172677010297775,0.05838048458099365
1751013648973746200,2.10874609375,-0.05702760070562363,-0.01715821400284767,0.046897467225790024
1751013648983689000,2.11868896484375,-0.0524032860994339,-0.008928247727453709,0.03319230675697327
1751013648993632000,2.128632080078125,-0.049195773899555206,0.003754790872335434,0.016473781317472458
1751013649003576000,2.138576171875,-0.05595114827156067,0.013539244420826435,0.00418515782803297
1751013649013519000,2.14851904296875,-0.06714015454053879,0.016325177624821663,-0.014111291617155075
1751013649023463000,2.158462890625,-0.08267650753259659,0.016023973003029823,-0.03188017010688782
1751013649033406000,2.168406005859375,-0.10218602418899536,0.008266984485089779,-0.05347947031259537
1751013649043350300,2.178350341796875,-0.12074532359838486,0.003150785807520151,-0.07102091610431671
1751013649053293300,2.188293212890625,-0.13693548738956451,0.01306227222084999,-0.08150524646043777
1751013649063236400,2.198236328125,-0.1520334780216217,0.042578086256980896,-0.08409010618925095
1751013649073180200,2.20818017578125,-0.16217611730098724,0.06618247926235199,-0.08062320947647095
1751013649083123200,2.218123291015625,-0.1639156937599182,0.08620066195726395,-0.07040412724018097
1751013649093067300,2.2280673828125,-0.14131078124046326,0.09033548831939697,-0.05614662542939186
1751013649103010300,2.23801025390625,-0.10806494951248169,0.0981188416481018,-0.03831623122096062
1751013649112954000,2.2479541015625,-0.07200681418180466,0.09976574033498764,-0.011712582781910896
1751013649122897200,2.257897216796875,-0.03927390277385712,0.09331317245960236,0.02821858786046505
1751013649132841200,2.26784130859375,-0.011451059952378273,0.07887750118970871,0.07193250954151154
1751013649142784000,2.277783935546875,0.0073476615361869335,0.051897019147872925,0.10803139209747314
1751013649152727000,2.28772705078125,0.018513496965169907,0.03219149261713028,0.13260997831821442
1751013649162671000,2.297671142578125,0.016055665910243988,0.023153522983193398,0.13508564233779907
1751013649172614100,2.3076142578125,0.005281048361212015,0.016382168978452682,0.12108088284730911
1751013649182558000,2.317557861328125,-0.004609399009495974,0.0149813462048769,0.08816447854042053
1751013649192501000,2.3275009765625,-0.018008828163146973,0.013979198411107063,0.05387148633599281
1751013649202445000,2.337445068359375,-0.02587340958416462,0.01059112511575222,0.012540026567876339
1751013649212388000,2.34738818359375,-0.025306954979896545,0.005152151454240084,-0.032289497554302216
1751013649222332000,2.357331787109375,-0.020729780197143555,0.006020075641572475,-0.06870423257350922
1751013649232275000,2.36727490234375,-0.02317189797759056,0.013336045667529106,-0.10470004379749298
1751013649242218000,2.377218017578125,-0.029463084414601326,0.01625034213066101,-0.12907515466213226
1751013649252162300,2.387162353515625,-0.03808986023068428,0.01507002953439951,-0.14284823834896088
1751013649262105300,2.397105224609375,-0.04593100771307945,0.01894306391477585,-0.1475745439529419
1751013649272049200,2.407049072265625,-0.056351687759160995,0.028131769970059395,-0.14456729590892792
1751013649281992200,2.4169921875,-0.07052236795425415,0.0314151793718338,-0.1330059915781021
1751013649291936300,2.426936279296875,-0.07523536682128906,0.0255769994109869,-0.12209741026163101
1751013649301879000,2.436879150390625,-0.07341962307691574,0.020251475274562836,-0.11627840250730515
1751013649311822000,2.446822021484375,-0.07456851005554199,0.02706863544881344,-0.10594134777784348
1751013649321766100,2.45676611328125,-0.07421138137578964,0.03627864643931389,-0.1010693609714508
1751013649331709200,2.466709228515625,-0.06848584860563278,0.03573030233383179,-0.08734475821256638
1751013649341653000,2.476653076171875,-0.060868412256240845,0.03429645299911499,-0.07603777945041656
1751013649351596000,2.486595947265625,-0.04598746448755264,0.03230787068605423,-0.06371932476758957
1751013649361540000,2.4965400390625,-0.026030801236629486,0.02947613224387169,-0.053037386387586594
1751013649371483100,2.506483154296875,-0.0064744106493890285,0.023094667121767998,-0.04422738403081894
1751013649381427000,2.516427001953125,0.010696319863200188,0.009395365603268147,-0.03682352975010872
1751013649391370000,2.526369873046875,0.02202567271888256,-0.004750546533614397,-0.02845933847129345
1751013649401313000,2.53631298828125,0.022546321153640747,-0.012021508999168873,-0.01907702162861824
1751013649411257000,2.546257080078125,0.02617381326854229,-0.010361826978623867,-0.0035515916533768177
1751013649421200100,2.5562001953125,0.03424745425581932,-0.0035183019936084747,0.01630174182355404
1751013649431144000,2.56614404296875,0.03767680376768112,0.00711862975731492,0.032406143844127655
1751013649441087000,2.5760869140625,0.03730396181344986,0.017102554440498352,0.04628121107816696
1751013649451031300,2.58603125,0.034752123057842255,0.023937823250889778,0.06015761196613312
1751013649460974300,2.595974365234375,0.030827155336737633,0.02237721160054207,0.05964548513293266
1751013649470918100,2.605918212890625,0.03081090934574604,0.006087187211960554,0.060397032648324966
1751013649480861200,2.615861083984375,0.04445268586277962,-0.022658174857497215,0.053514622151851654
1751013649490804200,2.62580419921875,0.05832109600305557,-0.049081526696681976,0.044081173837184906
1751013649500748000,2.635748046875,0.06759902089834213,-0.07889268547296524,0.0334588922560215
1751013649510691000,2.645691162109375,0.07040279358625412,-0.10675227642059326,0.02815733477473259
1751013649520635100,2.65563525390625,0.05336841568350792,-0.13276097178459167,0.014247379265725613
1751013649530578200,2.665578125,0.025164475664496422,-0.14487355947494507,0.006090383045375347
1751013649540522000,2.67552197265625,-0.010351440869271755,-0.14349430799484253,-0.013511281460523605
1751013649550464800,2.68546484375,-0.043294209986925125,-0.10849771648645401,-0.03244609013199806
1751013649560407800,2.69540771484375,-0.05896105617284775,-0.058757588267326355,-0.04676404222846031
1751013649570351900,2.705351806640625,-0.06992235779762268,-0.014790929853916168,-0.057924818247556686
1751013649580295000,2.715294921875,-0.06598008424043655,0.012398346327245235,-0.06129957735538483
1751013649590238700,2.72523876953125,-0.04536055773496628,0.03149108216166496,-0.05330636352300644
1751013649600181800,2.735181640625,-0.019701266661286354,0.027524568140506744,-0.04550649970769882
1751013649610125800,2.745125732421875,0.0023640880826860666,0.01581491529941559,-0.03346288576722145
1751013649620068900,2.75506884765625,0.014023407362401485,0.004444549325853586,-0.02424115687608719
1751013649630012700,2.7650126953125,0.014487862586975098,-0.009475793689489365,-0.01846209727227688
1751013649639955700,2.774955810546875,0.005020591430366039,-0.021587850525975227,-0.019340941682457924
1751013649649898800,2.784898681640625,-0.004840828012675047,-0.03138801455497742,-0.023131152614951134
1751013649659843000,2.794843017578125,-0.012387693859636784,-0.02906787022948265,-0.026935476809740067
1751013649669785900,2.804785888671875,-0.01028885692358017,-0.02701590396463871,-0.03177870064973831
1751013649679730000,2.81472998046875,0.002159823663532734,-0.028600219637155533,-0.03639795631170273
1751013649689673000,2.8246728515625,0.01290541235357523,-0.03198909014463425,-0.03850265219807625
1751013649699617000,2.834616943359375,0.025676866993308067,-0.03362800180912018,-0.04150217026472092
1751013649709559800,2.844559814453125,0.026913639158010483,-0.020846959203481674,-0.045636460185050964
1751013649719502800,2.8545029296875,0.021163342520594597,0.0019036275334656239,-0.05119554325938225
1751013649729447000,2.864447021484375,0.0058669438585639,0.028680114075541496,-0.052625659853219986
1751013649739390000,2.874389892578125,-0.0071098413318395615,0.05497616529464722,-0.06107427179813385
1751013649749333800,2.884333740234375,-0.014028999954462051,0.06558380275964737,-0.06496701389551163
1751013649759276800,2.89427685546875,-0.01438027061522007,0.05217105895280838,-0.07250935584306717
1751013649769220900,2.904220947265625,-0.007564176339656115,0.02562813088297844,-0.0756649300456047
1751013649779164000,2.914163818359375,-0.007447530049830675,0.0075884112156927586,-0.0657220184803009
1751013649789107700,2.924107666015625,-0.005828860681504011,-0.002156361471861601,-0.04740772768855095
1751013649799050800,2.93405078125,-0.002942526713013649,-0.000535561703145504,-0.028444424271583557
1751013649808993800,2.943993896484375,-0.00999244675040245,0.009238505735993385,-0.005213404074311256
1751013649818937900,2.953937744140625,0.0006056028068996966,0.0215993020683527,0.015127819962799549
1751013649828881000,2.963880859375,0.008639561012387276,0.018003767356276512,0.019210180267691612
1751013649838824700,2.97382470703125,0.01949540339410305,0.009638246148824692,0.021877335384488106
1751013649848767700,2.983767822265625,0.025767948478460312,0.0012652678415179253,0.023905599489808083
1751013649858712000,2.993712158203125,0.029691316187381744,-0.001064731739461422,0.021199028939008713
1751013649868654800,3.00365478515625,0.03093128465116024,0.010086456313729286,0.014788000844419003
1751013649878598000,3.013597900390625,0.0226786807179451,0.01906583644449711,0.0005627259379252791
1751013649888542000,3.0235419921875,0.01113334484398365,0.032048214226961136,-0.019715381786227226
1751013649898485000,3.033485107421875,0.005930060520768166,0.04833397641777992,-0.031011711806058884
1751013649908428800,3.0434287109375,-0.0011994877131655812,0.05560360848903656,-0.04603993147611618
1751013649918371800,3.053371826171875,-0.005564675200730562,0.053665891289711,-0.04797844588756561
1751013649928316000,3.06331591796875,-0.002920954953879118,0.04725806042551994,-0.041677139699459076
1751013649938259000,3.073259033203125,-0.001731587341055274,0.03961025923490524,-0.038959648460149765
1751013649948202800,3.08320263671875,0.004169178660959005,0.024647289887070656,-0.03242265433073044
1751013649958145800,3.093145751953125,0.0035981968976557255,0.01685168407857418,-0.026802852749824524
1751013649968088800,3.1030888671875,0.0031547807157039642,0.015269233845174313,-0.023190008476376534
1751013649978033000,3.113032958984375,0.004535629414021969,0.016386430710554123,-0.019543873146176338
1751013649987976000,3.122975830078125,0.007507983595132828,0.008302404545247555,-0.011577560566365719
1751013649997919700,3.132919677734375,0.013186109252274036,0.014541924931108952,-0.00401524780318141
1751013650007862800,3.14286279296875,0.022951921448111534,0.02658740244805813,0.006278135813772678
1751013650017806800,3.152806884765625,0.028501415625214577,0.03650448098778725,0.00833755824714899
1751013650027750000,3.16275,0.03568076714873314,0.041901376098394394,0.009276056662201881
1751013650037692700,3.172692626953125,0.038601454347372055,0.043245475739240646,0.0023995081428438425
1751013650047637000,3.182636962890625,0.025729864835739136,0.03724643960595131,-0.005175320897251368
1751013650057579800,3.192579833984375,0.011562113650143147,0.030656445771455765,-0.008521582931280136
1751013650067523800,3.20252392578125,-0.0094520915299654,0.03880838304758072,-0.010820423252880573
1751013650077467000,3.212466796875,-0.025554096326231956,0.03289696201682091,-0.015249792486429214
1751013650087411000,3.222410888671875,-0.03627971187233925,0.01588176190853119,-0.022109029814600945
1751013650097354000,3.23235400390625,-0.0400286428630352,-0.0002556634717620909,-0.02364221215248108
1751013650107297800,3.2422978515625,-0.0477219820022583,0.014509966596961021,-0.021270135417580605
1751013650117240800,3.25224072265625,-0.042980488389730453,0.03187857195734978,-0.013773602433502674
1751013650127184000,3.262183837890625,-0.036981452256441116,0.05349757894873619,-0.006867493502795696
1751013650137128000,3.2721279296875,-0.030760042369365692,0.06413211673498154,0.0031150993891060352
1751013650147071000,3.282071044921875,-0.018006697297096252,0.06280452758073807,0.01641998626291752
1751013650157014800,3.292014892578125,-0.011147726327180862,0.06416647136211395,0.01822454296052456
1751013650166957800,3.301957763671875,-0.016089487820863724,0.06436780095100403,0.01973881758749485
1751013650176902000,3.31190185546875,-0.026509637013077736,0.05607498809695244,0.026645459234714508
1751013650186845000,3.321844970703125,-0.03864752873778343,0.04000147804617882,0.027354925870895386
1751013650196787700,3.33178759765625,-0.0490889810025692,0.028144553303718567,0.02653014473617077
1751013650206731800,3.341731689453125,-0.051952678710222244,0.01823759265244007,0.026687003672122955
1751013650216674800,3.3516748046875,-0.038476817309856415,0.010677145794034004,0.02821486070752144
1751013650226619000,3.361618896484375,-0.017592841759324074,0.010125071741640568,0.034813106060028076
1751013650236561700,3.371561767578125,0.006776679772883654,0.017172861844301224,0.036682382225990295
1751013650246506000,3.381506103515625,0.028568528592586517,0.021511416882276535,0.031131288036704063
1751013650256449000,3.391448974609375,0.04271524026989937,0.033060479909181595,0.024237429723143578
1751013650266391800,3.401391845703125,0.048411741852760315,0.05114893615245819,0.015356052666902542
1751013650276335900,3.4113359375,0.05002854764461517,0.07219776511192322,0.012206332758069038
1751013650286279000,3.42127880859375,0.037701305001974106,0.07289551198482513,0.009081113152205944
1751013650296223000,3.431222900390625,0.032763272523880005,0.061778679490089417,0.007515174336731434
1751013650306166000,3.441166015625,0.031077757477760315,0.051591821014881134,-0.0004106594424229115
1751013650316109800,3.45110986328125,0.023272832855582237,0.039264582097530365,-0.008952482603490353
1751013650326052900,3.461052978515625,0.01465697307139635,0.025144236162304878,-0.025314411148428917
1751013650335996000,3.470995849609375,0.0026256104465574026,0.025906166061758995,-0.04609079658985138
1751013650345940000,3.48093994140625,-0.01210087165236473,0.029821278527379036,-0.06392758339643478
1751013650355883000,3.490883056640625,-0.030059631913900375,0.0359066016972065,-0.08274894207715988
1751013650365826800,3.500826904296875,-0.036980919539928436,0.03593722730875015,-0.08789177238941193
1751013650375769900,3.510769775390625,-0.044975731521844864,0.039199333637952805,-0.08362432569265366
1751013650385714000,3.5207138671875,-0.047504935413599014,0.04470328986644745,-0.06710819900035858
1751013650395656700,3.53065673828125,-0.04821306839585304,0.04935156926512718,-0.04397731274366379
1751013650405600800,3.540600830078125,-0.04502153769135475,0.05723985284566879,-0.018190454691648483
1751013650415543800,3.550543701171875,-0.03404079005122185,0.06844350695610046,0.002984072081744671
1751013650425486800,3.56048681640625,-0.027885960415005684,0.08254387974739075,0.01582556776702404
1751013650435430700,3.5704306640625,-0.012444685213267803,0.08415162563323975,0.02334899827837944
1751013650445373700,3.580373779296875,-0.0020003002136945724,0.0760798528790474,0.021799039095640182
1751013650455318000,3.590318115234375,0.01230513583868742,0.06363330781459808,0.018967831507325172
1751013650465261000,3.600260986328125,0.01696833036839962,0.05697007477283478,0.011155715212225914
1751013650475204900,3.610204833984375,0.021795576438307762,0.051662396639585495,0.008328237570822239
1751013650485148000,3.62014794921875,0.022046713158488274,0.050331346690654755,0.003906857222318649
1751013650495091000,3.630091064453125,0.024176176637411118,0.04238287732005119,0.004099670331925154
1751013650505035000,3.640034912109375,0.0409221313893795,0.033607762306928635,0.009695237502455711
1751013650514978000,3.64997802734375,0.053335126489400864,0.02773495763540268,0.012664929032325745
1751013650524921900,3.659921875,0.06769329309463501,0.028956284746527672,0.01239222101867199
1751013650534865000,3.669864990234375,0.07252852618694305,0.024761538952589035,0.008096009492874146
1751013650544809000,3.67980908203125,0.07269550859928131,0.026068085804581642,-0.011112039908766747
1751013650554755300,3.68975537109375,0.06764934957027435,0.03582324460148811,-0.021016601473093033
1751013650564698000,3.699697998046875,0.05458281934261322,0.042575955390930176,-0.03315289318561554
1751013650574642200,3.70964208984375,0.04741998016834259,0.0475187823176384,-0.04969139024615288
1751013650584585200,3.719585205078125,0.037627268582582474,0.04971402511000633,-0.06568686664104462
1751013650594529000,3.729529052734375,0.029557891190052032,0.0494045689702034,-0.08004157245159149
1751013650604472000,3.73947216796875,0.015117167495191097,0.03587064892053604,-0.09427297115325928
1751013650614416100,3.749416015625,-0.007787349168211222,0.012342952191829681,-0.10512349009513855
1751013650624359200,3.759359130859375,-0.03316381201148033,-0.008779110386967659,-0.10894698649644852
1751013650634303000,3.769302978515625,-0.0553511381149292,-0.025533055886626244,-0.10534186661243439
1751013650644246000,3.77924609375,-0.07145820558071136,-0.03272385895252228,-0.10121263563632965
1751013650654189000,3.78918896484375,-0.08028312027454376,-0.027703532949090004,-0.09498803317546844
1751013650664133000,3.799133056640625,-0.07750357687473297,-0.00926220789551735,-0.08598308265209198
1751013650674076200,3.809076171875,-0.06388790160417557,0.002287389012053609,-0.0766066238284111
1751013650684020000,3.81902001953125,-0.04741332307457924,0.010464625433087349,-0.06915483623743057
1751013650693963000,3.828962890625,-0.027705131098628044,0.01757153682410717,-0.05805265158414841
1751013650703907000,3.838906982421875,-0.012778645381331444,0.02749420888721943,-0.05156172811985016
1751013650713850000,3.84885009765625,-0.002861566608771682,0.037222202867269516,-0.039935432374477386
1751013650723793200,3.858793212890625,-0.00031878036679700017,0.03900971636176109,-0.030420223250985146
1751013650733737200,3.8687373046875,-0.0025752766523510218,0.03346554934978485,-0.026550916954874992
1751013650743680000,3.878679931640625,-0.00672341650351882,0.03473507612943649,-0.01763944700360298
1751013650753624300,3.888624267578125,-0.009637713432312012,0.03741501644253731,-0.016696155071258545
1751013650763567000,3.898567138671875,-0.010146111249923706,0.03442748263478279,-0.011897671967744827
1751013650773511200,3.90851123046875,-0.004209392238408327,0.02040274254977703,-0.0021515677217394114
1751013650783454200,3.9184541015625,0.003038134193047881,0.01022760383784771,0.004504736978560686
1751013650793397200,3.928397216796875,0.015283615328371525,0.0002865561400540173,0.023785756900906563
1751013650803341000,3.938341064453125,0.0302609670907259,-0.00310497940517962,0.038965776562690735
1751013650813284000,3.9482841796875,0.04518265649676323,0.0004950816510245204,0.05006556212902069
1751013650823228200,3.958228271484375,0.04946395754814148,0.0011179950088262558,0.0577826052904129
1751013650833171200,3.968171142578125,0.055580172687768936,0.008866195566952229,0.05522996559739113
1751013650843115000,3.978114990234375,0.055745553225278854,0.025405224412679672,0.03734390810132027
1751013650853058000,3.98805810546875,0.0504826158285141,0.05097609758377075,0.02339986525475979
1751013650863001000,3.9980009765625,0.04637868329882622,0.06083086133003235,0.0026847326662391424
1751013650872945200,4.007945068359375,0.041961297392845154,0.0588928759098053,-0.009910421445965767
1751013650882888200,4.01788818359375,0.035106852650642395,0.0539146289229393,-0.013739247806370258
1751013650892832000,4.02783203125,0.031993620097637177,0.04471553862094879,-0.010458233766257763
1751013650902775000,4.037775146484375,0.030246052891016006,0.03062901459634304,-0.005456018261611462
1751013650912719000,4.047718994140625,0.016623185947537422,0.023979900404810905,0.0011270497925579548
1751013650922662100,4.057662109375,0.007089600898325443,0.01834465190768242,0.006827812176197767
1751013650932605000,4.06760498046875,0.0006924218614585698,0.014415157958865166,0.009751430712640285
1751013650942549200,4.07754931640625,-0.0026559706311672926,0.019120963290333748,-0.0005017395596951246
1751013650952492000,4.087491943359375,-0.00905474741011858,0.021739117801189423,-0.017041567713022232
1751013650962436000,4.09743603515625,-0.009403355419635773,0.02485474944114685,-0.029576001688838005
1751013650972379100,4.107379150390625,-0.00498037738725543,0.029947778210043907,-0.049364086240530014
1751013650982323200,4.1173232421875,0.00010972223390126601,0.03714017942547798,-0.051539089530706406
1751013650992266200,4.127266357421875,0.005271194502711296,0.03972024843096733,-0.049256227910518646
1751013651002210000,4.1372099609375,0.00854155607521534,0.035533759742975235,-0.03754844143986702
1751013651012153000,4.147153076171875,0.0059782639145851135,0.023491477593779564,-0.017682325094938278
1751013651022096100,4.15709619140625,0.006257096771150827,0.011011905036866665,0.005212604999542236
1751013651032040200,4.167040283203125,0.001255680457688868,-0.01092508528381586,0.0284659955650568
1751013651041983200,4.176983154296875,-0.006463758181780577,-0.0387151725590229,0.049492716789245605
1751013651051927000,4.186927001953125,-0.006144711747765541,-0.05787421762943268,0.06602083146572113
1751013651061870000,4.1968701171875,-0.005502090789377689,-0.0689614936709404,0.08855543285608292
1751013651071814100,4.206814208984375,0.0026431872975081205,-0.06434889882802963,0.10700208693742752
1751013651081757200,4.216757080078125,0.0020034960471093655,-0.06102633476257324,0.11862438172101974
1751013651091700000,4.226699951171875,0.007003314793109894,-0.054727427661418915,0.11035314202308655
1751013651101644000,4.23664404296875,0.014821556396782398,-0.04023636877536774,0.08735860884189606
1751013651111587000,4.246587158203125,0.016689231619238853,-0.02063124254345894,0.05919328331947327
1751013651121531100,4.25653125,0.015777897089719772,-0.0020841897930949926,0.025959428399801254
1751013651131474000,4.266473876953125,0.016028501093387604,0.021276259794831276,-0.005002748221158981
1751013651141418200,4.276418212890625,0.016086824238300323,0.04237382113933563,-0.02431599237024784
1751013651151361300,4.286361328125,0.015218367800116539,0.0417005755007267,-0.03910692408680916
1751013651161304300,4.29630419921875,0.010664362460374832,0.029099827632308006,-0.05005411058664322
1751013651171248000,4.306248046875,0.006427539046853781,0.019179286435246468,-0.05441583693027496
1751013651181191200,4.316191162109375,-0.0022927154786884785,0.00469621829688549,-0.052441105246543884
1751013651191135200,4.32613525390625,-0.008097074925899506,-0.0029292108956724405,-0.044141896069049835
1751013651201078300,4.336078369140625,-0.007524495478719473,-0.004731105640530586,-0.03455531224608421
1751013651211022000,4.34602197265625,-0.0024205471854656935,-0.00002210423735959921,-0.015740614384412766
1751013651220965000,4.355965087890625,0.007934089750051498,0.003323625074699521,-0.003141997382044792
1751013651230908200,4.365908203125,0.01665913686156273,0.013945376500487328,0.0013305152533575892
1751013651240852200,4.375852294921875,0.021757226437330246,0.02406965009868145,0.002968359272927046
1751013651250795000,4.385794921875,0.02034308761358261,0.03259682655334473,0.0005427522119134665
1751013651260739000,4.395739013671875,0.020439228042960167,0.03260374814271927,-0.005089833401143551
1751013651270682000,4.40568212890625,0.018142517656087875,0.021679995581507683,-0.01341860368847847
1751013651280626200,4.415626220703125,0.015621836297214031,0.014487329870462418,-0.022241123020648956
1751013651290569000,4.42556884765625,0.009303753264248371,0.006714894436299801,-0.02544703707098961
1751013651300512000,4.435511962890625,0.007498662453144789,0.002412823960185051,-0.027533091604709625
1751013651310456000,4.4454560546875,0.002369148191064596,-0.00007297061529243365,-0.022767363116145134
1751013651320399000,4.455399169921875,0.005584915168583393,-0.0016580841038376093,-0.022580409422516823
1751013651330343000,4.465343017578125,0.007837682962417603,0.0014258564915508032,-0.023451795801520348
1751013651340286000,4.475285888671875,0.006868026219308376,0.016653545200824738,-0.0217156819999218
1751013651350230300,4.485230224609375,0.0030394657514989376,0.02798529528081417,-0.02311011217534542
1751013651360173300,4.49517333984375,-0.005886917468160391,0.026196449995040894,-0.027766384184360504
1751013651370116400,4.505116455078125,-0.008474178612232208,0.021086109802126884,-0.027522969990968704
1751013651380060200,4.51506005859375,-0.004463724326342344,0.017528660595417023,-0.024501880630850792
1751013651390003200,4.525003173828125,-0.00475560687482357,0.014443919993937016,-0.02335086278617382
1751013651399947300,4.534947265625,0.000592020689509809,0.005004878621548414,-0.023750336840748787
1751013651409890000,4.54489013671875,0.004759068600833416,0.00570023013278842,-0.02701989933848381
1751013651419834000,4.554834228515625,0.010276606306433678,0.01823439821600914,-0.021523933857679367
1751013651429777200,4.564777099609375,0.011927233077585697,0.03311188146471977,-0.02178891934454441
1751013651439720200,4.57472021484375,0.014040185138583183,0.02810806781053543,-0.024829715490341187
1751013651449664000,4.5846640625,0.014312094077467918,0.02292502298951149,-0.028317125514149666
1751013651459607000,4.59460693359375,0.01152669358998537,0.01287531852722168,-0.03522057086229324
1751013651469551000,4.604551025390625,0.003982224967330694,-0.006548979319632053,-0.041437454521656036
1751013651479494100,4.614494140625,-0.0019832560792565346,-0.01943921111524105,-0.05114787071943283
1751013651489438000,4.62443798828125,-0.0017670074012130499,-0.01715102419257164,-0.05375111103057861
1751013651499381000,4.634381103515625,-0.0023102923296391964,-0.01643197052180767,-0.05638737604022026
1751013651509325000,4.644324951171875,0.0004897553008049726,-0.008174306713044643,-0.05993736907839775
1751013651519268000,4.65426806640625,0.0027081684675067663,0.0033659692853689194,-0.053038984537124634
1751013651529211100,4.664211181640625,0.006139385048300028,0.012554141692817211,-0.04722370579838753
1751013651539155000,4.674155029296875,0.003067162586376071,0.006940730381757021,-0.04543166235089302
1751013651549095000,4.684094970703125,0.000245543458731845,0.006686132401227951,-0.03796043246984482
1751013651559039000,4.6940390625,-0.0038490667939186096,0.010248109698295593,-0.03442774713039398
1751013651568981800,4.703981689453125,-0.006435528863221407,0.017601097002625465,-0.023545006290078163
1751013651578924800,4.7139248046875,-0.00765765318647027,0.01666686125099659,-0.0138417799025774
1751013651588868900,4.723868896484375,-0.005711681675165892,0.0015925703337416053,-0.011539476923644543
1751013651598812000,4.73381201171875,-0.004168379586189985,-0.007548197638243437,-0.005343366414308548
1751013651608755700,4.743755615234375,-0.0013427657540887594,-0.012651080265641212,-0.008915730752050877
1751013651618698800,4.75369873046875,0.0005781722720712423,-0.017736919224262238,-0.011724832467734814
1751013651628642800,4.763642822265625,0.0022738068364560604,-0.012055064551532269,-0.016325976699590683
1751013651638585900,4.7735859375,0.003935619257390499,0.007286408916115761,-0.022289592772722244
1751013651648529000,4.78352880859375,0.00004900216299574822,0.020850153639912605,-0.03453826904296875
1751013651658473000,4.793472900390625,-0.006707170978188515,0.023451263085007668,-0.043528035283088684
1751013651668416000,4.803416015625,-0.008735435083508492,0.018553445115685463,-0.04824422672390938
1751013651678360000,4.813360107421875,-0.0044381581246852875,0.010758638381958008,-0.0431557260453701
1751013651688303000,4.82330322265625,0.005754025653004646,0.005666141398251057,-0.03086017817258835
1751013651698247000,4.833246826171875,0.012631905265152454,0.012569854035973549,-0.018014153465628624
1751013651708190000,4.84318994140625,0.011053450405597687,0.020022977143526077,-0.008954346179962158
1751013651718133000,4.853133056640625,0.003963049966841936,0.02485847845673561,-0.007696801796555519
1751013651728077000,4.8630771484375,-0.0029617014806717634,0.012721920385956764,-0.018192851915955544
1751013651738019800,4.873019775390625,-0.013230584561824799,-0.012429239228367805,-0.03879506513476372
1751013651747964000,4.8829638671875,-0.01690707728266716,-0.0323166623711586,-0.05564994737505913
1751013651757907000,4.892906982421875,-0.015915317460894585,-0.04090002924203873,-0.06460509449243546
1751013651767850800,4.902850830078125,-0.00666402792558074,-0.03134220838546753,-0.06031420826911926
1751013651777793800,4.912793701171875,0.007541805971413851,-0.034386735409498215,-0.059117913246154785
1751013651787737900,4.92273779296875,0.02232794277369976,-0.038599058985710144,-0.058221228420734406
1751013651797681000,4.932680908203125,0.028146149590611458,-0.024333834648132324,-0.048105478286743164
1751013651807624000,4.9426240234375,0.026559971272945404,-0.004790760576725006,-0.030348584055900574
1751013651817567700,4.952567626953125,0.01978941820561886,0.0028514466248452663,-0.016866864636540413
1751013651827510800,4.9625107421875,0.016381636261940002,-0.007026217877864838,-0.006667756475508213
1751013651837454800,4.972454833984375,0.016933443024754524,-0.024026772007346153,-0.006677876226603985
1751013651847398000,4.98239794921875,0.02033882774412632,-0.04511954262852669,-0.013648700900375843
1751013651857342000,4.992342041015625,0.025437982752919197,-0.06740806996822357,-0.031369905918836594
1751013651867285000,5.002284912109375,0.024479510262608528,-0.08573488146066666,-0.05493329092860222
1751013651877228000,5.01222802734375,0.02316177822649479,-0.08573674410581589,-0.08031640946865082
1751013651887172000,5.022172119140625,0.027860127389431,-0.07759226113557816,-0.09439174830913544
1751013651897115000,5.032114990234375,0.03329350799322128,-0.058039866387844086,-0.0973324105143547
1751013651907059000,5.042058837890625,0.04547560587525368,-0.032712671905756,-0.0892459899187088
1751013651917002000,5.052001953125,0.0626884177327156,-0.010640127584338188,-0.07240096479654312
1751013651926946000,5.061946044921875,0.07579276710748672,-0.002371811307966709,-0.04640557989478111
1751013651936888800,5.071888916015625,0.07970467954874039,-0.0051928977482020855,-0.020740699023008347
1751013651946832000,5.081831787109375,0.07116126269102097,-0.014857242815196514,-0.007001183927059174
1751013651956776000,5.09177587890625,0.06148093566298485,-0.018559036776423454,-0.0006945523782633245
1751013651966719000,5.101718994140625,0.04899949952960014,-0.009892045520246029,-0.0006106628570705652
1751013651976662800,5.111662841796875,0.044140562415122986,0.004861867055296898,-0.011196727864444256
1751013651986605800,5.121605712890625,0.03924727067351341,0.014071078039705753,-0.029562685638666153
1751013651996550000,5.1315498046875,0.036979321390390396,0.007714911364018917,-0.047989096492528915
1751013652006493000,5.141492919921875,0.031740885227918625,0.00717615382745862,-0.06065242737531662
1751013652016436000,5.15143603515625,0.021192369982600212,0.005391303449869156,-0.07833155989646912
1751013652026379800,5.1613798828125,0.00812210887670517,0.008459264412522316,-0.08716579526662827
1751013652036322800,5.17132275390625,-0.006217948626726866,0.019417373463511467,-0.09589537233114243
1751013652046267000,5.181266845703125,-0.019898606464266777,0.03157097473740578,-0.09705544263124466
1751013652056210000,5.1912099609375,-0.028132835403084755,0.042766373604536057,-0.09639871120452881
1751013652066154000,5.201154052734375,-0.035292476415634155,0.04061347246170044,-0.09136613458395004
1751013652076097000,5.211096923828125,-0.03459605947136879,0.035886894911527634,-0.0848270058631897
1751013652086040000,5.2210400390625,-0.024775387719273567,0.02370852418243885,-0.07477783411741257
1751013652095983900,5.23098388671875,-0.016320649534463882,0.01549480389803648,-0.057853180915117264
1751013652105927000,5.240927001953125,-0.005533782299607992,0.007331149652600288,-0.04139244556427002
1751013652115871000,5.25087109375,0.00683180708438158,-0.003925233148038387,-0.03056110441684723
1751013652125814000,5.26081396484375,0.012839365750551224,-0.01660028100013733,-0.02713974192738533
1751013652135757800,5.2707578125,0.02648034319281578,-0.01504100114107132,-0.025590049102902412
1751013652145700900,5.280700927734375,0.02767157554626465,-0.005131911486387253,-0.023812655359506607
1751013652155644000,5.290643798828125,0.03187857195734978,0.0017536915838718414,-0.017734255641698837
1751013652165588000,5.300587890625,0.033485256135463715,0.0006628608098253608,-0.006262423470616341
1751013652175531000,5.310531005859375,0.033124662935733795,-0.0036160401068627834,0.013685984537005424
1751013652185474800,5.320474853515625,0.033661291003227234,-0.01324043795466423,0.042394593358039856
1751013652195417900,5.33041796875,0.03365783020853996,-0.023794811218976974,0.06102420389652252
1751013652205362000,5.34036181640625,0.03182797133922577,-0.017018664628267288,0.07159748673439026
1751013652215305000,5.350304931640625,0.02743055857717991,-0.0059897154569625854,0.07546013593673706
1751013652225247700,5.360247802734375,0.025494441390037537,-0.0017030915478244424,0.06699474900960922
1751013652235191800,5.37019189453125,0.023722106590867043,0.0025390577502548695,0.04947487637400627
1751013652245134800,5.380134765625,0.023033680394291878,0.003629622282460332,0.030666565522551537
1751013652255079000,5.390078857421875,0.025200694799423218,-0.0015811186749488115,0.009924003854393959
1751013652265021700,5.400021728515625,0.020140156149864197,-0.005616873037070036,-0.0076392777264118195
1751013652274966000,5.409966064453125,0.009364739991724491,-0.004630704410374165,-0.009466738440096378
1751013652284909000,5.419908935546875,-0.006019276566803455,0.01452914159744978,-0.008537561632692814
1751013652294852000,5.42985205078125,-0.025057150050997734,0.012203669175505638,-0.0056741307489573956
1751013652304796000,5.4397958984375,-0.03435184806585312,0.0006064017652533948,-0.006107693538069725
1751013652314739000,5.449739013671875,-0.031091606244444847,-0.010201770812273026,-0.008363391272723675
1751013652324683000,5.45968310546875,-0.025713086128234863,-0.02364061400294304,-0.014148043468594551
1751013652334626000,5.4696259765625,-0.013580789789557457,-0.02544357441365719,-0.02341557666659355
1751013652344569900,5.47956982421875,-0.005185174755752087,-0.015563513152301311,-0.02617967315018177
1751013652354513000,5.489512939453125,0.0027166905347257853,-0.002368615474551916,-0.029195701703429222
1751013652364456000,5.4994560546875,0.006292250473052263,-0.0032056469935923815,-0.03452708572149277
1751013652374400000,5.50939990234375,0.00890747457742691,-0.00571833923459053,-0.03862062841653824
1751013652384342800,5.5193427734375,0.011216701939702034,-0.007967911660671234,-0.03958815708756447
1751013652394286800,5.529286865234375,0.011416172608733177,-0.001886050682514906,-0.04080548509955406
1751013652404230000,5.53922998046875,0.005161472596228123,0.0030088394414633512,-0.03280748054385185
1751013652414174000,5.549174072265625,-0.002457298804074526,-0.0006988134700804949,-0.02822391502559185
1751013652424116700,5.55911669921875,-0.007060039788484573,-0.00920148752629757,-0.017768610268831253
1751013652434059800,5.569059814453125,0.0028996497858315706,-0.018205635249614716,-0.007077882997691631
1751013652444003800,5.57900390625,0.021926337853074074,-0.024596955627202988,0.0008077367674559355
1751013652453947000,5.58894677734375,0.03945499658584595,-0.016389891505241394,0.012554141692817211
1751013652463890700,5.598890625,0.05440491810441017,-0.0019534286111593246,0.0244922935962677
1751013652473833700,5.608833740234375,0.05335483327507973,0.008738364093005657,0.03850504755973816
1751013652483778000,5.618778076171875,0.05289943516254425,0.016941698268055916,0.04957261309027672
1751013652493721000,5.62872119140625,0.04532753303647041,0.014040984213352203,0.06017359346151352
1751013652503664000,5.6386640625,0.03881450742483139,0.007270696107298136,0.06448817998170853
1751013652513608000,5.64860791015625,0.030896663665771484,0.007705590222030878,0.05244962498545647
1751013652523551000,5.658551025390625,0.022582806646823883,0.023850204423069954,0.04364175349473953
1751013652533495000,5.6684951171875,0.012346947565674782,0.029631128534674644,0.03280188888311386
1751013652543438000,5.67843798828125,-0.001249555149115622,0.04543965309858322,0.025734923779964447
1751013652553381000,5.688381103515625,-0.006691458635032177,0.03585600107908249,0.022458171471953392
1751013652563325200,5.6983251953125,-0.005514075048267841,0.023480825126171112,0.020918332040309906
1751013652573268200,5.708268310546875,0.0026615632232278585,0.008168714120984077,0.01655048131942749
1751013652583212000,5.7182119140625,-0.0034639735240489244,0.0037619813811033964,0.012287558987736702
1751013652593155000,5.728155029296875,-0.005183043889701366,0.0080296965315938,0.007878162898123264
1751013652603099100,5.73809912109375,-0.012673983350396156,0.017602695152163506,-0.004504204262048006
1751013652613042200,5.748042236328125,-0.020607540383934975,0.024505609646439552,-0.01429212000221014
1751013652622986000,5.757986083984375,-0.028809543699026108,0.036305010318756104,-0.02424222230911255
1751013652632929000,5.767928955078125,-0.033837590366601944,0.04212934523820877,-0.02797837182879448
1751013652642872000,5.7778720703125,-0.03707173466682434,0.0449104830622673,-0.021395303308963776
1751013652652816100,5.787816162109375,-0.04098818078637123,0.03283757343888283,-0.01798725686967373
1751013652662759200,5.79775927734375,-0.04104197397828102,0.020534036681056023,-0.02069995179772377
1751013652672703000,5.807702880859375,-0.042806584388017654,0.003564641112461686,-0.021511150524020195
1751013652682646000,5.81764599609375,-0.04588999226689339,-0.0015342470724135637,-0.025668079033493996
1751013652692590300,5.82759033203125,-0.05301474779844284,0.003069559345021844,-0.03501657396554947
1751013652702533000,5.837533203125,-0.05360730364918709,0.01842348277568817,-0.0401303768157959
1751013652712476000,5.847475830078125,-0.05600627884268761,0.03844139724969864,-0.046607714146375656
1751013652722420200,5.857420166015625,-0.05446404218673706,0.057435330003499985,-0.039630234241485596
1751013652732363300,5.86736328125,-0.05441131070256233,0.06748263537883759,-0.04117673262953758
1751013652742307000,5.87730712890625,-0.04673980921506882,0.055217184126377106,-0.032712940126657486
1751013652752250000,5.88725,-0.03585680201649666,0.03448527306318283,-0.023379623889923096
1751013652762193200,5.897193115234375,-0.025127990171313286,0.02238733135163784,-0.010712831281125546
1751013652772137200,5.90713720703125,-0.018547052517533302,0.023317307233810425,-0.0035236284602433443
1751013652782080300,5.917080322265625,-0.014361894689500332,0.03277259320020676,0.009490440599620342
1751013652792024000,5.927024169921875,-0.019641878083348274,0.04920696094632149,0.0190205629914999
1751013652801967000,5.936967041015625,-0.02195856161415577,0.06162208318710327,0.020203804597258568
1751013652811911200,5.9469111328125,-0.025955967605113983,0.05892430245876312,0.026153840124607086
1751013652821854200,5.956854248046875,-0.025896312668919563,0.05024825781583786,0.022042717784643173
1751013652831798000,5.966798095703125,-0.024157267063856125,0.0402507483959198,0.019179819151759148
1751013652841741000,5.976740966796875,-0.01956278271973133,0.04030880704522133,0.01721280813217163
1751013652851684000,5.98668408203125,-0.015870310366153717,0.043664123862981796,0.011145062744617462
1751013652861628200,5.996628173828125,-0.01506763231009245,0.0519377663731575,0.009101885370910168
1751013652871571000,6.006571044921875,-0.017117999494075775,0.05429519712924957,0.008891762234270573
1751013652881515000,6.016514892578125,-0.022849388420581818,0.0446297861635685,0.003662378992885351
1751013652891458000,6.0264580078125,-0.024326112121343613,0.03650501370429993,-0.0008969526388682425
1751013652901402000,6.036402099609375,-0.027481425553560257,0.03788719326257706,0.0035020567011088133
1751013652911345000,6.046344970703125,-0.028665199875831604,0.05043281242251396,0.008345814421772957
1751013652921288000,6.056287841796875,-0.035594746470451355,0.059718456119298935,0.012367719784379005
1751013652931232300,6.066232177734375,-0.036735378205776215,0.071337029337883,0.01829005777835846
1751013652941175300,6.07617529296875,-0.03744670748710632,0.06693509221076965,0.0220927856862545
1751013652951119000,6.086119140625,-0.03159574419260025,0.05806729942560196,0.019526297226548195
1751013652961062100,6.096062255859375,-0.029040705412626266,0.04885116219520569,0.013585316948592663
1751013652971005200,6.106005126953125,-0.02841299958527088,0.0397799015045166,0.003879426745697856
1751013652980949200,6.11594921875,-0.03527889400720596,0.03121837228536606,-0.010903247632086277
1751013652990892300,6.125892333984375,-0.038428615778684616,0.02172287181019783,-0.027467843145132065
1751013653000836000,6.135836181640625,-0.037628334015607834,0.02190050482749939,-0.02990463562309742
1751013653010779100,6.145779052734375,-0.033679135143756866,0.022879216820001602,-0.026613501831889153
1751013653020723200,6.15572314453125,-0.024900022894144058,0.016978982836008072,-0.014100905507802963
1751013653030666200,6.165666259765625,-0.014427941292524338,0.022173212841153145,-0.006464557256549597
1751013653040609000,6.175609130859375,-0.004080495331436396,0.024476580321788788,0.00743234995752573
1751013653050553000,6.185552978515625,-0.004238154739141464,0.03616679087281227,0.015578160993754864
1751013653060496100,6.19549609375,0.0013041499769315124,0.044076379388570786,0.028186896815896034
1751013653070440000,6.20543994140625,0.005278118886053562,0.044312603771686554,0.029631394892930984
1751013653080383000,6.215383056640625,0.004229099955409765,0.032639969140291214,0.022944729775190353
1751013653090327000,6.2253271484375,0.007984955795109272,0.02225497178733349,0.011871040798723698
1751013653100270000,6.23527001953125,0.006701844744384289,0.008714395575225353,-0.004415254574269056
1751013653110213000,6.245213134765625,0.005072522908449173,-0.0029981867410242558,-0.01648443378508091
1751013653120157000,6.255156982421875,0.00321869645267725,-0.00195156445261091,-0.02467125840485096
1751013653130100000,6.265099853515625,0.003960120491683483,0.00808828603476286,-0.029194369912147522
1751013653140044300,6.275044189453125,0.0027744811959564686,0.014794925227761269,-0.028294222429394722
1751013653149987300,6.2849873046875,-0.0035305526107549667,0.022880282253026962,-0.021274395287036896
1751013653159931100,6.29493115234375,-0.015049789100885391,0.03147856518626213,-0.019343869760632515
1751013653169874200,6.304874267578125,-0.03278431296348572,0.03232545033097267,-0.022550582885742188
1751013653179817200,6.314817138671875,-0.04331152141094208,0.02381851337850094,-0.023749271407723427
1751013653189761300,6.32476123046875,-0.04632941633462906,0.01835423894226551,-0.02917839214205742
1751013653199704000,6.3347041015625,-0.048162203282117844,0.01420237123966217,-0.033730000257492065
1751013653209648000,6.344648193359375,-0.045407962054014206,0.009736516512930393,-0.03452442213892937
1751013653219591200,6.354591064453125,-0.043837763369083405,0.006984406150877476,-0.03133901581168175
1751013653229535000,6.364534912109375,-0.03690608590841293,0.009134110063314438,-0.033240243792533875
1751013653239478000,6.37447802734375,-0.033180590718984604,0.010216152295470238,-0.033614419400691986
1751013653249421000,6.384421142578125,-0.02869795821607113,0.011517372913658619,-0.0359707847237587
1751013653259365000,6.394365234375,-0.024089090526103973,0.012862535193562508,-0.03808826208114624
1751013653269308200,6.40430810546875,-0.01799178309738636,0.010035590268671513,-0.03604215756058693
1751013653279252000,6.414251953125,-0.010844391770660877,0.007255782373249531,-0.029274532571434975
1751013653289195000,6.424195068359375,0.004282629117369652,0.006961236707866192,-0.026916302740573883
1751013653299139000,6.43413916015625,0.012430837377905846,0.011128284968435764,-0.015299327671527863
1751013653309082000,6.44408203125,0.013159478083252907,0.01726420782506466,-0.012763998471200466
1751013653319025200,6.454025146484375,0.0008695221040397882,0.01721121184527874,-0.012868394143879414
1751013653328969000,6.463968994140625,-0.012051070109009743,0.02003682404756546,-0.017056748270988464
1751013653338912000,6.473912109375,-0.02099556289613247,0.022935941815376282,-0.02130582183599472
1751013653348856300,6.483856201171875,-0.024040620774030685,0.018371816724538803,-0.0245524812489748
1751013653358799000,6.493799072265625,-0.01739683374762535,0.010235327295958996,-0.023005183786153793
1751013653368743200,6.5037431640625,-0.0065345983020961285,0.008745821192860603,-0.01792227476835251
1751013653378686200,6.513686279296875,-0.0010964233661070466,0.009614011272788048,-0.014593057334423065
1751013653388629200,6.523629150390625,0.003287938656285405,0.009093363769352436,-0.016317985951900482
1751013653398573000,6.533572998046875,0.007180680986493826,0.01660267822444439,-0.018854647874832153
1751013653408516000,6.54351611328125,0.00806032307446003,0.025004951283335686,-0.021466143429279327
1751013653418460200,6.553460205078125,0.010460363700985909,0.0256907157599926,-0.020120713859796524
1751013653428403200,6.5634033203125,0.007525027729570866,0.027179157361388206,-0.018394986167550087
1751013653438346200,6.57334619140625,0.006058957893401384,0.03579021990299225,-0.014031130820512772
1751013653448290000,6.5832900390625,-0.0017973673529922962,0.047034088522195816,-0.008096009492874146
1751013653458233000,6.593233154296875,-0.0023012375459074974,0.050687678158283234,-0.003819771809503436
1751013653468177200,6.60317724609375,-0.001234641415067017,0.041484326124191284,-0.0043840957805514336
1751013653478120200,6.6131201171875,-0.0015345134306699038,0.02852272056043148,-0.00917139369994402
1751013653488064000,6.62306396484375,0.0010032127611339092,0.02040141075849533,-0.013380520045757294
1751013653498007000,6.633007080078125,0.0023015039041638374,0.016569655388593674,-0.013712083920836449
1751013653507950000,6.6429501953125,0.002344380598515272,0.018918031826615334,-0.01714729517698288
1751013653517894100,6.65289404296875,0.005727127660065889,0.021447502076625824,-0.012997823767364025
1751013653527837000,6.6628369140625,0.006399043370038271,0.017361413687467575,-0.020476778969168663
1751013653537781000,6.672781005859375,0.002516420790925622,0.012649215757846832,-0.019838152453303337
1751013653547724000,6.68272412109375,0.002582201035693288,0.01386947650462389,-0.015474829822778702
1751013653557668000,6.692668212890625,0.004625378176569939,0.009253951720893383,-0.009649697691202164
1751013653567611100,6.702611083984375,0.00535375252366066,0.0073380740359425545,-0.006464823614805937
1751013653577554200,6.71255419921875,0.015269766561686993,0.010128534398972988,-0.008171643130481243
1751013653587498200,6.722498291015625,0.01847994141280651,0.01335974782705307,-0.006957241799682379
1751013653597441300,6.732441162109375,0.018745457753539085,0.0046661244705319405,-0.007418235298246145
1751013653607385000,6.742385009765625,0.02401585318148136,0.0021843246649950743,-0.01121989730745554
1751013653617328000,6.752328125,0.025045165792107582,-0.000675111310556531,-0.014568289741873741
1751013653627272200,6.762272216796875,0.023470439016819,0.0020248014479875565,-0.013528858311474323
1751013653637215200,6.77221533203125,0.016885772347450256,0.010747186839580536,-0.014459899626672268
1751013653647158300,6.782158203125,0.00812130980193615,0.021289842203259468,-0.016400543972849846
1751013653657102000,6.79210205078125,0.0028101676143705845,0.027393540367484093,-0.015736619010567665
1751013653667045000,6.802045166015625,-0.00236249016597867,0.02400759793817997,-0.017648234963417053
1751013653676989200,6.8119892578125,-0.0010988202411681414,0.014318485744297504,-0.018802449107170105
1751013653686932000,6.821931884765625,-0.0032583775464445353,0.005373992491513491,-0.012749616988003254
1751013653696876000,6.8318759765625,-0.0005195827106945217,0.0011787151452153921,-0.010968228802084923
1751013653706819000,6.841819091796875,0.0016596820205450058,-0.002299639629200101,-0.012061722576618195
1751013653716762000,6.85176220703125,0.002252501668408513,-0.0007656587986275554,-0.01612996682524681
1751013653726706000,6.861705810546875,0.0007419566973112524,0.011577825993299484,-0.01985466480255127
1751013653736649000,6.87164892578125,-0.006053631659597158,0.029087310656905174,-0.022037923336029053
1751013653746593300,6.88159326171875,-0.013059343211352825,0.04149817302823067,-0.029156554490327835
1751013653756536000,6.8915361328125,-0.014132862910628319,0.04519091546535492,-0.03416728973388672
1751013653766479000,6.90147900390625,-0.00939163751900196,0.041846517473459244,-0.0359840989112854
1751013653776423200,6.911423095703125,-0.0019619506783783436,0.024391891434788704,-0.028553880751132965
1751013653786366200,6.9213662109375,0.004403536673635244,0.0064863949082791805,-0.018928151577711105
1751013653796310300,6.931310302734375,0.021207017824053764,-0.002368349116295576,-0.009515474550426006
1751013653806253300,6.94125341796875,0.03249083086848259,-0.0027387947775423527,-0.006059756502509117
1751013653816197000,6.951197021484375,0.04128645360469818,0.0070821442641317844,-0.0003909520455636084
1751013653826140200,6.96114013671875,0.04284067451953888,0.02027864009141922,0.000993891735561192
1751013653836084200,6.971084228515625,0.042821500450372696,0.02425127662718296,-0.002487392397597432
1751013653846027000,6.981027099609375,0.03506610915064812,0.02610590308904648,-0.006878945045173168
1751013653855970000,6.990969970703125,0.02755519561469555,0.031215976923704147,-0.0046362970024347305
1751013653865914000,7.0009140625,0.015365906991064548,0.04248594120144844,0.010403105989098549
1751013653875857200,7.010857177734375,0.010909639298915863,0.04725699499249458,0.030557643622159958
1751013653885801000,7.020801025390625,0.005381183233112097,0.04235251620411873,0.047329965978860855
1751013653895744000,7.030743896484375,0.0100813964381814,0.03471323847770691,0.055817726999521255
1751013653905687000,7.04068701171875,0.01128301490098238,0.026875289157032967,0.061712101101875305
1751013653915631000,7.050631103515625,0.010024936869740486,0.026335466653108597,0.05997465178370476
1751013653925574100,7.06057421875,0.009865679778158665,0.02491626888513565,0.05855625495314598
1751013653935518000,7.07051806640625,0.020835241302847862,0.020985443145036697,0.06379842013120651
1751013653945461000,7.0804609375,0.016113456338644028,0.04226250201463699,0.06160290911793709
1751013653955405300,7.0904052734375,0.010324010625481606,0.03604402020573616,0.05101364850997925
1751013653965348000,7.10034814453125,0.0049649314023554325,0.023424366489052773,0.03735562786459923
1751013653975291100,7.110291015625,-0.003865045728161931,0.027174895629286766,0.025850770995020866
1751013653985235200,7.120235107421875,-0.018133463338017464,0.027600202709436417,0.015254586935043335
1751013653995178200,7.13017822265625,-0.02304619736969471,0.029701968654990196,0.004391818773001432
1751013654005122300,7.140122314453125,-0.019955597817897797,0.028187962248921394,-0.0003451456723269075
1751013654015065000,7.150065185546875,-0.004484230652451515,0.02298094891011715,0.0006540723843500018
1751013654025009200,7.160009033203125,0.012802613899111748,0.02149037830531597,0.006141249556094408
1751013654034952200,7.1699521484375,0.01763731613755226,0.01985146850347519,0.01333071943372488
1751013654044895200,7.179895263671875,0.011860653758049011,0.030008498579263687,0.016268985345959663
1751013654054839000,7.189839111328125,-0.0035119105596095324,0.027234284207224846,0.014330736361443996
1751013654064782000,7.199781982421875,-0.015294800512492657,0.011355718597769737,0.007013434544205666
1751013654074726100,7.20972607421875,-0.021275460720062256,0.002347576431930065,-0.006673082709312439
1751013654084669200,7.219669189453125,-0.019820576533675194,-0.0012620720081031322,-0.021229388192296028
1751013654094613000,7.229613037109375,-0.007330616936087608,0.0010404969798400998,-0.03151345252990723
1751013654104556000,7.23955615234375,0.011638812720775604,0.014331800863146782,-0.037757497280836105
1751013654114499000,7.2494990234375,0.026065155863761902,0.027219636365771294,-0.03136724233627319
1751013654124443100,7.259443115234375,0.03748852014541626,0.037026192992925644,-0.025777269154787064
1751013654134386200,7.26938623046875,0.040289100259542465,0.03249029815196991,-0.011292335577309132
1751013654144330000,7.279330078125,0.03767973557114601,0.021192103624343872,-0.00022663500567432493
1751013654154273000,7.28927294921875,0.02642281912267208,0.0014855111949145794,0.0030008498579263687
1751013654164217300,7.29921728515625,0.01278876606374979,-0.004210191313177347,0.0046509443782269955
1751013654174160100,7.30916015625,0.0025185514241456985,-0.004905809182673693,0.003424825146794319
1751013654184103000,7.31910302734375,0.0010018812026828527,-0.001047421246767044,0.00014807176194153726
1751013654194047200,7.329047119140625,0.0026908579748123884,0.008071241900324821,-0.007839547470211983
1751013654203990300,7.338990234375,0.008300273679196835,0.02359747141599655,-0.007282147649675608
1751013654213934000,7.34893408203125,0.013707823120057583,0.035953208804130554,-0.00552179804071784
1751013654223877000,7.358877197265625,0.015487879514694214,0.032890837639570236,-0.006544984877109528
1751013654233820200,7.368820068359375,0.014704377390444279,0.02906973473727703,-0.0018996327416971326
1751013654243764200,7.37876416015625,0.01642983965575695,0.023327160626649857,-0.004517253953963518
1751013654253707300,7.388707275390625,0.008742358535528183,0.015421033836901188,0.0008612662786617875
1751013654263651000,7.398651123046875,0.006461627781391144,0.013877199962735176,0.0011936287628486753
1751013654273594000,7.408593994140625,0.001853560097515583,0.017654627561569214,-0.005344165489077568
1751013654283538200,7.4185380859375,-0.00005299690383253619,0.025842782109975815,-0.006310360040515661
1751013654293481200,7.428481201171875,0.0026383937802165747,0.030230339616537094,-0.013393303379416466
1751013654303424000,7.438424072265625,0.008617723360657692,0.034621093422174454,-0.016867397353053093
1751013654313368000,7.4483681640625,0.016222646459937096,0.032042089849710464,-0.01673157513141632
1751013654323311000,7.45831103515625,0.025236381217837334,0.030422886833548546,-0.012915532104671001
1751013654333255200,7.468255126953125,0.03520406037569046,0.025178324431180954,-0.008863000199198723
1751013654343198000,7.478197998046875,0.038355909287929535,0.01122256089001894,-0.0026495789643377066
1751013654353142000,7.48814208984375,0.04078737646341324,0.006592122372239828,0.0017422399250790477
1751013654363085000,7.4980849609375,0.029836459085345268,0.0031185615807771683,0.0012543488992378116
1751013654373028000,7.508028076171875,0.022363895550370216,0.003635214874520898,-0.0017379788914695382
1751013654382972000,7.517971923828125,0.012896090745925903,0.015717443078756332,-0.0031127026304602623
1751013654392915000,7.5279150390625,0.009554622694849968,0.031630631536245346,-0.0032487902790308
1751013654402859300,7.537859375,0.006931675598025322,0.04173945635557175,-0.005784652195870876
1751013654412802300,7.54780224609375,0.009543171152472496,0.033494576811790466,-0.0117914117872715
1751013654422746000,7.55774609375,0.007947671227157116,0.027570640668272972,-0.017199760302901268
1751013654432689200,7.567689208984375,0.010849185287952423,0.0159470085054636,-0.020601416006684303
1751013654442632200,7.577632080078125,0.008475776761770248,0.006367618218064308,-0.025609755888581276
1751013654452576300,7.587576171875,0.012194082140922546,0.004294879734516144,-0.03019998036324978
1751013654462519300,7.597519287109375,0.011313640512526035,0.005253617651760578,-0.029825806617736816
1751013654472463000,7.607463134765625,0.011524297297000885,0.01101723127067089,-0.027476897463202477
1751013654482406100,7.61740625,0.006342584267258644,0.014735803008079529,-0.0188453271985054
1751013654492350200,7.62735009765625,0.004299673717468977,0.015033011324703693,-0.009356217458844185
1751013654502293000,7.63729296875,0.004172640852630138,0.013916880823671818,0.002665291540324688
1751013654512236000,7.647236083984375,0.012336826883256435,0.012791428714990616,0.016772322356700897
1751013654522180000,7.65718017578125,0.023604661226272583,0.0078059914521873,0.02129490301012993
1751013654532123100,7.667123046875,0.029694778844714165,0.005310343112796545,0.02263553813099861
1751013654542067000,7.67706689453125,0.0367143377661705,0.007219030521810055,0.02321743778884411
1751013654552010500,7.687010498046875,0.040644899010658264,0.007893343456089497,0.020776918157935143
1751013654561953500,7.69695361328125,0.04014156013727188,0.01167583093047142,0.016948623582720757
1751013654571897600,7.706897705078125,0.03356967866420746,0.011156247928738594,0.009080580435693264
1751013654581840600,7.716840576171875,0.020128171890974045,0.01091762911528349,0.0022599585354328156
1751013654591784400,7.726784423828125,0.01227664016187191,0.010969560593366623,0.0005470133037306368
1751013654601727500,7.7367275390625,0.00558278476819396,0.014913169667124748,0.0010972223244607449
1751013654611671600,7.746671630859375,-0.0033694314770400524,0.01931803859770298,-0.004405933897942305
1751013654621614300,7.7566142578125,-0.005796370096504688,0.02905695140361786,-0.002642122097313404
1751013654631557400,7.766557373046875,-0.013130449689924717,0.03160905838012695,-0.000669518718495965
1751013654641501400,7.77650146484375,-0.02172553539276123,0.02359720505774021,0.006081328261643648
1751013654651444500,7.786444580078125,-0.027216972783207893,0.001877262257039547,0.0065447185188531876
1751013654661388300,7.79638818359375,-0.028509140014648438,-0.025738386437296867,0.006488259416073561
1751013654671331300,7.806331298828125,-0.03248018026351929,-0.044554684311151505,0.010095776990056038
1751013654681275600,7.816275634765625,-0.03611033409833908,-0.03931518271565437,0.01587483659386635
1751013654691218400,7.826218505859375,-0.035118039697408676,-0.027829766273498535,0.015066834166646004
1751013654701161500,7.836161376953125,-0.02394022047519684,-0.016862869262695312,0.014788267202675343
1751013654711105500,7.84610546875,-0.0031396006233990192,-0.01599973998963833,0.006425941362977028
1751013654721048600,7.856048583984375,0.014197045005857944,-0.01889805682003498,0.000556334329303354
1751013654730992600,7.86599267578125,0.018188325688242912,-0.031123830005526543,-0.0067814732901751995
1751013654740935700,7.875935791015625,0.01673557050526142,-0.03618277236819267,-0.005238970275968313
1751013654750879500,7.88587939453125,0.010583668015897274,-0.031031951308250427,-0.0007355650886893272
1751013654760822500,7.895822509765625,0.007289072033017874,-0.02755599468946457,0.007626760751008987
1751013654770765600,7.905765625,0.006731405854225159,-0.014668424613773823,0.01816968247294426
1751013654780709600,7.915709716796875,0.01329982653260231,-0.01269715279340744,0.020309798419475555
1751013654790652400,7.92565234375,0.02075374871492386,-0.008771120570600033,0.021690381690859795
1751013654800596500,7.935596435546875,0.025585254654288292,-0.004854409955441952,0.01998196355998516
1751013654810539500,7.94553955078125,0.030106769874691963,0.003466636873781681,0.022884543985128403
1751013654820482600,7.955482666015625,0.025236647576093674,0.012485964223742485,0.023637153208255768
1751013654830426400,7.96542626953125,0.02767743356525898,0.02527046948671341,0.02671629935503006
1751013654840369400,7.975369384765625,0.0342586375772953,0.030296387150883675,0.03001835197210312
1751013654850313500,7.9853134765625,0.03387780487537384,0.023063773289322853,0.03286899998784065
1751013654860256500,7.995256591796875,0.03050065040588379,0.01954866759479046,0.03924327716231346
1751013654870200300,8.005200439453125,0.020423782989382744,0.02159504033625126,0.04143984988331795
1751013654880143400,8.015143310546875,0.016140887513756752,0.020478377118706703,0.04356851428747177
1751013654890086400,8.02508642578125,0.016505474224686623,0.016283631324768066,0.04151628538966179
1751013654900030500,8.035030517578125,0.021574800834059715,0.013858557678759098,0.035887159407138824
1751013654909973500,8.044973388671876,0.027957331389188766,0.006071208510547876,0.029023928567767143
1751013654919917600,8.05491748046875,0.02907506190240383,0.001969141187146306,0.020322049036622047
1751013654929860600,8.064860595703125,0.025198563933372498,-0.004915129859000444,0.007071491796523333
1751013654939804700,8.0748046875,0.014169614762067795,-0.013394102454185486,-0.004800613969564438
1751013654949747500,8.08474755859375,0.005772934295237064,-0.010842527262866497,-0.0170879065990448
1751013654959690500,8.0946904296875,-0.0019331886433064938,-0.00427117757499218,-0.021224329248070717
1751013654969634600,8.104634521484375,-0.008254467509686947,0.0018588864477351308,-0.02725452370941639
1751013654979577600,8.11457763671875,-0.011715511791408062,0.005395830608904362,-0.021695176139473915
1751013654989521400,8.124521484375,-0.00651595601812005,0.014761103317141533,-0.015376559458673
1751013654999464400,8.13446435546875,-0.001856755930930376,0.022058164700865746,-0.002880475018173456
1751013655009408500,8.144408447265626,0.0040914141573011875,0.008404936641454697,0.0056954361498355865
1751013655019351600,8.1543515625,0.011088604107499123,0.002585130510851741,0.0055180699564516544
1751013655029294600,8.164294677734375,0.010970892384648323,-0.0007137271459214389,0.0037619813811033964
1751013655039238400,8.17423828125,0.009092298336327076,0.0018429075134918094,0.0019587550777941942
1751013655049181400,8.184181396484375,0.0014048174489289522,0.019045330584049225,-0.0014839133946225047
1751013655059125500,8.19412548828125,-0.006687463726848364,0.04157940298318863,0.00014540860138367862
1751013655069068500,8.204068603515625,-0.011976235546171665,0.0570015013217926,0.0010791128734126687
1751013655079012400,8.214012451171875,-0.013246296904981136,0.06575344502925873,0.007072556763887405
1751013655088955400,8.223955322265626,-0.004133225884288549,0.06233874335885048,0.012414325028657913
1751013655098898400,8.2338984375,0.006100769154727459,0.04385214298963547,0.020373981446027756
1751013655108842500,8.243842529296876,0.01287718303501606,0.03314943239092827,0.023317573592066765
1751013655118785300,8.253785400390624,0.017901768907904625,0.01702851802110672,0.027347201481461525
1751013655128729600,8.2637294921875,0.018511898815631866,0.006582801695913076,0.024586303159594536
1751013655138672600,8.273672607421876,0.02333701401948929,-0.0008652610122226179,0.01962376944720745
1751013655148615700,8.28361572265625,0.023432355374097824,0.00029587719473056495,0.0034413367975503206
1751013655158559500,8.2935595703125,0.01272964384406805,0.00691915862262249,-0.009674731642007828
1751013655168502500,8.30350244140625,-0.005411277059465647,0.01582263968884945,-0.02359906956553459
1751013655178446600,8.313446533203125,-0.019410183653235435,0.022302642464637756,-0.03262984752655029
1751013655188389600,8.3233896484375,-0.02961435168981552,0.014334730803966522,-0.03794977813959122
1751013655198333400,8.33333349609375,-0.027400732040405273,0.006256564520299435,-0.03868720680475235
1751013655208276500,8.3432763671875,-0.015220231376588345,0.0017563547007739544,-0.038235802203416824
1751013655218219500,8.353219482421874,-0.0028871328104287386,0.0038003309164196253,-0.03688611090183258
1751013655228163600,8.36316357421875,-0.006892793346196413,0.01504259929060936,-0.030704382807016373
1751013655238106400,8.3731064453125,-0.009220662526786327,0.015265505760908127,-0.02641190029680729
1751013655248050400,8.383050537109375,-0.011187939904630184,0.007158310618251562,-0.02869582735002041
1751013655257993500,8.392993408203125,-0.01525911409407854,0.000910268456209451,-0.029623139649629593
1751013655267937500,8.4029375,-0.008532235398888588,-0.0030479878187179565,-0.03551511839032173
1751013655277880300,8.41288037109375,-0.0001781654718797654,-0.006671485025435686,-0.03952264040708542
1751013655287823400,8.4228232421875,0.01176158431917429,0.00785552617162466,-0.03916258364915848
1751013655297767400,8.432767333984375,0.01372060552239418,0.0277999397367239,-0.040076844394207
1751013655307710500,8.44271044921875,0.009342102333903313,0.031190143898129463,-0.03522296994924545
1751013655317654500,8.452654541015624,0.009110407903790474,0.0262417234480381,-0.03147004172205925
1751013655327597300,8.462597412109375,0.012108594179153442,0.01973615400493145,-0.019870378077030182
1751013655337541600,8.472541748046876,0.017195498570799828,0.01384071446955204,-0.006727943662554026
1751013655347484700,8.482484619140624,0.021034179255366325,0.008620386011898518,0.003543335711583495
1751013655357427700,8.492427734375,0.032644763588905334,0.0036274916492402554,0.011490740813314915
1751013655367371500,8.50237158203125,0.03563043102622032,-0.0029973878990858793,0.011235610581934452
1751013655377314600,8.512314453125,0.03260987624526024,0.0011635350529104471,0.005234975833445787
1751013655387258600,8.522258544921876,0.028324581682682037,0.006871488410979509,-0.003032275242730975
1751013655397201700,8.53220166015625,0.023009445518255234,0.01654009521007538,-0.005437642335891724
1751013655407145500,8.5421455078125,0.01902082934975624,0.022779880091547966,-0.01805197075009346
1751013655417088500,8.552088623046876,0.015977367758750916,0.030524086207151413,-0.02466699667274952
1751013655427031600,8.562031494140625,0.015806393697857857,0.0364253856241703,-0.03196565434336662
1751013655436975400,8.571975341796875,0.01721467263996601,0.04206223040819168,-0.033185116946697235
1751013655446918400,8.58191845703125,0.01618562825024128,0.04162067919969559,-0.03161172196269035
1751013655456862500,8.591862548828125,0.024862738326191902,0.0357406884431839,-0.031307853758335114
1751013655466805500,8.601805419921876,0.0247812457382679,0.032400283962488174,-0.03075471706688404
1751013655476749300,8.611749267578125,0.03151904419064522,0.027993017807602882,-0.03463707119226456
1751013655486692400,8.6216923828125,0.0342881977558136,0.02220117673277855,-0.03963768854737282
1751013655496635400,8.631635498046874,0.03241972625255585,0.013817811384797096,-0.04242309182882309
1751013655506579500,8.641579345703125,0.026433205232024193,0.0115586519241333,-0.03964781016111374
1751013655516522500,8.6515224609375,0.017730526626110077,0.029324065893888474,-0.03747227415442467
1751013655526466600,8.661466552734375,0.016684703528881073,0.04876008257269859,-0.032595761120319366
1751013655536409300,8.671409423828125,0.01594194769859314,0.05951552465558052,-0.021915152668952942
1751013655546353700,8.681353759765624,0.01071256585419178,0.05745343863964081,-0.012463327497243881
1751013655556296700,8.691296630859375,0.015216769650578499,0.04369155317544937,-0.005212338641285896
1751013655566239500,8.701239501953125,0.02057505026459694,0.01834704913198948,0.004139351192861795
1751013655576183600,8.71118359375,0.03123808093369007,-0.006347111891955137,0.012102468870580196
1751013655586126600,8.721126708984375,0.036740969866514206,-0.021823806688189507,0.015726765617728233
1751013655596070700,8.731070556640624,0.039441682398319244,-0.022647522389888763,0.013807691633701324
1751013655606013400,8.741013427734375,0.029706230387091637,-0.009839048609137535,0.005282380152493715
1751013655615957500,8.75095751953125,0.013654559850692749,0.006946322973817587,-0.010432400740683079
1751013655625900500,8.760900634765624,-0.0036879454273730516,0.01593688875436783,-0.02341105043888092
1751013655635843600,8.770843505859375,-0.014166419394314289,0.015209312550723553,-0.03662592172622681
1751013655645787400,8.780787353515626,-0.020481573417782784,0.006557235028594732,-0.04361725226044655
1751013655655730400,8.79073046875,-0.01576351746916771,0.0020530307665467262,-0.03845258429646492
1751013655665674500,8.800674560546875,-0.007171626668423414,0.00848349928855896,-0.027122164145112038
1751013655675617500,8.810617431640624,-0.0014146711910143495,0.019451728090643883,-0.008309595286846161
1751013655685561300,8.820561279296875,0.001820803270675242,0.026209766045212746,0.0038754320703446865
1751013655695504400,8.83050439453125,0.006354568526148796,0.023561784997582436,0.016598151996731758
1751013655705447400,8.840447509765625,0.012357333675026894,0.0065447185188531876,0.018254637718200684
1751013655715391500,8.8503916015625,0.008249673992395401,0.004798749927431345,0.01660667359828949
1751013655725334500,8.86033447265625,0.007881625555455685,-0.000284159294096753,0.010295247659087181
1751013655735278600,8.870278564453125,0.0044203149154782295,0.003364904085174203,-0.001103880233131349
1751013655745221400,8.880221435546876,-0.0011938951211050153,0.01107555441558361,-0.008275507017970085
1751013655755165700,8.890165771484375,-0.0065559037029743195,0.016343552619218826,-0.019652530550956726
1751013655765108500,8.9001083984375,-0.005347893573343754,0.014179201796650887,-0.025300562381744385
1751013655775051500,8.910051513671876,-0.005361475981771946,0.008401207625865936,-0.026824690401554108
1751013655784995600,8.91999560546875,-0.0021880532149225473,0.0013369068037718534,-0.023749271407723427
1751013655794938600,8.929938720703126,0.005469067487865686,0.004138285759836435,-0.010969560593366623
1751013655804882400,8.93988232421875,0.01197809912264347,0.008502407930791378,0.0073479278944432735
1751013655814825500,8.949825439453125,0.0073015885427594185,0.016234098002314568,0.01757553219795227
1751013655824769500,8.95976953125,0.006622482556849718,0.016499347984790802,0.024450747296214104
1751013655834712600,8.969712646484375,-0.0008764463127590716,0.004446147475391626,0.026211896911263466
1751013655844655600,8.979655517578125,-0.00926194153726101,-0.0078571243211627,0.020244818180799484
1751013655854599400,8.989599365234374,-0.013530989177525043,-0.006850715726613998,0.012027101591229439
1751013655864542500,8.99954248046875,-0.014088122174143791,-0.010931743308901787,0.00932292826473713
1751013655874486500,9.009486572265626,-0.007893343456089497,-0.006960171274840832,-0.00452817277982831
1751013655884429600,9.0194296875,0.0035089810844510794,0.005331648513674736,-0.0020032296888530254
1751013655894372400,9.029372314453125,0.0001584580895723775,0.013027651235461235,0.00005326322207110934
1751013655904316400,9.03931640625,-0.005687979515641928,0.017601097002625465,0.009216401726007462
1751013655914259500,9.049259521484375,-0.01230673398822546,0.020661868155002594,0.02401052787899971
1751013655924203500,9.05920361328125,-0.018410699442029,0.009351956658065319,0.03494573384523392
1751013655934146300,9.069146240234375,-0.02413942478597164,-0.0054759918712079525,0.04423404112458229
1751013655944090600,9.079090576171875,-0.02339879982173443,-0.012197543866932392,0.047982171177864075
1751013655954033400,9.089033447265624,-0.015480688773095608,-0.0212970320135355,0.04157301038503647
1751013655963977500,9.0989775390625,-0.01804611273109913,-0.006226470693945885,0.025845712050795555
1751013655973920500,9.10892041015625,-0.013623400591313839,0.00848456472158432,0.005313006229698658
1751013655983863600,9.118863525390625,-0.01576724462211132,0.021675201132893562,-0.015115302987396717
1751013655993807600,9.1288076171875,-0.01895238645374775,0.03326128423213959,-0.026371419429779053
1751013656003750700,9.138750732421874,-0.01763225719332695,0.04685698822140694,-0.029281189665198326
1751013656013694500,9.148694580078125,-0.012632171623408794,0.04783410206437111,-0.024252874776721
1751013656023637500,9.158637451171876,-0.012298477813601494,0.029166940599679947,-0.015803197398781776
1751013656033580500,9.16858056640625,-0.012502741999924183,0.006794522982090712,-0.005293298978358507
1751013656043524600,9.178524658203125,-0.018616294488310814,-0.007702660746872425,0.0019377160351723433
1751013656053467400,9.18846728515625,-0.023621439933776855,-0.01702478900551796,0.001648496720008552
1751013656063411500,9.198411376953125,-0.020259998738765717,-0.00996288564056158,-0.0034077810123562813
1751013656073354500,9.2083544921875,-0.01512995082885027,0.007160441018640995,-0.016243951395154
1751013656083298600,9.218298583984375,-0.005046690348535776,0.02467551827430725,-0.0304575078189373
1751013656093241300,9.228241455078125,0.003519101068377495,0.03032408282160759,-0.0376317985355854
1751013656103184400,9.238184326171876,0.010811901651322842,0.033849041908979416,-0.03702406585216522
1751013656113128400,9.24812841796875,0.013847905211150646,0.0201066005975008,-0.03313132002949715
1751013656123071500,9.258071533203125,0.011394068598747253,0.011081946082413197,-0.022229405120015144
1751013656133015300,9.268015380859374,0.014997324906289577,0.004830974154174328,-0.015420767478644848
1751013656142958300,9.277958251953125,0.008255799300968647,0.009812151081860065,-0.013936588540673256
1751013656152902700,9.287902587890626,0.00621022516861558,0.014758972451090813,-0.016684437170624733
1751013656162845700,9.297845703125,0.00455800024792552,0.019220566377043724,-0.023611053824424744
1751013656172788500,9.30778857421875,0.004948685877025127,0.02185176871716976,-0.031315580010414124
1751013656182732500,9.317732666015624,0.007588677573949099,0.026329874992370605,-0.03546078875660896
1751013656192675600,9.327675537109375,0.007831557653844357,0.028132569044828415,-0.030835676938295364
1751013656202619600,9.33761962890625,0.011061705648899078,0.026323748752474785,-0.024592427536845207
1751013656212562700,9.347562744140625,0.0220339298248291,0.019222430884838104,-0.020727915689349174
1751013656222506500,9.357506591796875,0.02027864009141922,0.016464194282889366,-0.023245668038725853
1751013656232449500,9.367449462890624,0.017357951030135155,0.016634903848171234,-0.024175643920898438
1751013656242392600,9.377392578125,0.0075971996411681175,0.020110061392188072,-0.016866331920027733
1751013656252336400,9.38733642578125,0.005541505757719278,0.019521502777934074,-0.011641476303339005
1751013656262279400,9.397279541015624,-0.0011981561547145247,0.01708337850868702,-0.01671932451426983
1751013656272223500,9.407223388671875,0.0008913599886000156,0.00842783972620964,-0.0212395079433918
1751013656282166500,9.41716650390625,-0.0005715143634006381,0.0027417242527008057,-0.032708678394556046
1751013656292110300,9.4271103515625,0.00022210762836039066,0.005829926114529371,-0.03954527899622917
1751013656302053400,9.437053466796876,0.0034551850985735655,0.01449665054678917,-0.038789741694927216
1751013656311996400,9.446996337890624,0.002773682354018092,0.02142193540930748,-0.04206516221165657
1751013656321940500,9.4569404296875,0.00041998049709945917,0.02586302161216736,-0.041973281651735306
1751013656331883500,9.466883544921876,0.00015632755821570754,0.01967037469148636,-0.04765859991312027
1751013656341827300,9.476827392578125,0.005578523501753807,0.008325840346515179,-0.047927577048540115
1751013656351770400,9.486770263671875,0.012960007414221764,-0.00458649592474103,-0.04505589231848717
1751013656361714700,9.496714599609374,0.018580341711640358,-0.009211075492203236,-0.041741322726011276
1751013656371657700,9.50665771484375,0.02581482008099556,-0.0027768779546022415,-0.03369325026869774
1751013656381600300,9.516600341796876,0.035472773015499115,0.00227886694483459,-0.024534637108445168
1751013656391544600,9.526544677734375,0.03837668523192406,0.006222475785762072,-0.022460302338004112
1751013656401487600,9.536487548828125,0.03650740906596184,0.0018277274211868644,-0.0285890344530344
1751013656411431400,9.546431396484374,0.033533725887537,-0.00971760880202055,-0.03266660124063492
1751013656421374500,9.55637451171875,0.020291157066822052,-0.026026807725429535,-0.040999364107847214
1751013656431318500,9.566318603515626,0.005591306835412979,-0.025069400668144226,-0.04934011772274971
1751013656441261600,9.576261474609375,0.004230963997542858,-0.016465526074171066,-0.05199502408504486
1751013656451204600,9.58620458984375,0.011181548237800598,-0.005742041394114494,-0.053999852389097214
1751013656461148400,9.5961484375,0.0268891379237175,0.011707255616784096,-0.04423670470714569
1751013656471091500,9.606091552734375,0.04044356197118759,0.026369554921984673,-0.032393891364336014
1751013656481035500,9.616035400390626,0.0471147820353508,0.032885510474443436,-0.0142316659912467
1751013656490978600,9.625978515625,0.041919220238924026,0.030769895762205124,-0.005092230159789324
1751013656500922400,9.63592236328125,0.03152596950531006,0.03196538984775543,0.004820055328309536
1751013656510865400,9.645865478515624,0.016098542138934135,0.030179208144545555,0.022764701396226883
1751013656520808400,9.655808349609375,0.009757289662957191,0.022603312507271767,0.028614334762096405
1751013656530752500,9.66575244140625,0.017411747947335243,0.01600692979991436,0.030227145180106163
1751013656540695600,9.675695556640624,0.029439382255077362,0.016829047352075577,0.02461107075214386
1751013656550639400,9.685639404296875,0.03772474080324173,0.022643527016043663,0.01750309392809868
1751013656560582100,9.69558203125,0.04934943839907646,0.027038276195526123,0.004217115696519613
1751013656570526500,9.7055263671875,0.06144844740629196,0.02496154233813286,-0.007749532349407673
1751013656580469200,9.71546923828125,0.06818278133869171,0.01690548099577427,-0.012435630895197392
1751013656590412000,9.725412109375,0.06847253441810608,0.01733584702014923,-0.014074539765715599
1751013656600356400,9.7353564453125,0.060382384806871414,0.020010726526379585,-0.009607353247702122
1751013656610299400,9.74529931640625,0.047451671212911606,0.009693906642496586,-0.00293320557102561
1751013656620243200,9.7552431640625,0.03315901756286621,-0.008356466889381409,-0.0009243832319043577
1751013656630186200,9.765186279296875,0.025315742939710617,-0.020410733297467232,-0.005145759787410498
1751013656640130300,9.77513037109375,0.024386033415794373,-0.030279342085123062,-0.01076609455049038
1751013656650073300,9.7850732421875,0.02177560329437256,-0.02821379527449608,-0.021528195589780807
1751013656660016400,9.795016357421876,0.027336549013853073,-0.011569570749998093,-0.026198847219347954
1751013656669960200,9.804960205078125,0.04416666179895401,0.00407596817240119,-0.03424106165766716
1751013656679903200,9.8149033203125,0.051719386130571365,0.02526700682938099,-0.040056873112916946
1751013656689847300,9.824847412109374,0.06023591011762619,0.029699571430683136,-0.04741039127111435
1751013656699790300,9.834790283203125,0.05279264226555824,0.03352547064423561,-0.044430848211050034
1751013656709734100,9.844734130859376,0.04693049192428589,0.04002811014652252,-0.03332466632127762
1751013656719677200,9.85467724609375,0.03921477869153023,0.03405304253101349,-0.02564118057489395
1751013656729620200,9.8646201171875,0.034750789403915405,0.014217818155884743,-0.015341672115027905
1751013656739564300,9.874564208984374,0.029799440875649452,-0.0012895026011392474,-0.013560815714299679
1751013656749507000,9.884507080078125,0.028423918411135674,0.0017542241839691997,-0.0079748360440135
1751013656759451100,9.894451171875,0.030722226947546005,0.01233496330678463,-0.0035169704351574183
1751013656769394200,9.904394287109374,0.03742460533976555,0.016742760315537453,-0.0037681066896766424
1751013656779338200,9.914338134765625,0.047997087240219116,0.023335415869951248,0.0005752427969127893
1751013656789281000,9.924281005859376,0.05226773023605347,0.025261681526899338,0.004043211229145527
1751013656799224000,9.93422412109375,0.048350755125284195,0.034097783267498016,0.0052136704325675964
1751013656809168400,9.94416845703125,0.03539527580142021,0.04988580197095871,0.013048424385488033
1751013656819111400,9.954111328125,0.02256869152188301,0.06374169141054153,0.028086761012673378
1751013656829055200,9.96405517578125,0.015046860091388226,0.06518752872943878,0.030723024159669876
1751013656838998300,9.973998291015626,0.01788206212222576,0.05490000173449516,0.027646008878946304
1751013656848942300,9.9839423828125,0.02677861787378788,0.04080601781606674,0.024812938645482063
1751013656858885400,9.993885498046875,0.03286740183830261,0.026916302740573883,0.013231382705271244
1751013656868828400,10.003828369140624,0.035708993673324585,0.009601494297385216,0.0016554208705201745
1751013656878772200,10.013772216796875,0.03515372797846794,-0.002100435085594654,-0.008698683232069016
1751013656888715300,10.02371533203125,0.032887376844882965,0.002822417998686433,-0.00996315199881792
1751013656898659300,10.033659423828125,0.0297312643378973,0.003011502558365464,-0.018280470743775368
1751013656908602000,10.04360205078125,0.021263742819428444,0.001365668955259025,-0.019702598452568054
1751013656918546200,10.053546142578124,0.020167319104075432,-0.0007070692372508347,-0.022831546142697334
1751013656928489200,10.0634892578125,0.015634087845683098,0.004999286029487848,-0.018208831548690796
1751013656938432300,10.073432373046876,0.020623520016670227,0.0105943214148283,-0.02166215144097805
1751013656948376000,10.0833759765625,0.019838951528072357,0.011599398218095303,-0.019833359867334366
1751013656958319000,10.093319091796875,0.01962270401418209,0.011322962120175362,-0.0181712806224823
1751013656968263200,10.10326318359375,0.025354092940688133,0.015629559755325317,-0.013973872177302837
1751013656978206200,10.113206298828125,0.024205736815929413,0.018485266715288162,-0.0068144965916872025
1751013656988150300,10.123150390625,0.019518041983246803,0.022180136293172836,-0.004209125880151987
1751013656998093000,10.133093017578124,0.011872638016939163,0.029261482879519463,-0.0015070828376337886
1751013657008036000,10.1430361328125,-0.003154247999191284,0.02665717713534832,-0.009849434718489647
1751013657017980400,10.15298046875,-0.018616028130054474,0.022372417151927948,-0.016680177301168442
1751013657027923500,10.16292333984375,-0.028547488152980804,0.027063041925430298,-0.030597323551774025
1751013657037867300,10.1728671875,-0.0319073311984539,0.037582263350486755,-0.04115595668554306
1751013657047810300,10.182810302734374,-0.03320722281932831,0.03901237994432449,-0.04405960440635681
1751013657057754400,10.19275439453125,-0.029740052297711372,0.04103025794029236,-0.039263781160116196
1751013657067697400,10.202697509765626,-0.022956181317567825,0.039204660803079605,-0.02706783637404442
1751013657077640200,10.21264013671875,-0.00948165263980627,0.025364745408296585,-0.01810390315949917
1751013657087584300,10.222584228515625,0.005440838169306517,0.012979447841644287,-0.011435613967478275
1751013657097527300,10.23252734375,0.011146927252411842,0.008856608532369137,-0.007900533266365528
1751013657107471000,10.24247119140625,0.010427873581647873,0.008363124914467335,-0.00971547793596983
1751013657117414100,10.2524140625,0.004114317707717419,0.011992214247584343,-0.01197863183915615
1751013657127358200,10.262358154296875,-0.0068152956664562225,0.013559218496084213,-0.02328028902411461
1751013657137301200,10.27230126953125,-0.012766394764184952,0.014536598697304726,-0.03398220241069794
1751013657147244300,10.282244384765624,-0.008235027082264423,0.012104599736630917,-0.04482153430581093
1751013657157188000,10.29218798828125,-0.0019331886433064938,0.00455800024792552,-0.048050351440906525
1751013657167131100,10.302131103515626,0.00663393409922719,-0.0009893643436953425,-0.04231256991624832
1751013657177075200,10.3120751953125,0.015504124574363232,-0.0010157296201214194,-0.029452163726091385
1751013657187018200,10.322018310546875,0.01762267015874386,-0.0019531622529029846,-0.02062991075217724
1751013657196961300,10.331961181640626,0.02021605521440506,-0.0004756405542138964,-0.018039720132946968
1751013657206905000,10.341905029296875,0.014719291590154171,0.012087022885680199,-0.024272849783301353
1751013657216848100,10.35184814453125,0.0073471288196742535,0.010206565260887146,-0.033189378678798676
1751013657226792400,10.36179248046875,-0.0032703618053346872,0.008331432938575745,-0.04271550476551056
1751013657236735200,10.3717353515625,-0.01326706912368536,0.012496883049607277,-0.043783966451883316
1751013657246679300,10.38167919921875,-0.020477578043937683,0.023661652579903603,-0.04146568477153778
1751013657256622300,10.391622314453125,-0.024947693571448326,0.026402313262224197,-0.03779345005750656
1751013657266566400,10.40156640625,-0.01444258913397789,0.03199654817581177,-0.03190014138817787
1751013657276509200,10.41150927734375,0.0014112089993432164,0.02960076928138733,-0.022350845858454704
1751013657286452200,10.4214521484375,0.007813448086380959,0.025679796934127808,-0.010812168009579182
1751013657296396300,10.431396240234376,0.015994146466255188,0.019240273162722588,-0.006825415417551994
1751013657306339300,10.44133935546875,0.024268588051199913,0.018739866092801094,-0.01044385228306055
1751013657316283100,10.451283203125,0.023731961846351624,0.02569098211824894,-0.018070081248879433
1751013657326226200,10.46122607421875,0.017005614936351776,0.03825311362743378,-0.022545522078871727
1751013657336170200,10.471170166015625,0.009632653556764126,0.05085093155503273,-0.020262127742171288
1751013657346113300,10.48111328125,0.001806155894882977,0.04946395754814148,-0.01750762015581131
1751013657356056300,10.491056396484375,0.001068193931132555,0.040890973061323166,-0.017845310270786285
1751013657366000000,10.501000244140625,0.003088201628997922,0.034693799912929535,-0.013095029629766941
1751013657375943200,10.510943115234374,0.016496950760483742,0.032223980873823166,-0.008518386632204056
1751013657385887200,10.52088720703125,0.03134087845683098,0.05018141120672226,-0.007809720002114773
1751013657395830300,10.530830322265626,0.03184927627444267,0.10149386525154114,-0.018620556220412254
1751013657405774300,10.5407744140625,0.010396714322268963,0.17995990812778473,-0.04164331778883934
1751013657415717000,10.550717041015625,-0.02430107817053795,0.3654056787490845,-0.002397910226136446
1751013657425660200,10.56066015625,-0.0826413482427597,0.47867551445961,0.2125231772661209
1751013657435604200,10.570604248046875,-0.11836232990026474,0.31476911902427673,0.37861308455467224
1751013657445547300,10.58054736328125,-0.1015455350279808,0.09980542212724686,0.44588106870651245
1751013657455491300,10.5904912109375,-0.06313423067331314,-0.10478606820106506,0.44803690910339355
1751013657465434400,10.600434326171875,-0.033245839178562164,-0.21610167622566223,0.4006235897541046
1751013657475377400,10.61037744140625,0.001356347929686308,-0.19452260434627533,0.2797304391860962
1751013657485321200,10.6203212890625,0.03858361020684242,-0.09791750460863113,0.07931213080883026
1751013657495264300,10.63026416015625,0.07036790251731873,0.0923277959227562,-0.15911641716957092
1751013657505208300,10.640208251953124,0.08044876903295517,0.3456314206123352,-0.3465566039085388
1751013657515151400,10.6501513671875,0.07494135200977325,0.5849452018737793,-0.4435337781906128
