time,seconds_elapsed,z,y,x
1751013413636500700,0.116500732421875,0.26670998334884644,0.012590093538165092,-0.2075774222612381
1751013413646443800,0.12644384765625,0.24174019694328308,0.00195129809435457,-0.188007190823555
1751013413656386800,0.13638671875,0.22203199565410614,-0.014545386657118797,-0.15530729293823242
1751013413666331000,0.146330810546875,0.20935428142547607,-0.02454236149787903,-0.11198405921459198
1751013413676274000,0.15627392578125,0.20417550206184387,-0.012108860537409782,-0.07946206629276276
1751013413686216700,0.166216796875,0.21047520637512207,0.0006519418093375862,-0.06396619975566864
1751013413696159700,0.17615966796875,0.23130033910274506,0.04380553588271141,-0.06526315957307816
1751013413706102800,0.186102783203125,0.2501632273197174,0.10221771150827408,-0.08441155403852463
1751013413716045800,0.1960458984375,0.2642345726490021,0.13708195090293884,-0.12340103089809418
1751013413725988900,0.20598876953125,0.2705148458480835,0.15418531000614166,-0.152533620595932
1751013413735933000,0.215932861328125,0.27547550201416016,0.17941635847091675,-0.13952140510082245
1751013413745875700,0.225875732421875,0.26918700337409973,0.19655540585517883,-0.0976882129907608
1751013413755818800,0.23581884765625,0.24527980387210846,0.17414569854736328,-0.04367530718445778
1751013413765761800,0.24576171875,0.2023584246635437,0.1263779103755951,0.00019867181254085153
1751013413775704800,0.255704833984375,0.1674686223268509,0.0635848343372345,0.03597264736890793
1751013413785647900,0.26564794921875,0.13033616542816162,0.01407667063176632,0.0526091493666172
1751013413795592000,0.275592041015625,0.09750285744667053,-0.02894163690507412,0.061158694326877594
1751013413805534700,0.28553466796875,0.07440578937530518,-0.03982464596629143,0.07003740966320038
1751013413815477800,0.295477783203125,0.06379576027393341,-0.03293265029788017,0.06675425916910172
1751013413825420800,0.3054208984375,0.05694317817687988,-0.015928367152810097,0.06647036969661713
1751013413835363800,0.31536376953125,0.043954942375421524,0.0173808541148901,0.06435715407133102
1751013413845307000,0.325306884765625,0.051468782126903534,0.029501166194677353,0.08533034473657608
1751013413855250000,0.33525,0.0768580287694931,0.0837327167391777,0.14779451489448547
1751013413865193700,0.34519384765625,0.09776543825864792,0.15505243837833405,0.245575413107872
1751013413875136800,0.35513671875,0.11480594426393509,0.21148668229579926,0.3508778512477875
1751013413885079800,0.365079833984375,0.1297454833984375,0.23339544236660004,0.4304179549217224
1751013413895022800,0.37502294921875,0.14138029515743256,0.21576078236103058,0.4835514724254608
1751013413904966000,0.3849658203125,0.142171248793602,0.19502274692058563,0.4771612286567688
1751013413914909000,0.394908935546875,0.15920989215373993,0.16797888278961182,0.42772844433784485
1751013413924852700,0.404852783203125,0.18533870577812195,0.13268961012363434,0.3431136906147003
1751013413934795800,0.414795654296875,0.204669788479805,0.11972826719284058,0.24065734446048737
1751013413944738800,0.42473876953125,0.21872302889823914,0.13123738765716553,0.13314953446388245
1751013413954681900,0.434681884765625,0.22458703815937042,0.1575361043214798,0.040288299322128296
1751013413964625000,0.444625,0.2280462086200714,0.16781963407993317,-0.03640780970454216
1751013413974568000,0.45456787109375,0.22743555903434753,0.16745103895664215,-0.09196241199970245
1751013413984511000,0.464510986328125,0.23426762223243713,0.16972166299819946,-0.1210465282201767
1751013413994454800,0.474454833984375,0.23636166751384735,0.1739339828491211,-0.13333462178707123
1751013414004397800,0.484397705078125,0.22543658316135406,0.18592458963394165,-0.13417485356330872
1751013414014340900,0.4943408203125,0.21560180187225342,0.17969892919063568,-0.12235813587903976
1751013414024284000,0.504283935546875,0.19791653752326965,0.17033657431602478,-0.10080836713314056
1751013414034227000,0.51422705078125,0.17996683716773987,0.15084783732891083,-0.0719013512134552
1751013414044170000,0.524169921875,0.15511661767959595,0.10042513906955719,-0.0476042702794075
1751013414054113800,0.53411376953125,0.12819445133209229,0.02491067536175251,-0.0170330461114645
1751013414064056800,0.544056884765625,0.11544563621282578,-0.020112991333007812,0.022583073005080223
1751013414074000000,0.553999755859375,0.12412407994270325,-0.02057451754808426,0.07462390512228012
1751013414083943000,0.56394287109375,0.13131222128868103,-0.01309183333069086,0.11552126705646515
1751013414093886000,0.573885986328125,0.14094673097133636,-0.006142314523458481,0.13167786598205566
1751013414103829000,0.5838291015625,0.14564108848571777,-0.0023166837636381388,0.12430038303136826
1751013414113772800,0.593772705078125,0.15048564970493317,0.013172793202102184,0.09393768012523651
1751013414123715800,0.6037158203125,0.15882906317710876,0.032758746296167374,0.05488109216094017
1751013414133659000,0.613658935546875,0.172540083527565,0.057129330933094025,0.0162961483001709
1751013414143602000,0.623601806640625,0.17660193145275116,0.07384439557790756,-0.014544853940606117
1751013414153545000,0.633544921875,0.17298242449760437,0.08273962140083313,-0.04405560716986656
1751013414163488000,0.643488037109375,0.15493711829185486,0.07583697140216827,-0.06078558787703514
1751013414173431000,0.65343115234375,0.13386565446853638,0.06393690407276154,-0.07653099298477173
1751013414183374800,0.663374755859375,0.11021385341882706,0.04862852394580841,-0.07203664630651474
1751013414193318000,0.67331787109375,0.09422902762889862,0.03412334993481636,-0.05145014077425003
1751013414203261000,0.683260986328125,0.07647879421710968,0.008477373979985714,-0.02791072614490986
1751013414213204000,0.693203857421875,0.06078452244400978,-0.024501614272594452,0.0006671218434348702
1751013414223147000,0.70314697265625,0.04650278761982918,-0.06016853079199791,0.013583453372120857
1751013414233090000,0.713090087890625,0.0325949601829052,-0.08571303635835648,0.01666686125099659
1751013414243033900,0.723033935546875,0.015631424263119698,-0.09136001020669937,0.01272964384406805
1751013414252977000,0.732976806640625,0.005120193585753441,-0.0922955721616745,0.0005185174522921443
1751013414262920000,0.742919921875,-0.003947603516280651,-0.09381917119026184,-0.016213057562708855
1751013414272863000,0.752863037109375,-0.008795089088380337,-0.09054241329431534,-0.034394726157188416
1751013414282806000,0.762805908203125,-0.00264798104763031,-0.06291212141513824,-0.0386350117623806
1751013414292749000,0.7727490234375,0.005395830608904362,-0.0297339279204607,-0.02653813362121582
1751013414302691800,0.78269189453125,0.010014284402132034,0.0033968619536608458,-0.010968228802084923
1751013414312636000,0.792635986328125,0.014057495631277561,0.012722985818982124,0.0007012102869339287
1751013414322574300,0.80257421875,0.025554362684488297,0.011552526615560055,0.014696122147142887
1751013414332517400,0.812517333984375,0.02895468659698963,-0.0020817930344492197,0.02123178541660309
1751013414342460400,0.82246044921875,0.026545323431491852,-0.02052684687077999,0.019157182425260544
1751013414352403500,0.832403564453125,0.030660973861813545,-0.03207404538989067,0.020350279286503792
1751013414362346500,0.842346435546875,0.03229402378201485,-0.03602617606520653,0.014520086348056793
1751013414372290300,0.852290283203125,0.04194292426109314,-0.03885019198060036,0.01290434692054987
1751013414382233300,0.8622333984375,0.04737737029790878,-0.025104021653532982,0.018446918576955795
1751013414392176400,0.87217626953125,0.05420544743537903,-0.012400477193295956,0.022908244282007217
1751013414402119400,0.882119384765625,0.05010311305522919,-0.004715392831712961,0.013395966030657291
1751013414412062500,0.8920625,0.04669693112373352,-0.002302835462614894,0.0005765743553638458
1751013414422005500,0.902005615234375,0.04175597056746483,-0.0028453213162720203,-0.01684262976050377
1751013414431949300,0.91194921875,0.034392062574625015,-0.000663393409922719,-0.02773309499025345
1751013414441892400,0.921892333984375,0.01919073797762394,0.0022061625495553017,-0.041614290326833725
1751013414451835400,0.93183544921875,0.011304586194455624,0.004263720940798521,-0.044372256845235825
1751013414461778400,0.9417783203125,0.003936151973903179,0.005144960712641478,-0.04766365885734558
1751013414471721500,0.951721435546875,-0.009042496792972088,0.009705624543130398,-0.04465615004301071
1751013414481664500,0.96166455078125,-0.018638664856553078,-0.0005587312043644488,-0.042703788727521896
1751013414491607600,0.971607666015625,-0.024223314598202705,-0.01013812143355608,-0.03985633701086044
1751013414501551400,0.98155126953125,-0.03015071153640747,-0.019287677481770515,-0.04361272603273392
1751013414511494400,0.991494384765625,-0.031744614243507385,-0.04079030826687813,-0.05011270195245743
1751013414521437400,1.0014375,-0.02707582525908947,-0.061471082270145416,-0.053345780819654465
1751013414531380500,1.01138037109375,-0.02562600187957287,-0.06393130868673325,-0.04836540296673775
1751013414541323500,1.021323486328125,-0.024394555017352104,-0.06017465516924858,-0.039441682398319244
1751013414551266300,1.031266357421875,-0.023540480062365532,-0.052146025002002716,-0.033369407057762146
1751013414561210400,1.04121044921875,-0.018065286800265312,-0.04025208204984665,-0.03694310411810875
1751013414571153400,1.0511533203125,-0.010588728822767735,-0.023253656923770905,-0.04872306436300278
1751013414581096400,1.061096435546875,0.00035739620216190815,-0.0008870989549905062,-0.06658994406461716
1751013414591039500,1.07103955078125,0.016451410949230194,0.01212590467184782,-0.08527308702468872
1751013414600982500,1.080982421875,0.023296799510717392,0.014367220923304558,-0.0937134400010109
1751013414610925300,1.09092529296875,0.02316843532025814,0.015397065319120884,-0.07943011075258255
1751013414620869400,1.100869384765625,0.019223762676119804,0.015246330760419369,-0.05616287142038345
1751013414630812400,1.1108125,0.019272230565547943,0.010448379442095757,-0.0319342315196991
1751013414640755500,1.12075537109375,0.013584252446889877,0.007586813066154718,-0.011996475048363209
1751013414650698500,1.130698486328125,0.014035657979547977,0.0035981968976557255,-0.0032088428270071745
1751013414660641500,1.1406416015625,0.01254189107567072,-0.00021012341312598437,-0.011500595137476921
1751013414670584300,1.150584228515625,0.020371317863464355,0.0033417344093322754,-0.02406565472483635
1751013414680528400,1.1605283203125,0.02666330151259899,0.010114685632288456,-0.049125999212265015
1751013414690471400,1.170471435546875,0.032228510826826096,0.01763944700360298,-0.06990505009889603
1751013414700414500,1.18041455078125,0.04200843721628189,0.03551112115383148,-0.0828847661614418
1751013414710357500,1.190357421875,0.04865675047039986,0.04701225087046623,-0.08641877770423889
1751013414720300500,1.200300537109375,0.0468793585896492,0.05594475939869881,-0.08031454682350159
1751013414730243300,1.210243408203125,0.043827641755342484,0.05706381797790527,-0.07172132283449173
1751013414740186400,1.220186279296875,0.03363625705242157,0.05402648448944092,-0.060814615339040756
1751013414750130400,1.23013037109375,0.027298998087644577,0.05066477507352829,-0.04723675549030304
1751013414760073500,1.240073486328125,0.016414392739534378,0.04008084163069725,-0.042327217757701874
1751013414770016500,1.2500166015625,0.009358081966638565,0.030528614297509193,-0.03961452096700668
1751013414779959600,1.25995947265625,0.005028847139328718,0.02081659808754921,-0.04716191813349724
1751013414789902300,1.26990234375,0.0046418895944952965,0.018934275954961777,-0.04657762125134468
1751013414799845400,1.279845458984375,0.01146757137030363,0.028567196801304817,-0.051970791071653366
1751013414809789400,1.28978955078125,0.02028476446866989,0.037937261164188385,-0.051589690148830414
1751013414819732500,1.299732421875,0.027120301499962807,0.04730253294110298,-0.049070339649915695
1751013414829675500,1.309675537109375,0.03664722666144371,0.0473581925034523,-0.04500768706202507
1751013414839618600,1.31961865234375,0.03689756244421005,0.04685965180397034,-0.0406358428299427
1751013414849561300,1.329561279296875,0.039991091936826706,0.034693799912929535,-0.03606612607836723
1751013414859504400,1.33950439453125,0.04687829315662384,0.030052972957491875,-0.028915537521243095
1751013414869448400,1.349448486328125,0.05089141055941582,0.02786491997539997,-0.020966269075870514
1751013414879391500,1.3593916015625,0.04556828364729881,0.02587074600160122,-0.019877567887306213
1751013414889334500,1.36933447265625,0.04248141497373581,0.029205555096268654,-0.007758853491395712
1751013414899277600,1.379277587890625,0.0464513897895813,0.0312788262963295,0.0016935041639953852
1751013414909220400,1.389220458984375,0.0458013117313385,0.037025127559900284,0.011084608733654022
1751013414919163400,1.399163330078125,0.04839123412966728,0.04018550366163254,0.017057280987501144
1751013414929107500,1.409107421875,0.05324484407901764,0.04006592556834221,0.013788516633212566
1751013414939050500,1.419050537109375,0.057925883680582047,0.04111041873693466,0.006521814968436956
1751013414948993500,1.42899365234375,0.057439059019088745,0.038719166070222855,0.0019622170366346836
1751013414958936600,1.4389365234375,0.0553431510925293,0.03407754376530647,-0.002255431143566966
1751013414968879400,1.44887939453125,0.04556082561612129,0.026937874034047127,-0.002939330879598856
1751013414978822400,1.458822509765625,0.03555373474955559,0.02473996765911579,0.00014674017438665032
1751013414988765400,1.468765380859375,0.027460120618343353,0.021341774612665176,0.00029534456552937627
1751013414998709500,1.47870947265625,0.015084411017596722,0.018915101885795593,0.0015512913232669234
1751013415008652500,1.488652587890625,0.007623564917594194,0.020865600556135178,0.008977781981229782
1751013415018595600,1.498595703125,0.0028786107432097197,0.026015089824795723,0.012369850650429726
1751013415028538400,1.508538330078125,-0.004596616141498089,0.032346222549676895,0.020927652716636658
1751013415038481400,1.5184814453125,-0.005268531385809183,0.03427514806389809,0.021318605169653893
1751013415048424200,1.528424072265625,-0.000874582096002996,0.046302251517772675,0.02756371721625328
1751013415058368500,1.538368408203125,0.002639458980411291,0.06856893748044968,0.027285950258374214
1751013415068311600,1.5483115234375,-0.0016966998809948564,0.08055955916643143,0.021555092185735703
1751013415078254300,1.55825439453125,-0.0031254857312887907,0.07801437377929688,0.007670436520129442
1751013415088197400,1.568197265625,-0.011149589903652668,0.06684774160385132,0.0009366337326355278
1751013415098140400,1.578140380859375,-0.017415208742022514,0.057852912694215775,0.0011177286505699158
1751013415108083200,1.588083251953125,-0.02245524153113365,0.05432289466261864,0.0015305186389014125
1751013415118027500,1.598027587890625,-0.027147997170686722,0.05044559761881828,0.003055977402254939
1751013415127970600,1.607970458984375,-0.028437767177820206,0.02883191406726837,0.00794580765068531
1751013415137913300,1.617913330078125,-0.024830514565110207,0.01799764297902584,0.013580257073044777
1751013415147856400,1.6278564453125,-0.014596785418689251,0.01318104937672615,0.0188961923122406
1751013415157799200,1.637799072265625,-0.00606428412720561,0.01818086765706539,0.025959694758057594
1751013415167742200,1.6477421875,-0.005490106530487537,0.023497069254517555,0.023442475125193596
1751013415177686500,1.6576865234375,-0.0007699198904447258,0.022814234718680382,0.025723472237586975
1751013415187629600,1.667629638671875,-0.002335592173039913,0.02142033725976944,0.023393206298351288
1751013415197572400,1.677572265625,-0.006906908005475998,0.01996918022632599,0.024566330015659332
1751013415207515400,1.687515380859375,-0.0049308426678180695,0.019596870988607407,0.029737122356891632
1751013415217458200,1.697458251953125,-0.005819805897772312,0.020263459533452988,0.03639182820916176
1751013415227401200,1.707401123046875,0.004136155359447002,0.02515941485762596,0.04821067303419113
1751013415237345500,1.717345458984375,0.009607619605958462,0.03245621174573898,0.06363437324762344
1751013415247288600,1.72728857421875,0.02107119746506214,0.03310681879520416,0.07875420153141022
1751013415257231400,1.7372314453125,0.027237214148044586,0.0350959338247776,0.08695913106203079
1751013415267174100,1.747174072265625,0.024517593905329704,0.036985449492931366,0.08473938703536987
1751013415277117200,1.7571171875,0.02225577086210251,0.043787162750959396,0.06434596329927444
1751013415287060200,1.767060302734375,0.018246648833155632,0.0572156198322773,0.018563831225037575
1751013415297004500,1.777004638671875,-0.0005467469454742968,0.08443126082420349,-0.04855182394385338
1751013415306947600,1.786947509765625,-0.018511632457375526,0.11818922311067581,-0.12239541858434677
1751013415316890400,1.796890380859375,-0.02305365353822708,0.1526491940021515,-0.19234015047550201
1751013415326834000,1.806833984375,-0.02768116258084774,0.21641646325588226,-0.27292633056640625
1751013415336777000,1.81677685546875,-0.018080200999975204,0.28335314989089966,-0.3290804326534271
1751013415346720000,1.826719970703125,-0.01068060752004385,0.301557719707489,-0.342616468667984
1751013415356664000,1.8366640625,-0.01407613791525364,0.3094199001789093,-0.3229362368583679
1751013415366606800,1.84660693359375,-0.02894376777112484,0.29441511631011963,-0.2698703706264496
1751013415376550000,1.8565498046875,-0.027667580172419548,0.24353009462356567,-0.19432686269283295
1751013415386493000,1.866492919921875,-0.0023582291323691607,0.21804524958133698,-0.11272148787975311
1751013415396436000,1.87643603515625,0.026794329285621643,0.22190043330192566,-0.03415690362453461
1751013415406379000,1.88637890625,0.05097902938723564,0.2367992252111435,0.024053404107689857
1751013415416323000,1.896322998046875,0.044124849140644073,0.24386033415794373,0.06168600171804428
1751013415426265900,1.906265869140625,-0.036678653210401535,0.2320833057165146,0.0870390310883522
1751013415436209000,1.916208984375,-0.12059086561203003,0.19177289307117462,0.104381263256073
1751013415446152000,1.92615185546875,-0.1734205186367035,0.13379241526126862,0.12332858890295029
1751013415456095000,1.936094970703125,-0.19601024687290192,0.07213438302278519,0.13990916311740875
1751013415466038000,1.9460380859375,-0.18929056823253632,0.015730759128928185,0.15412485599517822
1751013415475981800,1.95598193359375,-0.17159199714660645,-0.03007720783352852,0.16095666587352753
1751013415485924900,1.9659248046875,-0.14898814260959625,-0.052558284252882004,0.15358929336071014
1751013415495868000,1.975867919921875,-0.13428403437137604,-0.0477060042321682,0.13538552820682526
1751013415505811000,1.98581103515625,-0.11203732341527939,-0.02786811627447605,0.10517009347677231
1751013415515754000,1.99575390625,-0.09318986535072327,-0.006733802612870932,0.06496914476156235
1751013415525697000,2.005697021484375,-0.07678372412919998,0.010392453521490097,0.03639768809080124
1751013415535640800,2.015640869140625,-0.060497164726257324,0.01053173653781414,0.018282335251569748
1751013415545583900,2.025583984375,-0.04743276163935661,0.005302620120346546,0.01720854826271534
1751013415555527000,2.03552685546875,-0.029024461284279823,0.0051739891059696674,0.030912641435861588
1751013415565470000,2.045469970703125,-0.01907515712082386,0.008273109793663025,0.05541905015707016
1751013415575413000,2.0554130859375,-0.01877661794424057,0.005549761466681957,0.06109051778912544
1751013415585356000,2.06535595703125,-0.023209448903799057,0.0023523701820522547,0.06487700343132019
1751013415595299800,2.0752998046875,-0.027343474328517914,-0.0010974886827170849,0.057129599153995514
1751013415605243000,2.085242919921875,-0.01895158737897873,-0.014772821217775345,0.038189731538295746
1751013415615186000,2.09518603515625,-0.024689100682735443,-0.03759291395545006,0.0063124909065663815
1751013415625129000,2.10512890625,-0.03596678748726845,-0.056358881294727325,-0.03850451484322548
1751013415635072000,2.115072021484375,-0.04229046404361725,-0.07787615805864334,-0.08155504614114761
1751013415645015000,2.12501513671875,-0.04404229298233986,-0.08336173743009567,-0.10954433679580688
1751013415654958800,2.134958740234375,-0.037282124161720276,-0.07757388800382614,-0.12269555777311325
1751013415664902000,2.14490185546875,-0.03483681008219719,-0.0664764940738678,-0.1267627328634262
1751013415674845000,2.154844970703125,-0.03850158676505089,-0.054728757590055466,-0.1254197061061859
1751013415684788000,2.1647880859375,-0.045280128717422485,-0.03966139256954193,-0.12378904968500137
1751013415694731000,2.17473095703125,-0.04861600697040558,-0.033659160137176514,-0.11644724756479263
1751013415704674000,2.184674072265625,-0.04765300452709198,-0.031140075996518135,-0.10649608075618744
1751013415714617900,2.194617919921875,-0.038174550980329514,-0.030853785574436188,-0.08167062699794769
1751013415724561000,2.204560791015625,-0.02478097938001156,-0.03448687121272087,-0.04782265052199364
1751013415734504000,2.21450390625,-0.0032655680552124977,-0.02760978974401951,0.002870887517929077
1751013415744447000,2.224447021484375,0.013407418504357338,-0.015988819301128387,0.059300076216459274
1751013415754390000,2.23439013671875,0.033814687281847,-0.0068120998330414295,0.09494648873806
1751013415764333000,2.2443330078125,0.05362328141927719,0.002454369328916073,0.1093057170510292
1751013415774276900,2.25427685546875,0.06965337693691254,0.006945790257304907,0.0985790342092514
1751013415784220000,2.264219970703125,0.08124851435422897,0.009529589675366879,0.06723043322563171
1751013415794163000,2.274162841796875,0.09242287278175354,0.010851582512259483,0.0258699469268322
1751013415804106000,2.28410595703125,0.10735548287630081,0.015301458537578583,-0.012660667300224304
1751013415814049000,2.294049072265625,0.12694622576236725,0.01792147569358349,-0.043416980654001236
1751013415823992000,2.303991943359375,0.1479942500591278,0.018503377214074135,-0.06286311894655228
1751013415833936000,2.313935791015625,0.17213527858257294,0.01375016663223505,-0.06618807464838028
1751013415843879000,2.32387890625,0.20125214755535126,0.00592420157045126,-0.05326641723513603
1751013415853822000,2.333822021484375,0.22605763375759125,-0.0012247877893969417,-0.031790152192115784
1751013415863765000,2.343764892578125,0.24890223145484924,-0.015271631069481373,-0.005344165489077568
1751013415873708000,2.3537080078125,0.2589210271835327,-0.03597238287329674,0.011904862709343433
1751013415883651000,2.363651123046875,0.2544650435447693,-0.06041274219751358,0.02226216159760952
1751013415893595000,2.373594970703125,0.23920299112796783,-0.0767589583992958,0.015787485986948013
1751013415903538000,2.383537841796875,0.22367091476917267,-0.0815579742193222,-0.0006910903030075133
1751013415913481000,2.39348095703125,0.21034765243530273,-0.0868707150220871,-0.018340658396482468
1751013415923424000,2.403424072265625,0.2101910561323166,-0.07841943949460983,-0.032293759286403656
1751013415933367000,2.413366943359375,0.21007893979549408,-0.04722024127840996,-0.043650541454553604
1751013415943310000,2.42331005859375,0.2093106061220169,-0.01992523856461048,-0.04837312549352646
1751013415953254000,2.43325390625,0.1985999047756195,0.011166101321578026,-0.054249390959739685
1751013415963197000,2.443197021484375,0.17715772986412048,0.03511990234255791,-0.06649673730134964
1751013415973140000,2.453139892578125,0.1521162986755371,0.05633357912302017,-0.07406304031610489
1751013415983083000,2.4630830078125,0.13113725185394287,0.07349073141813278,-0.0778878703713417
1751013415993026000,2.473026123046875,0.11746244877576828,0.0743756964802742,-0.07665349543094635
1751013416002969000,2.482968994140625,0.10686839371919632,0.07937285304069519,-0.06380508095026016
1751013416012913000,2.492912841796875,0.10553228110074997,0.09057410806417465,-0.04273228347301483
1751013416022856000,2.50285595703125,0.10318257659673691,0.1003393903374672,-0.022403575479984283
1751013416032799000,2.512799072265625,0.10000995546579361,0.10539060086011887,-0.013310212641954422
1751013416042742000,2.522741943359375,0.1073022186756134,0.11489196121692657,-0.005163336638361216
1751013416052685000,2.53268505859375,0.1156134158372879,0.12180420011281967,-0.006090116687119007
1751013416062628900,2.54262890625,0.11709093302488327,0.11832557618618011,-0.02353275567293167
1751013416072572000,2.552572021484375,0.11486586183309555,0.10898960381746292,-0.044923000037670135
1751013416082515000,2.562514892578125,0.10885883867740631,0.08299368619918823,-0.06973327696323395
1751013416092458000,2.5724580078125,0.09331955760717392,0.05483635142445564,-0.09084681421518326
1751013416102401000,2.582401123046875,0.08995785564184189,0.0296108890324831,-0.0903107225894928
1751013416112344000,2.592343994140625,0.08320514112710953,-0.00036458674003370106,-0.0752449557185173
1751013416122287900,2.602287841796875,0.08278542757034302,-0.04789935052394867,-0.049847718328237534
1751013416132231000,2.61223095703125,0.0841742679476738,-0.07462204247713089,-0.008500011637806892
1751013416142174000,2.622174072265625,0.08947475254535675,-0.10381001979112625,0.04285665228962898
1751013416152117000,2.632116943359375,0.09278985857963562,-0.12594328820705414,0.08831148594617844
1751013416162060000,2.64206005859375,0.09211075305938721,-0.1328432708978653,0.12310036271810532
1751013416172003000,2.652003173828125,0.08851894736289978,-0.1376020759344101,0.13856400549411774
1751013416181947000,2.66194677734375,0.0798833817243576,-0.1568058580160141,0.1321876049041748
1751013416191890000,2.671889892578125,0.0706683099269867,-0.18043741583824158,0.11078031361103058
1751013416201833000,2.6818330078125,0.06425169110298157,-0.19457906484603882,0.08523393422365189
1751013416211776000,2.69177587890625,0.06738383322954178,-0.21029171347618103,0.049674078822135925
1751013416221719000,2.701718994140625,0.07065313309431076,-0.21300575137138367,0.018518822267651558
1751013416231662000,2.711662109375,0.07328912615776062,-0.1986640989780426,-0.012035357765853405
1751013416241606000,2.72160595703125,0.07046777755022049,-0.17032459378242493,-0.036917805671691895
1751013416251549000,2.731548828125,0.0664791613817215,-0.12235946953296661,-0.05368053913116455
1751013416261492000,2.741491943359375,0.0648474395275116,-0.04873877763748169,-0.06962940841913223
1751013416271435000,2.75143505859375,0.07002728432416916,0.03328604996204376,-0.078069768846035
1751013416281378000,2.7613779296875,0.07675283402204514,0.10787986218929291,-0.08099578320980072
1751013416291321000,2.771321044921875,0.08332312107086182,0.16216839849948883,-0.07832542806863785
1751013416301265000,2.781264892578125,0.09270570427179337,0.19892960786819458,-0.06179891899228096
1751013416311208000,2.7912080078125,0.10968175530433655,0.21574267745018005,-0.03050517849624157
1751013416321151000,2.80115087890625,0.13100488483905792,0.21172502636909485,0.01423406321555376
1751013416331093800,2.81109375,0.1440565139055252,0.18979710340499878,0.059292085468769073
1751013416341036800,2.821036865234375,0.13994884490966797,0.1583598107099533,0.10424038767814636
1751013416350980900,2.83098095703125,0.12673930823802948,0.1205620989203453,0.13744254410266876
1751013416360923600,2.840923583984375,0.12088647484779358,0.08479105681180954,0.15640291571617126
1751013416370866700,2.85086669921875,0.12458933144807816,0.06331559270620346,0.17499418556690216
1751013416380809700,2.860809814453125,0.13153725862503052,0.06039996072649956,0.1875144988298416
1751013416390752800,2.870752685546875,0.14581578969955444,0.061471082270145416,0.19076275825500488
1751013416400695800,2.88069580078125,0.16255909204483032,0.0481928288936615,0.186249241232872
1751013416410640000,2.890639892578125,0.17222316563129425,0.04147234186530113,0.17545197904109955
1751013416420582700,2.900582763671875,0.18090613186359406,0.028189826756715775,0.16434073448181152
1751013416430525700,2.910525634765625,0.18464840948581696,0.017770474776625633,0.14950427412986755
1751013416440468700,2.92046875,0.1877398043870926,0.006010754499584436,0.1268301159143448
1751013416450411800,2.930411865234375,0.18579383194446564,-0.013598632998764515,0.10311280190944672
1751013416460354800,2.940354736328125,0.1784009039402008,-0.04574724659323692,0.08197076618671417
1751013416470299000,2.950298828125,0.1617918312549591,-0.08083999156951904,0.07353919744491577
1751013416480241700,2.96024169921875,0.13512852787971497,-0.12895718216896057,0.08331140130758286
1751013416490184700,2.970184814453125,0.10625480115413666,-0.18549929559230804,0.12168435752391815
1751013416500127700,2.980127685546875,0.07671128958463669,-0.24595198035240173,0.17829090356826782
1751013416510070800,2.99007080078125,0.04615923762321472,-0.3125251531600952,0.23928315937519073
1751013416520013800,3.000013916015625,0.009315204806625843,-0.3816554844379425,0.29798081517219543
1751013416529958000,3.0099580078125,-0.029405558481812477,-0.4182843267917633,0.34602293372154236
1751013416539900700,3.019900634765625,-0.05544115602970123,-0.4438016712665558,0.3824506998062134
1751013416549843700,3.02984375,-0.05582704767584801,-0.44570210576057434,0.39917242527008057
1751013416559786800,3.039786865234375,-0.03402135148644447,-0.41811734437942505,0.39269161224365234
1751013416569729800,3.049729736328125,0.000036218989407643676,-0.3544371724128723,0.36553215980529785
1751013416579673900,3.059673828125,0.024229438975453377,-0.2657768130302429,0.3193308413028717
1751013416589617000,3.069616943359375,0.04219059646129608,-0.14761768281459808,0.26425135135650635
1751013416599559700,3.0795595703125,0.04472699016332626,-0.02275271713733673,0.20450334250926971
1751013416609502700,3.089502685546875,0.041917890310287476,0.07818242162466049,0.13514743745326996
1751013416619445800,3.09944580078125,0.03825124725699425,0.1529778242111206,0.06879717111587524
1751013416629388800,3.109388916015625,0.040156472474336624,0.19992457330226898,-0.0009624664089642465
1751013416639332900,3.119332763671875,0.04234852269291878,0.21569660305976868,-0.069954052567482
1751013416649276000,3.12927587890625,0.037391580641269684,0.19992908835411072,-0.12425297498703003
1751013416659218700,3.13921875,0.02652748115360737,0.16823267936706543,-0.1690548062324524
1751013416669161700,3.14916162109375,0.00737242866307497,0.12748844921588898,-0.18988871574401855
1751013416679104800,3.159104736328125,-0.002837864449247718,0.09091605991125107,-0.18774300813674927
1751013416689047800,3.1690478515625,-0.008813997730612755,0.05982578173279762,-0.1684236377477646
1751013416698991900,3.178991943359375,-0.01306200586259365,0.0420617014169693,-0.13715626299381256
1751013416708934700,3.1889345703125,-0.01617683842778206,0.021830197423696518,-0.10456955432891846
1751013416718877700,3.198877685546875,-0.013517406769096851,0.011266236193478107,-0.07343479990959167
1751013416728820700,3.20882080078125,-0.012464392930269241,0.008980978280305862,-0.04968766123056412
1751013416738763800,3.218763671875,-0.014573615975677967,-0.004533765371888876,-0.03846616670489311
1751013416748706800,3.228706787109375,-0.024114390835165977,-0.011697402223944664,-0.03747866675257683
1751013416758651000,3.23865087890625,-0.0410827212035656,0.005468534771353006,-0.04652728885412216
1751013416768593700,3.24859375,-0.06394808739423752,0.033416811376810074,-0.06616038084030151
1751013416778536700,3.25853662109375,-0.08227916061878204,0.054780956357717514,-0.08494605123996735
1751013416788479700,3.268479736328125,-0.10020463168621063,0.06568127870559692,-0.10082541406154633
1751013416798422800,3.2784228515625,-0.10906576365232468,0.06405594944953918,-0.11428183317184448
1751013416808365800,3.28836572265625,-0.11162719875574112,0.04981362819671631,-0.12456642836332321
1751013416818310000,3.298309814453125,-0.11894209682941437,0.030773092061281204,-0.1325969249010086
1751013416828252700,3.308252685546875,-0.12131284922361374,0.02147919312119484,-0.13276231288909912
1751013416838195700,3.31819580078125,-0.12703678011894226,0.01997450739145279,-0.1257089227437973
1751013416848138800,3.328138671875,-0.13184139132499695,0.023634755983948708,-0.11092518270015717
1751013416858081800,3.338081787109375,-0.13735359907150269,0.022820094600319862,-0.09321197122335434
1751013416868025900,3.34802587890625,-0.13226589560508728,0.03062635287642479,-0.06912580877542496
1751013416877969000,3.357968994140625,-0.11616655439138412,0.05218224599957466,-0.05163523182272911
1751013416887911700,3.36791162109375,-0.10988868027925491,0.08646298944950104,-0.048101481050252914
1751013416897854700,3.377854736328125,-0.11016432195901871,0.11111320555210114,-0.05573383718729019
1751013416907797800,3.3877978515625,-0.11045673489570618,0.12084785848855972,-0.06424237042665482
1751013416917740800,3.39774072265625,-0.09644851088523865,0.11331643909215927,-0.0653422549366951
1751013416927684900,3.407684814453125,-0.06962275505065918,0.09551666676998138,-0.05776902288198471
1751013416937628000,3.4176279296875,-0.04375786706805229,0.08084424585103989,-0.04993506893515587
1751013416947570700,3.42757080078125,-0.021261611953377724,0.05503502115607262,-0.04081347584724426
1751013416957513700,3.437513671875,-0.012327239848673344,0.03027055412530899,-0.03393452987074852
1751013416967456800,3.447456787109375,-0.011150388978421688,0.0067721521481871605,-0.03724643960595131
1751013416977399800,3.45739990234375,-0.015749402344226837,-0.01714383251965046,-0.043234821408987045
1751013416987344000,3.46734375,-0.022290391847491264,-0.03062741830945015,-0.05824093520641327
1751013416997287000,3.477286865234375,-0.026972761377692223,-0.034745462238788605,-0.07303346693515778
1751013417007229700,3.487229736328125,-0.02852005884051323,-0.023301593959331512,-0.07605241984128952
1751013417017172700,3.4971728515625,-0.022110361605882645,-0.013187441043555737,-0.07018841058015823
1751013417027115800,3.50711572265625,-0.012687299400568008,-0.00896792858839035,-0.053693320602178574
1751013417037058800,3.517058837890625,-0.0019563580863177776,-0.018576614558696747,-0.04091920331120491
1751013417047003000,3.5270029296875,-0.001987783471122384,-0.037995584309101105,-0.032694295048713684
1751013417056946000,3.53694580078125,-0.009889115579426289,-0.054903727024793625,-0.03737213835120201
1751013417066888700,3.546888671875,-0.02526247873902321,-0.058945074677467346,-0.044077713042497635
1751013417076831700,3.556831787109375,-0.04140150174498558,-0.05192604660987854,-0.054485347121953964
1751013417086774800,3.56677490234375,-0.06492254137992859,-0.03702273219823837,-0.062428489327430725
1751013417096718800,3.57671875,-0.08713623136281967,-0.021097827702760696,-0.07196846604347229
1751013417106662000,3.586661865234375,-0.1102205142378807,-0.016023973003029823,-0.08345867693424225
1751013417116605000,3.59660498046875,-0.13300864398479462,-0.01347506232559681,-0.10184593498706818
1751013417126547700,3.606547607421875,-0.15611077845096588,-0.020423782989382744,-0.12871244549751282
1751013417136490800,3.61649072265625,-0.1642901450395584,-0.01395895890891552,-0.13589231669902802
1751013417146433800,3.626433837890625,-0.15877526998519897,0.032646361738443375,-0.11726590245962143
1751013417156377900,3.6363779296875,-0.14441709220409393,0.09551693499088287,-0.08039364218711853
1751013417166321000,3.64632080078125,-0.12306707352399826,0.14696921408176422,-0.04743622615933418
1751013417176264000,3.656263916015625,-0.10137615352869034,0.1835666298866272,-0.028326179832220078
1751013417186206700,3.666206787109375,-0.08014250546693802,0.18419992923736572,-0.020668793469667435
1751013417196149800,3.676149658203125,-0.05763613060116768,0.14849333465099335,-0.01973961666226387
1751013417206092800,3.6860927734375,-0.040882453322410583,0.09298400580883026,-0.024056866765022278
1751013417216036900,3.696036865234375,-0.021099425852298737,0.05030817911028862,-0.027711521834135056
1751013417225980000,3.70597998046875,0.005636047571897507,0.034513503313064575,-0.023180153220891953
1751013417235922700,3.715922607421875,0.04051307216286659,0.044430315494537354,-0.013846573419868946
1751013417245865700,3.72586572265625,0.07943996787071228,0.06670472770929337,0.001222390914335847
1751013417255808800,3.735808837890625,0.10386940836906433,0.09003961086273193,0.015478292480111122
1751013417265751800,3.745751708984375,0.11575616151094437,0.09411398321390152,0.026513366028666496
1751013417275695900,3.75569580078125,0.11128604412078857,0.08853119611740112,0.031144604086875916
1751013417285639000,3.765638916015625,0.10344303399324417,0.07641887664794922,0.03982863947749138
1751013417295581700,3.775581787109375,0.08940950781106949,0.060499563813209534,0.04853637516498566
1751013417305524700,3.785524658203125,0.07513044029474258,0.048164334148168564,0.06283382326364517
1751013417315467800,3.7954677734375,0.06449270993471146,0.03988829255104065,0.06720726937055588
1751013417325412000,3.805412109375,0.053765758872032166,0.031672973185777664,0.06123725697398186
1751013417335355100,3.815355224609375,0.046122752130031586,0.025225196033716202,0.039268311113119125
1751013417345298200,3.825298095703125,0.03865418583154678,0.02977680414915085,0.0004495415778364986
1751013417355241000,3.835240966796875,0.03760223463177681,0.037451233714818954,-0.04048644006252289
1751013417365184000,3.84518408203125,0.03690528869628906,0.053648579865694046,-0.09291902184486389
1751013417375127000,3.855126953125,0.04134397953748703,0.06632709503173828,-0.13651736080646515
1751013417385071000,3.865071044921875,0.05462596192955971,0.0786263719201088,-0.16569043695926666
1751013417395014100,3.87501416015625,0.07534721493721008,0.07583723962306976,-0.17350813746452332
1751013417404957200,3.884957275390625,0.0943792313337326,0.05807129293680191,-0.17145536839962006
1751013417414900000,3.89489990234375,0.11198299378156662,0.028414597734808922,-0.1571643203496933
1751013417424843000,3.904843017578125,0.12680508196353912,-0.0032178976107388735,-0.13133032619953156
1751013417434786000,3.9147861328125,0.1400228887796402,-0.02468270994722843,-0.09814520925283432
1751013417444730000,3.924730224609375,0.15296104550361633,-0.036013927310705185,-0.06348443031311035
1751013417454673200,3.934673095703125,0.15877100825309753,-0.03345169872045517,-0.03520219400525093
1751013417464616000,3.944615966796875,0.15379728376865387,-0.02646729350090027,-0.01281566359102726
1751013417474559000,3.95455908203125,0.15308383107185364,-0.016772855073213577,0.012504606507718563
1751013417484502000,3.964501953125,0.15890096127986908,0.0011576761025935411,0.039689090102910995
1751013417494445000,3.974445068359375,0.16074466705322266,0.028837507590651512,0.057309627532958984
1751013417504389000,3.98438916015625,0.16162031888961792,0.0542009212076664,0.06831354647874832
1751013417514332200,3.994332275390625,0.15240871906280518,0.07219164073467255,0.06899558007717133
1751013417524275000,4.00427490234375,0.1365938037633896,0.0811539739370346,0.06608714163303375
1751013417534218000,4.014218017578125,0.11641689389944077,0.09177013486623764,0.059778645634651184
1751013417544161000,4.0241611328125,0.08984919637441635,0.10327978432178497,0.05073002353310585
1751013417554105000,4.03410498046875,0.06394622474908829,0.11227460950613022,0.04098285362124443
1751013417564048100,4.044048095703125,0.03093634359538555,0.12523488700389862,0.022551115602254868
1751013417573991200,4.0539912109375,-0.007443002425134182,0.12496856600046158,-0.004723116289824247
1751013417583934000,4.063933837890625,-0.04909723997116089,0.10812646895647049,-0.04842878505587578
1751013417593877000,4.073876953125,-0.08641131967306137,0.0902116522192955,-0.09695344418287277
1751013417603820000,4.083820068359375,-0.10903780162334442,0.0730968490242958,-0.14386077225208282
1751013417613764000,4.09376416015625,-0.12216425687074661,0.0634562075138092,-0.18161612749099731
1751013417623707100,4.10370703125,-0.11466506123542786,0.07688732445240021,-0.1968424916267395
1751013417633650200,4.113650146484375,-0.09307481348514557,0.11658254265785217,-0.18945914506912231
1751013417643593000,4.123593017578125,-0.055506400763988495,0.17740514874458313,-0.15650226175785065
1751013417653536000,4.133535888671875,-0.010861435905098915,0.24545849859714508,-0.10432320833206177
1751013417663479000,4.14347900390625,0.030919300392270088,0.2837584912776947,-0.04478451609611511
1751013417673423000,4.153423095703125,0.05958689749240875,0.287249892950058,-0.004806472919881344
1751013417683366100,4.1633662109375,0.06398990005254745,0.25787362456321716,0.018978217616677284
1751013417693309200,4.17330908203125,0.05916957929730415,0.23328891396522522,0.003513508476316929
1751013417703252000,4.183251953125,0.04280418902635574,0.19560624659061432,-0.04054130241274834
1751013417713195000,4.193195068359375,0.037932999432086945,0.13702842593193054,-0.10073699802160263
1751013417723139000,4.20313916015625,0.030248450115323067,0.05595754086971283,-0.16082510352134705
1751013417733082000,4.21308203125,0.027184749022126198,-0.04225557669997215,-0.21008692681789398
1751013417743025200,4.223025146484375,0.04314267635345459,-0.13526861369609833,-0.22782304883003235
1751013417752968200,4.23296826171875,0.06881208717823029,-0.19518867135047913,-0.21484945714473724
1751013417762911000,4.242910888671875,0.09653479605913162,-0.2101771980524063,-0.17578861117362976
1751013417772854000,4.25285400390625,0.12808552384376526,-0.1962299644947052,-0.11080880463123322
1751013417782798000,4.262798095703125,0.15970949828624725,-0.18155381083488464,-0.04224572330713272
1751013417792741000,4.2727412109375,0.1944054365158081,-0.16613677144050598,0.027177825570106506
1751013417802684200,4.28268408203125,0.22820334136486053,-0.15246491134166718,0.09189929813146591
1751013417812627200,4.292627197265625,0.2585314214229584,-0.13427124917507172,0.1535024791955948
1751013417822570000,4.302570068359375,0.2796630859375,-0.11712049692869186,0.20901420712471008
1751013417832513000,4.312512939453125,0.28672951459884644,-0.09643971920013428,0.25843074917793274
1751013417842457000,4.32245703125,0.27485740184783936,-0.060560550540685654,0.29879069328308105
1751013417852400000,4.332400146484375,0.24456366896629333,-0.01200899202376604,0.32331788539886475
1751013417862343200,4.34234326171875,0.19895224273204803,0.01581651344895363,0.318332701921463
1751013417872286200,4.3522861328125,0.14801903069019318,0.013768808916211128,0.26677417755126953
1751013417882229000,4.36222900390625,0.08167089521884918,0.0014138722326606512,0.1821298599243164
1751013417892172000,4.372172119140625,0.01853213831782341,-0.006332997232675552,0.06688529253005981
1751013417902116000,4.3821162109375,-0.04326065629720688,-0.01792041026055813,-0.06399443000555038
1751013417912059100,4.39205908203125,-0.08852187544107437,-0.008327438496053219,-0.1843424141407013
1751013417922002200,4.402002197265625,-0.11335159093141556,0.014576279558241367,-0.28348204493522644
1751013417931945000,4.411945068359375,-0.13315965235233307,0.0452985055744648,-0.3420042097568512
1751013417941888000,4.421887939453125,-0.14591193199157715,0.08548533916473389,-0.3757898807525635
1751013417951832000,4.43183203125,-0.15167580544948578,0.11744487285614014,-0.379157692193985
1751013417961775000,4.441775146484375,-0.14771249890327454,0.1421227902173996,-0.366528183221817
1751013417971718100,4.45171826171875,-0.1356089562177658,0.15220418572425842,-0.3352254033088684
1751013417981661200,4.4616611328125,-0.11008309572935104,0.15215465426445007,-0.2848716676235199
1751013417991604000,4.47160400390625,-0.08501662313938141,0.16311702132225037,-0.23196399211883545
1751013418001547000,4.481547119140625,-0.05044826120138168,0.15069016814231873,-0.18249498307704926
1751013418011491000,4.491490966796875,-0.010028399527072906,0.1377384215593338,-0.13348188996315002
1751013418021434000,4.50143408203125,0.039866723120212555,0.11899057030677795,-0.0895937979221344
1751013418031377200,4.511377197265625,0.080592580139637,0.09152831882238388,-0.05067596212029457
1751013418041320200,4.5213203125,0.10943461209535599,0.06698755919933319,-0.008993761613965034
1751013418051263000,4.531262939453125,0.12894172966480255,0.04903944954276085,0.03886430710554123
1751013418061206000,4.5412060546875,0.1411731094121933,0.0376640222966671,0.08610931783914566
1751013418071150000,4.551150146484375,0.14201518893241882,0.0258044321089983,0.11470687389373779
1751013418081093000,4.561093017578125,0.1359245479106903,-0.003942010924220085,0.13245338201522827
1751013418091036200,4.5710361328125,0.11379048228263855,-0.0368134081363678,0.13105015456676483
1751013418100979200,4.580979248046875,0.06535104662179947,-0.06658941507339478,0.10846522450447083
1751013418110922000,4.590921875,0.0015749934827908874,-0.09010698646306992,0.07248245924711227
1751013418120866000,4.600865966796875,-0.05637592449784279,-0.12301114201545715,0.020065320655703545
1751013418130809000,4.61080908203125,-0.09539709240198135,-0.16967079043388367,-0.037576403468847275
1751013418140752100,4.620752197265625,-0.09852630645036697,-0.20486819744110107,-0.08383364975452423
1751013418150695200,4.630695068359375,-0.08572342991828918,-0.2192700356245041,-0.11317369341850281
1751013418160638200,4.64063818359375,-0.07483109831809998,-0.18870839476585388,-0.11618998646736145
1751013418170581000,4.6505810546875,-0.07615628838539124,-0.12414111942052841,-0.0991383045911789
1751013418180525000,4.660525146484375,-0.0919104814529419,-0.0353420116007328,-0.0746164470911026
1751013418190468000,4.670468017578125,-0.10741700232028961,0.04567933827638626,-0.06517527252435684
1751013418200411100,4.6804111328125,-0.11168019473552704,0.10757625848054886,-0.07350431382656097
1751013418210354200,4.690354248046875,-0.11127912253141403,0.13555435836315155,-0.09827303886413574
1751013418220297200,4.700297119140625,-0.10829531401395798,0.14863021671772003,-0.13009195029735565
1751013418230240000,4.710239990234375,-0.11704219877719879,0.14527782797813416,-0.1568623185157776
1751013418240184000,4.72018408203125,-0.12276240438222885,0.1294730305671692,-0.17657770216464996
1751013418250127000,4.730127197265625,-0.11986595392227173,0.11184770613908768,-0.18080121278762817
1751013418260070100,4.740070068359375,-0.10283450037240982,0.11065886914730072,-0.16389626264572144
1751013418270013200,4.75001318359375,-0.09013921022415161,0.10542336106300354,-0.12070111930370331
1751013418279956200,4.759956298828125,-0.07346862554550171,0.08461315184831619,-0.07249097526073456
1751013418289900000,4.769900146484375,-0.057256896048784256,0.05530666559934616,-0.015801865607500076
1751013418299843000,4.779843017578125,-0.04098871350288391,0.02033616416156292,0.03266153857111931
1751013418309786000,4.7897861328125,-0.0297299325466156,0.000940095866099,0.06347165256738663
1751013418319729200,4.799729248046875,-0.026979686692357063,-0.01709562912583351,0.08529971539974213
1751013418329675500,4.809675537109375,-0.029138177633285522,-0.02383715659379959,0.08613382279872894
1751013418339618600,4.81961865234375,-0.04006060212850571,-0.016409600153565407,0.08206211030483246
1751013418349562400,4.829562255859375,-0.048761412501335144,0.0028064390644431114,0.08076754957437515
1751013418359505400,4.83950537109375,-0.048892706632614136,0.017047958448529243,0.07400312274694443
1751013418369448400,4.849448486328125,-0.04601782560348511,0.022707177326083183,0.06583999842405319
1751013418379391500,4.8593916015625,-0.046673763543367386,0.022760173305869102,0.0545191690325737
1751013418389334500,4.86933447265625,-0.053459230810403824,0.014947524294257164,0.04276344180107117
1751013418399277600,4.879277587890625,-0.06272223591804504,0.00159470085054636,0.03759531304240227
1751013418409221400,4.889221435546875,-0.079220250248909,0.006712763570249081,0.03470312058925629
1751013418419164400,4.899164306640625,-0.08817406743764877,0.01624208688735962,0.03400404006242752
1751013418429107500,4.909107421875,-0.09537632018327713,0.030591998249292374,0.036917004734277725
1751013418439050500,4.919050537109375,-0.10879359394311905,0.03590180724859238,0.030736606568098068
1751013418448993500,4.92899365234375,-0.1241091638803482,0.042641203850507736,0.018438927829265594
1751013418458936600,4.9389365234375,-0.13173726201057434,0.053293582051992416,0.0088789789006114
1751013418468880400,4.94888037109375,-0.13083231449127197,0.06120503321290016,-0.0028932581190019846
1751013418478823400,4.958823486328125,-0.12250860780477524,0.05369465425610542,-0.014970960095524788
1751013418488766500,4.968766357421875,-0.11387889832258224,0.04631343483924866,-0.01624794490635395
1751013418498709500,4.97870947265625,-0.10511469841003418,0.042329613119363785,-0.00896659679710865
1751013418508652500,4.988652587890625,-0.10522335767745972,0.039137016981840134,-0.0015877765836194158
1751013418518596400,4.998596435546875,-0.10904286056756973,0.041302166879177094,0.0037878139410167933
1751013418528539400,5.008539306640625,-0.10614747554063797,0.06502853333950043,0.0025955168530344963
1751013418538482400,5.018482421875,-0.10251492261886597,0.07880613207817078,-0.012948821298778057
1751013418548425500,5.028425537109375,-0.09951647371053696,0.08794263750314713,-0.036020051687955856
1751013418558368500,5.038368408203125,-0.1015777587890625,0.10315967351198196,-0.0622258223593235
1751013418568311600,5.0483115234375,-0.0950293093919754,0.11889070272445679,-0.07771024107933044
1751013418578255400,5.05825537109375,-0.08441554754972458,0.1313050240278244,-0.07894035428762436
1751013418588198400,5.068198486328125,-0.07889667898416519,0.13703881204128265,-0.07024087011814117
1751013418598141400,5.078141357421875,-0.0837649405002594,0.12942004203796387,-0.05000883713364601
1751013418608084500,5.08808447265625,-0.0874536857008934,0.12183163315057755,-0.020054401829838753
1751013418618027500,5.098027587890625,-0.07954036444425583,0.11053609848022461,0.0013353090034797788
1751013418627970600,5.107970458984375,-0.06888852268457413,0.1107824370265007,0.019225891679525375
1751013418637914400,5.117914306640625,-0.055149536579847336,0.1173199713230133,0.018639730289578438
1751013418647857400,5.127857421875,-0.04496481269598007,0.12288624048233032,0.011410047300159931
1751013418657800400,5.137800537109375,-0.040102943778038025,0.12516936659812927,-0.0014650048688054085
1751013418667743500,5.147743408203125,-0.0408765934407711,0.13235297799110413,-0.01623809151351452
1751013418677686500,5.1576865234375,-0.04381619021296501,0.14120319485664368,-0.028016719967126846
1751013418687630300,5.16763037109375,-0.051655735820531845,0.13742230832576752,-0.04170137271285057
1751013418697573400,5.177573486328125,-0.049666088074445724,0.14554893970489502,-0.06220318749547005
1751013418707516400,5.187516357421875,-0.038845933973789215,0.12635473906993866,-0.07523030787706375
1751013418717459500,5.19745947265625,-0.026796726509928703,0.12432967126369476,-0.07078096270561218
1751013418727402500,5.207402587890625,-0.020124176517128944,0.1317034363746643,-0.05525393411517143
1751013418737345500,5.217345458984375,-0.018969696015119553,0.12686820328235626,-0.035944949835538864
1751013418747289300,5.227289306640625,-0.020870661363005638,0.11713594198226929,-0.018518291413784027
1751013418757232400,5.237232421875,-0.017768610268831253,0.10065656900405884,-0.007282147649675608
1751013418767175400,5.247175537109375,-0.0158881526440382,0.07244011014699936,-0.003498062025755644
1751013418777118500,5.257118408203125,-0.015427425503730774,0.036559876054525375,-0.005395031534135342
1751013418787061500,5.2670615234375,-0.02028796076774597,0.0024557008873671293,-0.000758734589908272
1751013418797004500,5.277004638671875,-0.032886043190956116,-0.0203915573656559,0.012799418531358242
1751013418806948400,5.2869482421875,-0.041547976434230804,-0.02213619463145733,0.026251044124364853
1751013418816891400,5.296891357421875,-0.047205328941345215,-0.010690460912883282,0.028721394017338753
1751013418826834400,5.30683447265625,-0.043478235602378845,0.005569202359765768,0.023392673581838608
1751013418836777500,5.316777587890625,-0.03399711474776268,0.02804921194911003,0.005904494319111109
1751013418846720500,5.326720458984375,-0.03001915104687214,0.05312393978238106,-0.03236539661884308
1751013418856664300,5.336664306640625,-0.025947976857423782,0.08446215093135834,-0.08055369555950165
1751013418866607400,5.346607421875,-0.015721172094345093,0.11387570202350616,-0.12148275226354599
1751013418876550400,5.35655029296875,-0.005598763469606638,0.1315620243549347,-0.14600035548210144
1751013418886493400,5.366493408203125,-0.0005619269795715809,0.11927659064531326,-0.15015700459480286
1751013418896436500,5.3764365234375,-0.0033800839446485043,0.09510467946529388,-0.13580043613910675
1751013418906379500,5.386379638671875,-0.008540491573512554,0.06488605588674545,-0.10922582447528839
1751013418916323300,5.3963232421875,-0.01137063279747963,0.01605912670493126,-0.07303186506032944
1751013418926266400,5.406266357421875,-0.012004731222987175,-0.0032919333316385746,-0.03677479177713394
1751013418936209400,5.41620947265625,-0.007552458439022303,-0.007979096844792366,0.0037268276792019606
1751013418946152400,5.42615234375,0.008643022738397121,-0.005256547126919031,0.033671408891677856
1751013418956095500,5.436095458984375,0.023790018633008003,0.006577741354703903,0.04869883134961128
1751013418966039300,5.446039306640625,0.03446796163916588,0.026105370372533798,0.0546581856906414
1751013418975982300,5.455982421875,0.04903625324368477,0.03886617347598076,0.05193137377500534
1751013418985925400,5.46592529296875,0.05048234760761261,0.0433269664645195,0.0395498052239418
1751013418995868400,5.475868408203125,0.05210794135928154,0.04181189462542534,0.017072726041078568
1751013419005811500,5.4858115234375,0.052149754017591476,0.03948242962360382,-0.009677660651504993
1751013419015754500,5.49575439453125,0.048715874552726746,0.030952056869864464,-0.03367673605680466
1751013419025698300,5.5056982421875,0.0462079755961895,0.02225550450384617,-0.04501967132091522
1751013419035641300,5.515641357421875,0.03446849435567856,0.02419694885611534,-0.04344547912478447
1751013419045584400,5.52558447265625,0.025010544806718826,0.025242505595088005,-0.0314311608672142
1751013419055527400,5.53552734375,0.021269602701067924,0.015605591237545013,-0.012801283039152622
1751013419065470500,5.545470458984375,0.01798885315656662,0.005770271178334951,0.001526257605291903
1751013419075413500,5.55541357421875,0.018091652542352676,0.0025331987999379635,0.009178850799798965
1751013419085357300,5.565357421875,0.017737451940774918,0.0027632960118353367,0.011299259960651398
1751013419095300400,5.57530029296875,0.013529391027987003,0.010388459078967571,0.015418104827404022
1751013419105243400,5.585243408203125,0.012377307750284672,0.025430524721741676,0.014031928963959217
1751013419115186400,5.5951865234375,0.007399593014270067,0.039203859865665436,0.013561348430812359
1751013419125129500,5.60512939453125,0.0018322548130527139,0.05103921517729759,0.009613212198019028
1751013419135072500,5.615072509765625,0.0007624630234204233,0.05505872517824173,0.005568936001509428
1751013419145016300,5.625016357421875,-0.002198173198848963,0.04653021693229675,-0.0010522148804739118
1751013419154959400,5.63495947265625,-0.005382781382650137,0.03056749701499939,-0.014356035739183426
1751013419164902400,5.64490234375,-0.010011355392634869,0.014401576481759548,-0.023082682862877846
1751013419174845400,5.654845458984375,-0.008773784153163433,0.01203855313360691,-0.026197515428066254
1751013419184788500,5.66478857421875,-0.008095476776361465,0.006292250473052263,-0.03068707324564457
1751013419194732500,5.674732666015625,-0.004193147178739309,0.0043859598226845264,-0.019753731787204742
1751013419204675300,5.68467529296875,-0.003933222498744726,0.002567820018157363,-0.016466325148940086
1751013419214618400,5.694618408203125,-0.0006186523241922259,-0.0025451830588281155,-0.010273942723870277
1751013419224561400,5.7045615234375,0.0013243899447843432,0.0017451694002375007,-0.010087255388498306
1751013419234504400,5.71450439453125,-0.0003480751474853605,0.012219914235174656,-0.0036554548423737288
1751013419244447500,5.724447509765625,0.0023995081428438425,0.02888118289411068,0.002922020386904478
1751013419254391600,5.7343916015625,-0.0046762446872889996,0.03009718284010887,-0.00036432043998502195
1751013419264334300,5.744334228515625,-0.0073298183269798756,0.018519887700676918,-0.0025158883072435856
1751013419274277400,5.75427734375,-0.00654525076970458,0.002651176881045103,-0.003410177771002054
1751013419284220400,5.764220458984375,0.0017768610268831253,-0.005006476305425167,-0.004036553204059601
1751013419294163500,5.77416357421875,0.008835569024085999,0.00424161646515131,-0.0013667342718690634
1751013419304106500,5.7841064453125,0.01152749266475439,0.028319789096713066,0.0059995693154633045
1751013419314050600,5.794050537109375,0.01392886508256197,0.049552105367183685,0.005574794951826334
1751013419323993300,5.803993408203125,0.011166367679834366,0.060441505163908005,0.008798818103969097
1751013419333932800,5.813932861328125,0.013919544406235218,0.058154117316007614,0.004510329570621252
1751013419343875800,5.823875732421875,0.0085452850908041,0.0402347706258297,-0.002814162289723754
1751013419353819000,5.83381884765625,-0.0003504719934426248,0.011081413365900517,-0.0148047786206007
1751013419363763000,5.843762939453125,-0.018203770741820335,-0.006879211403429508,-0.02646942436695099
1751013419373706000,5.8537060546875,-0.03507835790514946,-0.011384480632841587,-0.03941931203007698
1751013419383648800,5.863648681640625,-0.04957394301891327,-0.0049558766186237335,-0.05037235841155052
1751013419393591800,5.873591796875,-0.052610479295253754,0.009640110656619072,-0.054185472428798676
1751013419403534800,5.883534912109375,-0.05235961079597473,0.027714984491467476,-0.05265948176383972
1751013419413478000,5.893477783203125,-0.039915990084409714,0.041370607912540436,-0.04230937361717224
1751013419423422000,5.903421875,-0.027167173102498055,0.04410860687494278,-0.02743961289525032
1751013419433365000,5.913364990234375,-0.01763678342103958,0.03296993300318718,-0.011530954390764236
1751013419443307800,5.923307861328125,-0.01635793410241604,0.007505320478230715,0.0006934871198609471
1751013419453250800,5.933250732421875,-0.023187611252069473,-0.018696455284953117,0.014486530795693398
1751013419463193900,5.94319384765625,-0.03921717777848244,-0.04222947731614113,0.015242069959640503
1751013419473138000,5.953137939453125,-0.0542757548391819,-0.051719386130571365,0.01025609951466322
1751013419483081000,5.9630810546875,-0.06380347907543182,-0.0453520342707634,-0.0016916398890316486
1751013419493024000,5.97302392578125,-0.063116654753685,-0.030068952590227127,-0.01245240867137909
1751013419502966800,5.982966796875,-0.05969235673546791,-0.002775546396151185,-0.019991017878055573
1751013419512909800,5.992909912109375,-0.05570134520530701,0.023067502304911613,-0.013683321885764599
1751013419522852900,6.002852783203125,-0.040341563522815704,0.042394593358039856,-0.001930525409989059
1751013419532797000,6.012796875,-0.019289275631308556,0.05395590886473656,0.014201306737959385
1751013419542740000,6.022739990234375,0.0022069616243243217,0.05396709591150284,0.03458274528384209
1751013419552682800,6.032682861328125,0.011931493878364563,0.033616550266742706,0.046672698110342026
1751013419562625800,6.042625732421875,0.013204751536250114,0.009852631017565727,0.05379132553935051
1751013419572568800,6.05256884765625,0.003340402850881219,-0.009888317435979843,0.05559135600924492
1751013419582511900,6.062511962890625,-0.0030389330349862576,-0.026521354913711548,0.05091271549463272
1751013419592456000,6.0724560546875,-0.01019937451928854,-0.037401434034109116,0.04268141835927963
1751013419602399000,6.08239892578125,-0.014801849611103535,-0.0459778793156147,0.03280268609523773
1751013419612341800,6.092341796875,-0.013992780819535255,-0.049616023898124695,0.021313011646270752
1751013419622284800,6.102284912109375,-0.015442073345184326,-0.05830831453204155,0.00999058224260807
1751013419632227800,6.112227783203125,-0.021038439124822617,-0.07455998659133911,0.007685882970690727
1751013419642172000,6.122171875,-0.02911687269806862,-0.09654384851455688,0.013817811384797096
1751013419652115000,6.132114990234375,-0.037811826914548874,-0.10031302273273468,0.03289642930030823
1751013419662058000,6.14205810546875,-0.044614873826503754,-0.08176543563604355,0.057380467653274536
1751013419672000800,6.152000732421875,-0.04126408323645592,-0.05022455379366875,0.07648572325706482
1751013419681943800,6.16194384765625,-0.03268364444375038,-0.015479356981813908,0.08124905079603195
1751013419691886800,6.171886962890625,-0.027843615040183067,0.008763664402067661,0.06452759355306625
1751013419701831000,6.181830810546875,-0.024882713332772255,0.020547352731227875,0.04260951280593872
1751013419711774000,6.19177392578125,-0.0276862233877182,0.02913231961429119,0.017054617404937744
1751013419721717000,6.201717041015625,-0.03340216353535652,0.02875361777842045,-0.00896819494664669
1751013419731659800,6.21165966796875,-0.03708851337432861,0.020897291600704193,-0.02219691500067711
1751013419741602800,6.221602783203125,-0.03934288024902344,0.017345434054732323,-0.021589715033769608
1751013419751545900,6.2315458984375,-0.04265904799103737,0.000987500068731606,-0.014377341605722904
1751013419761490000,6.241489990234375,-0.04266703501343727,-0.01558428630232811,0.0006327670416794717
1751013419771433000,6.251432861328125,-0.03279922530055046,-0.024601483717560768,0.012465724721550941
1751013419781376000,6.2613759765625,-0.018172612413764,-0.02870568074285984,0.020077837631106377
1751013419791318800,6.27131884765625,-0.009216401726007462,-0.022846726700663567,0.021338311955332756
1751013419801261800,6.28126171875,-0.0006356965750455856,-0.010871822014451027,0.019641345366835594
1751013419811206000,6.291205810546875,0.005019792355597019,0.007284278050065041,0.01661173440515995
1751013419821149000,6.30114892578125,0.01558375358581543,0.02358229085803032,0.010841462761163712
1751013419831092000,6.311092041015625,0.021796641871333122,0.021932994946837425,0.0046509443782269955
1751013419841035000,6.321034912109375,0.02310212329030037,0.00839668046683073,-0.008948220871388912
1751013419850977800,6.330977783203125,0.01828872598707676,-0.015188540332019329,-0.031008515506982803
1751013419860920800,6.3409208984375,0.020309798419475555,-0.03735669329762459,-0.03942277282476425
1751013419870865000,6.350864990234375,0.022839535027742386,-0.044862814247608185,-0.03449992090463638
1751013419880808000,6.360807861328125,0.03148628771305084,-0.03392574191093445,-0.016638897359371185
1751013419890751000,6.3707509765625,0.03819585591554642,-0.023674169555306435,0.0019068233668804169
1751013419900694000,6.380694091796875,0.044199418276548386,-0.023901337757706642,0.018982745707035065
1751013419910636800,6.39063671875,0.03941744565963745,-0.033734794706106186,0.03013553097844124
1751013419920580900,6.400580810546875,0.03712126985192299,-0.041267279535532,0.031208785250782967
1751013419930524000,6.41052392578125,0.03437075763940811,-0.04638800397515297,0.02611149474978447
1751013419940467000,6.420467041015625,0.027116838842630386,-0.05976799130439758,0.006445914972573519
1751013419950410000,6.430409912109375,0.01798166334629059,-0.07840106636285782,-0.013576528988778591
1751013419960353000,6.44035302734375,0.00891093723475933,-0.0818040519952774,-0.028499018400907516
1751013419970295800,6.4502958984375,0.008982576429843903,-0.06671298295259476,-0.033001091331243515
1751013419980240000,6.460239990234375,0.012663330882787704,-0.043243344873189926,-0.027028953656554222
1751013419990183000,6.470182861328125,0.030280673876404762,-0.025678198784589767,-0.003643736941739917
1751013420000126000,6.4801259765625,0.048110805451869965,-0.012622051872313023,0.029100893065333366
1751013420010069000,6.490069091796875,0.06624852865934372,-0.017342504113912582,0.06666238605976105
1751013420020011800,6.50001171875,0.07688146829605103,-0.03735882416367531,0.09773508459329605
1751013420029955800,6.509955810546875,0.07522843778133392,-0.08310047537088394,0.11360299587249756
1751013420039899000,6.51989892578125,0.05294843390583992,-0.14245754480361938,0.10778877884149551
1751013420049842000,6.529842041015625,0.021152690052986145,-0.17489537596702576,0.10936670750379562
1751013420059785000,6.539784912109375,-0.003421895671635866,-0.16947798430919647,0.10008318722248077
1751013420069728000,6.54972802734375,-0.013160543516278267,-0.1419006735086441,0.09569403529167175
1751013420079670800,6.5596708984375,-0.021764418110251427,-0.11855407804250717,0.07865326851606369
1751013420089614800,6.56961474609375,-0.008445416577160358,-0.08440862596035004,0.05842762440443039
1751013420099558000,6.579557861328125,0.027600202709436417,-0.0659385398030281,0.05132870003581047
1751013420109501000,6.5895009765625,0.05840951204299927,-0.058927230536937714,0.058275025337934494
1751013420119444000,6.59944384765625,0.08662544190883636,-0.03471936285495758,0.0898238942027092
1751013420129387000,6.609386962890625,0.09425193071365356,-0.007411577273160219,0.12526445090770721
1751013420139330800,6.619330810546875,0.09081299602985382,0.009749566204845905,0.16197505593299866
1751013420149273900,6.62927392578125,0.08025968819856644,0.02508591115474701,0.20007051527500153
1751013420159217000,6.639216796875,0.06543520092964172,0.026451580226421356,0.2243228554725647
1751013420169160000,6.649159912109375,0.052377186715602875,0.012922722846269608,0.23221246898174286
1751013420179103000,6.65910302734375,0.03470578417181969,-0.01684635877609253,0.22376517951488495
1751013420189046000,6.6690458984375,0.022783342748880386,-0.033777136355638504,0.20614145696163177
1751013420198989800,6.67898974609375,0.015485748648643494,-0.04141721501946449,0.18609370291233063
1751013420208932900,6.688932861328125,0.014793327078223228,-0.03688664361834526,0.16630029678344727
1751013420218876000,6.6988759765625,0.017557954415678978,-0.026636404916644096,0.14783047139644623
1751013420228819000,6.70881884765625,0.014913968741893768,-0.010321080684661865,0.11966461688280106
1751013420238762000,6.718761962890625,0.011657188646495342,-0.00944756343960762,0.09178238362073898
1751013420248705800,6.728705810546875,0.012644688598811626,-0.009720537811517715,0.05475325882434845
1751013420258648800,6.73864892578125,0.009609750472009182,-0.020074641332030296,0.015324361622333527
1751013420268591900,6.748591796875,0.008561530150473118,-0.042447593063116074,-0.030654581263661385
1751013420278535000,6.758534912109375,0.007224357221275568,-0.0689803957939148,-0.0633331686258316
1751013420288478000,6.76847802734375,0.0065567027777433395,-0.0653555691242218,-0.07543483376502991
1751013420298421000,6.7784208984375,-0.0029372002463787794,-0.057260092347860336,-0.07231094688177109
1751013420308364800,6.78836474609375,-0.015528359450399876,-0.046940878033638,-0.07275836169719696
1751013420318307800,6.798307861328125,-0.030411968007683754,-0.05907663702964783,-0.08086448907852173
1751013420328251000,6.8082509765625,-0.0433296300470829,-0.06041700392961502,-0.09172645956277847
1751013420338197800,6.81819775390625,-0.06696891039609909,-0.055607870221138,-0.0978085845708847
1751013420348140800,6.828140869140625,-0.08726087212562561,-0.05607125908136368,-0.10088746249675751
1751013420358084600,6.838084716796875,-0.09844747930765152,-0.055750880390405655,-0.10582523047924042
1751013420368027600,6.848027587890625,-0.09946001321077347,-0.05260062590241432,-0.10591018944978714
1751013420377970700,6.857970703125,-0.09255896508693695,-0.0401945561170578,-0.10935737937688828
1751013420387913700,6.867913818359375,-0.08872374147176743,-0.03563549369573593,-0.11958552151918411
1751013420397856800,6.877856689453125,-0.08352764695882797,-0.034147582948207855,-0.13544544577598572
1751013420407799800,6.8877998046875,-0.08036088198423386,-0.03520432487130165,-0.15825514495372772
1751013420417743600,6.89774365234375,-0.0786958783864975,-0.03080185502767563,-0.16635142266750336
1751013420427686700,6.907686767578125,-0.07621806859970093,-0.023324497044086456,-0.1677384078502655
1751013420437629700,6.917629638671875,-0.0710265040397644,-0.015023157931864262,-0.1558002531528473
1751013420447572700,6.92757275390625,-0.055800680071115494,-0.004054396413266659,-0.135202556848526
1751013420457515800,6.937515869140625,-0.04203932732343674,0.006903179921209812,-0.11941161751747131
1751013420467459600,6.94745947265625,-0.02906307764351368,0.018571820110082626,-0.12113121896982193
1751013420477402600,6.957402587890625,-0.026489930227398872,0.03700781986117363,-0.1300506740808487
1751013420487345700,6.967345703125,-0.02744840271770954,0.04187580943107605,-0.14609622955322266
1751013420497288700,6.977288818359375,-0.03899826481938362,0.04801199957728386,-0.17602403461933136
1751013420507231700,6.987231689453125,-0.04465535283088684,0.04575230926275253,-0.20354034006595612
1751013420517174800,6.9971748046875,-0.04547959938645363,0.0457959845662117,-0.21958082914352417
1751013420527118600,7.00711865234375,-0.0382150299847126,0.05378493294119835,-0.22181148827075958
1751013420537061600,7.0170615234375,-0.03271853178739548,0.05844839662313461,-0.21002008020877838
1751013420547004700,7.027004638671875,-0.026517095044255257,0.057066481560468674,-0.18056978285312653
1751013420556947700,7.03694775390625,-0.014520885422825813,0.05555087700486183,-0.14749757945537567
1751013420566890800,7.046890869140625,-0.007125287316739559,0.056176718324422836,-0.10916776955127716
1751013420576834600,7.05683447265625,0.008053132332861423,0.05904121696949005,-0.07994410395622253
1751013420586777600,7.066777587890625,0.01834811456501484,0.05409066379070282,-0.059235092252492905
1751013420596720600,7.076720703125,0.017586184665560722,0.040520261973142624,-0.05627365782856941
1751013420606663700,7.08666357421875,0.010909372940659523,0.023723172023892403,-0.060325659811496735
1751013420616606700,7.096606689453125,0.003183010034263134,0.001169394003227353,-0.0663534551858902
1751013420626549800,7.1065498046875,-0.007377222646027803,-0.0006226470577530563,-0.06683123111724854
1751013420636493600,7.11649365234375,-0.010251838713884354,0.004692223388701677,-0.069627545773983
1751013420646436600,7.1264365234375,-0.010100836865603924,0.009273126721382141,-0.06722111254930496
1751013420656379600,7.136379638671875,-0.009346896782517433,0.018637599423527718,-0.06336858868598938
1751013420666322700,7.14632275390625,-0.00421365350484848,0.028475316241383553,-0.05512610077857971
1751013420676265700,7.156265625,0.004285558592528105,0.03536731004714966,-0.05085891857743263
1751013420686209800,7.166209716796875,0.007642739452421665,0.040111999958753586,-0.05172551050782204
1751013420696152600,7.176152587890625,0.013412744738161564,0.04789135977625847,-0.057983942329883575
1751013420706095600,7.186095703125,0.010889665223658085,0.055875517427921295,-0.07045392692089081
1751013420716038700,7.19603857421875,0.007722634356468916,0.056587379425764084,-0.08653596043586731
1751013420725981700,7.205981689453125,0.0009981527691707015,0.05074307322502136,-0.10567290335893631
1751013420735924700,7.2159248046875,0.0026469158474355936,0.04682636260986328,-0.11583978682756424
1751013420745868800,7.225868896484375,0.0024232103023678064,0.05336175858974457,-0.12562929093837738
1751013420755811600,7.2358115234375,-0.0006130596739239991,0.06547114998102188,-0.1274881809949875
1751013420765754600,7.245754638671875,-0.00019867181254085153,0.08550611138343811,-0.11870641261339188
1751013420775697700,7.25569775390625,0.0031489215325564146,0.09660270810127258,-0.10970652103424072
1751013420785640700,7.265640625,0.008795089088380337,0.09691562503576279,-0.10091489553451538
1751013420795584800,7.275584716796875,0.01236159447580576,0.07421084493398666,-0.09382343292236328
1751013420805527800,7.28552783203125,0.008115983568131924,0.05036463588476181,-0.08443339169025421
1751013420815470600,7.295470703125,0.004825381562113762,0.025654496625065804,-0.07753527164459229
1751013420825413600,7.30541357421875,0.0008442220860160887,0.008779643103480339,-0.07804153859615326
1751013420835356700,7.315356689453125,-0.003829092951491475,-0.003495132550597191,-0.08031880855560303
1751013420845300700,7.32530078125,-0.007665376644581556,-0.02406805194914341,-0.08224320411682129
1751013420855243800,7.335243896484375,-0.007936219684779644,-0.04595763608813286,-0.08766886591911316
1751013420865186800,7.345186767578125,-0.009035573340952396,-0.06725466996431351,-0.08841268718242645
1751013420875129600,7.355129638671875,-0.015186942182481289,-0.07722900807857513,-0.07453761994838715
1751013420885072600,7.36507275390625,-0.007312507834285498,-0.05993523821234703,-0.04974651709198952
1751013420895015700,7.375015625,0.004151069093495607,-0.03087109699845314,-0.019413378089666367
1751013420904959700,7.384959716796875,0.01912842132151127,-0.012428972870111465,0.008280300535261631
1751013420914902800,7.39490283203125,0.03332946076989174,-0.008265386335551739,0.025249430909752846
1751013420924845600,7.404845458984375,0.04609665647149086,-0.019299395382404327,0.029622074216604233
1751013420934788600,7.41478857421875,0.050867706537246704,-0.028441227972507477,0.03539580851793289
1751013420944731600,7.424731689453125,0.04932813346385956,-0.046783484518527985,0.035706065595149994
1751013420954675700,7.43467578125,0.043656401336193085,-0.052250687032938004,0.025901105254888535
1751013420964618800,7.44461865234375,0.028653481975197792,-0.052979595959186554,0.013532320037484169
1751013420974561800,7.454561767578125,0.008960471488535404,-0.03808000683784485,0.003975300583988428
1751013420984504600,7.464504638671875,-0.005651227664202452,-0.01140046026557684,0.0009664611425250769
1751013420994447600,7.474447509765625,-0.014200241304934025,0.005465338937938213,0.002516420790925622
1751013421004391700,7.4843916015625,-0.00962679460644722,0.016560334712266922,0.00999031588435173
1751013421014334700,7.494334716796875,-0.002835201332345605,0.013912353664636612,0.02040167711675167
1751013421024277800,7.50427783203125,0.005065864883363247,0.010749583132565022,0.03473933786153793
1751013421034220800,7.514220703125,0.017171263694763184,-0.00148151651956141,0.04301298037171364
1751013421044163600,7.52416357421875,0.019632823765277863,-0.010057427920401096,0.04369954392313957
1751013421054106600,7.534106689453125,0.021035511046648026,-0.025547437369823456,0.035346005111932755
1751013421064050700,7.54405078125,0.01715901307761669,-0.038235537707805634,0.022941268980503082
1751013421073993700,7.55399365234375,0.010933607816696167,-0.052556686103343964,0.01799178309738636
1751013421083936800,7.563936767578125,0.0023616913240402937,-0.07268272340297699,0.006484530866146088
1751013421093879800,7.5738798828125,-0.003864513011649251,-0.0891365334391594,0.010942395776510239
1751013421103822600,7.583822509765625,-0.0046181874349713326,-0.09618032723665237,0.024591362103819847
1751013421113766700,7.5937666015625,-0.0060174125246703625,-0.08816714584827423,0.045887064188718796
1751013421123709700,7.603709716796875,-0.004099137615412474,-0.077732615172863,0.06823258101940155
1751013421133652700,7.61365283203125,-0.002862365450710058,-0.06820861250162125,0.08051082491874695
1751013421143595800,7.623595703125,0.006164418999105692,-0.04929671064019203,0.08260326832532883
1751013421153538800,7.633538818359375,0.015144864097237587,-0.02359134517610073,0.0722382441163063
1751013421163482600,7.643482666015625,0.01720135658979416,-0.01702106185257435,0.06004789099097252
1751013421173425700,7.65342578125,0.012117383070290089,-0.024700019508600235,0.044259872287511826
1751013421183368700,7.66336865234375,-0.00387383415363729,-0.04216716066002846,0.037818752229213715
1751013421193311700,7.673311767578125,-0.011352523230016232,-0.04800321161746979,0.02845401130616665
1751013421203254800,7.6832548828125,-0.013980263844132423,-0.05116331949830055,0.026703249663114548
1751013421213197800,7.69319775390625,-0.015085741877555847,-0.03921185061335564,0.030768565833568573
1751013421223141600,7.7031416015625,-0.01948768086731434,-0.015978699550032616,0.03225194662809372
1751013421233084700,7.713084716796875,-0.02755013480782509,0.0013960290234535933,0.03305675461888313
1751013421243027700,7.72302783203125,-0.03563389554619789,0.022945528849959373,0.03362906724214554
1751013421252970800,7.732970703125,-0.04482925683259964,0.036249350756406784,0.03267884999513626
1751013421262913800,7.742913818359375,-0.05221473425626755,0.02773256227374077,0.02636715956032276
1751013421272857600,7.752857666015625,-0.06177947670221329,0.01013678964227438,0.026326145976781845
1751013421282800600,7.762800537109375,-0.060869742184877396,-0.001773398951627314,0.029144037514925003
1751013421292743700,7.77274365234375,-0.06018584221601486,0.00029401297797448933,0.038773227483034134
1751013421302686700,7.782686767578125,-0.05061390995979309,0.008025169372558594,0.049201902002096176
1751013421312629800,7.792629638671875,-0.046965911984443665,0.015741944313049316,0.06338190287351608
1751013421322573600,7.802573486328125,-0.03893781080842018,0.02792670577764511,0.0702563226222992
1751013421332512800,7.8125126953125,-0.02677755244076252,0.034508973360061646,0.08691572397947311
1751013421342455800,7.822455810546875,-0.016807476058602333,0.05145972967147827,0.09997932612895966
1751013421352398800,7.83239892578125,-0.01420423574745655,0.04987088590860367,0.10121823102235794
1751013421362342000,7.842341796875,-0.015106781385838985,0.032827720046043396,0.09616781026124954
1751013421372285000,7.852284912109375,-0.01986638270318508,0.020171314477920532,0.08347038924694061
1751013421382228700,7.862228759765625,-0.0361659936606884,0.014703045599162579,0.06928000599145889
1751013421392171800,7.872171875,-0.047378700226545334,0.013697436079382896,0.05451863631606102
1751013421402114800,7.88211474609375,-0.05127064511179924,0.012941631488502026,0.046674828976392746
1751013421412057900,7.892057861328125,-0.04664366692304611,0.014126737602055073,0.04104384034872055
1751013421422001000,7.9020009765625,-0.04445135220885277,0.021317806094884872,0.04007258638739586
1751013421431945000,7.911945068359375,-0.044986650347709656,0.029343508183956146,0.04213147610425949
1751013421441887700,7.9218876953125,-0.04528678581118584,0.030550984665751457,0.0423024483025074
1751013421451830800,7.931830810546875,-0.044795967638492584,0.03321707621216774,0.04045341536402702
1751013421461773800,7.94177392578125,-0.03978149965405464,0.03912929445505142,0.03790077567100525
1751013421471716900,7.951716796875,-0.03278005123138428,0.03489327058196068,0.03225354477763176
1751013421481661000,7.961660888671875,-0.02582440711557865,0.02839595451951027,0.025546371936798096
1751013421491604000,7.97160400390625,-0.014888668432831764,0.0323086716234684,0.01673690229654312
1751013421501546800,7.981546630859375,-0.002683401107788086,0.04066247493028641,0.013252422213554382
1751013421511489800,7.99148974609375,0.00592420157045126,0.059607405215501785,0.0028482507914304733
1751013421521432800,8.001432861328125,0.0073567163199186325,0.07159615308046341,-0.00017550231132190675
1751013421531377000,8.011376953125,0.007129015866667032,0.07272852957248688,-0.007440605666488409
1751013421541320000,8.02131982421875,0.0049409628845751286,0.064649298787117,-0.0177606213837862
1751013421551263000,8.031262939453125,0.008351407013833523,0.04423696920275688,-0.029155755415558815
1751013421561205800,8.041205810546876,0.01384098082780838,0.01660347729921341,-0.03756921365857124
1751013421571148800,8.051148681640624,0.015294800512492657,0.000022636868379777297,-0.04909617453813553
1751013421581091800,8.061091796875,0.01997131109237671,0.0009440905996598303,-0.04772358015179634
1751013421591036000,8.071035888671876,0.02876533567905426,0.01315148826688528,-0.04378423094749451
1751013421600979000,8.08097900390625,0.03683151677250862,0.026818564161658287,-0.043961066752672195
1751013421610922000,8.090921875,0.042461175471544266,0.03881477192044258,-0.04484656825661659
1751013421620864800,8.10086474609375,0.045331262052059174,0.041844651103019714,-0.05552664026618004
1751013421630807800,8.110807861328125,0.047990962862968445,0.04947860166430473,-0.057923752814531326
1751013421640751900,8.120751953125,0.04579758271574974,0.05487922579050064,-0.04831080883741379
1751013421650695000,8.13069482421875,0.03948881849646568,0.05961672589182854,-0.028483306989073753
1751013421660638000,8.140637939453125,0.0299091637134552,0.05192418396472931,-0.0027659591287374496
1751013421670580700,8.150580810546876,0.02611016295850277,0.04463910683989525,0.02058676816523075
1751013421680523800,8.160523681640624,0.024159930646419525,0.030285734683275223,0.03946112468838692
1751013421690467800,8.1704677734375,0.019516710191965103,0.02418549731373787,0.04705139994621277
1751013421700411000,8.180410888671876,0.02491174079477787,0.024691764265298843,0.053829941898584366
1751013421710354000,8.19035400390625,0.031742483377456665,0.019885024055838585,0.05095772445201874
1751013421720297000,8.200296875,0.037886396050453186,0.01563914678990841,0.04039429500699043
1751013421730239700,8.21023974609375,0.031082818284630775,0.0008530105114914477,0.02474023401737213
1751013421740183800,8.220183837890625,0.018393388018012047,-0.009283512830734253,0.005054146982729435
1751013421750126800,8.230126953125,0.008047806099057198,-0.017619740217924118,-0.014659636653959751
1751013421760070000,8.24006982421875,0.003790477057918906,-0.01769830286502838,-0.03598383441567421
1751013421770013000,8.250012939453125,0.01071229949593544,-0.014010357670485973,-0.055872585624456406
1751013421779956000,8.2599560546875,0.0205734521150589,-0.004008856136351824,-0.06827253103256226
1751013421789899800,8.269899658203125,0.028775988146662712,0.013609551824629307,-0.075220987200737
1751013421799842800,8.2798427734375,0.037580665200948715,0.028249481692910194,-0.06582961231470108
1751013421809785900,8.289785888671876,0.04512247070670128,0.02310585230588913,-0.05355803295969963
1751013421819729000,8.29972900390625,0.043530967086553574,0.009387376718223095,-0.03597664460539818
1751013421829672000,8.309671875,0.04117007181048393,-0.009739979170262814,-0.020014187321066856
1751013421839615000,8.319614990234374,0.0371771976351738,-0.02472079172730446,-0.006611297372728586
1751013421849558800,8.329558837890625,0.03253903612494469,-0.03687732294201851,-0.00041518680518493056
1751013421859501800,8.339501708984375,0.02768781967461109,-0.030980020761489868,0.002156361471861601
1751013421869444900,8.34944482421875,0.02743055857717991,-0.021564681082963943,-0.0008253136184066534
1751013421879388000,8.359387939453125,0.025967685505747795,-0.012369317933917046,-0.005541505757719278
1751013421889331000,8.3693310546875,0.02209571562707424,-0.005718073341995478,-0.014457502402365208
1751013421899274800,8.379274658203125,0.023322632536292076,-0.0021497036796063185,-0.02009168639779091
1751013421909217800,8.3892177734375,0.01900378428399563,-0.0023558323737233877,-0.01672571711242199
1751013421919160800,8.399160888671876,0.016326243057847023,-0.0028597023338079453,-0.029651103541254997
1751013421929104000,8.409103759765625,0.006885603070259094,-0.008559932000935078,-0.04243401065468788
1751013421939047000,8.419046875,0.003858920419588685,-0.013347497209906578,-0.06334728002548218
1751013421948990700,8.42899072265625,-0.0011741877533495426,-0.018446385860443115,-0.07658319175243378
1751013421958933800,8.438933837890625,-0.004066380672156811,-0.021706627681851387,-0.08776100724935532
1751013421968876800,8.448876708984375,-0.003946272190660238,-0.017945444211363792,-0.09450333565473557
1751013421978819800,8.45881982421875,-0.0020008329302072525,-0.008823052980005741,-0.08530664443969727
1751013421988763000,8.468762939453125,0.005023520905524492,-0.007928497157990932,-0.06738836318254471
1751013421998707000,8.47870703125,0.013937653042376041,0.0008215851848945022,-0.0531255342066288
1751013422008649700,8.488649658203125,0.028303010389208794,0.0029904635157436132,-0.04946821555495262
1751013422018592800,8.4985927734375,0.0487225316464901,-0.017555290833115578,-0.04987887665629387
1751013422028535800,8.508535888671876,0.054174553602933884,-0.01739550195634365,-0.05083095654845238
1751013422038478800,8.518478759765625,0.049373675137758255,-0.016947824507951736,-0.05377987399697304
1751013422048423000,8.5284228515625,0.04186728969216347,-0.019697804003953934,-0.06643202155828476
1751013422058365700,8.53836572265625,0.03663311153650284,-0.01558322086930275,-0.07938829809427261
1751013422068308700,8.548308837890625,0.03073900379240513,0.010425476357340813,-0.08348077535629272
1751013422078251800,8.558251708984375,0.02286749891936779,0.0345798134803772,-0.08199207484722137
1751013422088194800,8.56819482421875,0.018763568252325058,0.042033202946186066,-0.08293323218822479
1751013422098137900,8.578137939453125,0.022842997685074806,0.04200390726327896,-0.08233828097581863
1751013422108082000,8.58808203125,0.04055381938815117,0.04430807754397392,-0.0730835348367691
1751013422118024700,8.598024658203125,0.05211566388607025,0.04670625180006027,-0.061465758830308914
1751013422127967700,8.6079677734375,0.06450628489255905,0.06342930346727371,-0.04994891583919525
1751013422137910800,8.617910888671876,0.06567488610744476,0.0638735219836235,-0.04103851318359375
1751013422147853800,8.627853759765625,0.055811066180467606,0.06785760819911957,-0.029799707233905792
1751013422157798000,8.6377978515625,0.04592328146100044,0.06085110083222389,-0.028174113482236862
1751013422167741000,8.647740966796874,0.0331592857837677,0.045403968542814255,-0.02881833165884018
1751013422177683700,8.65768359375,0.020204870030283928,0.03622192144393921,-0.029699571430683136
1751013422187626800,8.667626708984375,0.006200371775776148,0.03256779536604881,-0.02875335142016411
1751013422197569800,8.67756982421875,-0.0015486282063648105,0.039388418197631836,-0.024468857795000076
1751013422207513900,8.687513916015625,-0.0046541402116417885,0.0501936636865139,-0.02460814081132412
1751013422217457000,8.697456787109376,-0.0027864654548466206,0.06157920882105827,-0.021755894646048546
1751013422227400000,8.70739990234375,-0.0030301446095108986,0.07306408882141113,-0.02574451081454754
1751013422237342700,8.7173427734375,-0.0003534014686010778,0.07364252954721451,-0.025292573496699333
1751013422247285800,8.72728564453125,0.001478320686146617,0.07546759396791458,-0.023798273876309395
1751013422257229800,8.737229736328125,0.005398760084062815,0.07838401943445206,-0.024458738043904305
1751013422267172900,8.7471728515625,0.004661330953240395,0.07330164313316345,-0.030797593295574188
1751013422277116000,8.757115966796874,0.002829076023772359,0.06384289264678955,-0.04280019551515579
1751013422287059000,8.767058837890625,0.0006759102689102292,0.05446537211537361,-0.05125679448246956
1751013422297001700,8.777001708984375,-0.0022570290602743626,0.0559476874768734,-0.06063937768340111
1751013422306944800,8.78694482421875,0.00643899105489254,0.06563813239336014,-0.05904441326856613
1751013422316888800,8.796888916015625,0.013484649360179901,0.07483881711959839,-0.057308830320835114
1751013422326831900,8.806831787109376,0.024106401950120926,0.09982779622077942,-0.04793583229184151
1751013422336775400,8.816775390625,0.024807611480355263,0.13788676261901855,-0.04572461172938347
1751013422346718200,8.82671826171875,0.02130528911948204,0.16235455870628357,-0.04737124219536781
1751013422356661200,8.8366611328125,0.01332965400069952,0.16803134977817535,-0.06543280184268951
1751013422366605300,8.846605224609375,0.019240539520978928,0.17953966557979584,-0.08489864319562912
1751013422376548400,8.85654833984375,0.023241672664880753,0.157072976231575,-0.11002876609563828
1751013422386491400,8.866491455078124,0.024899223819375038,0.13097453117370605,-0.12663331627845764
1751013422396434400,8.876434326171875,0.020169449970126152,0.11515588313341141,-0.13661830127239227
1751013422406377200,8.886377197265626,0.005078115500509739,0.10819225013256073,-0.12618909776210785
1751013422416321300,8.8963212890625,-0.0029198897536844015,0.11445680260658264,-0.10488726943731308
1751013422426264300,8.906264404296875,-0.011932292953133583,0.14041410386562347,-0.07707267999649048
1751013422436207400,8.916207275390626,-0.00986514799296856,0.16361689567565918,-0.04475974664092064
1751013422446150400,8.926150390625,-0.004849083721637726,0.17466022074222565,-0.017240505665540695
1751013422456093200,8.93609326171875,0.00005459480235003866,0.1695203185081482,0.017437312752008438
1751013422466037200,8.946037353515624,0.00509835546836257,0.15782025456428528,0.049739859998226166
1751013422475980300,8.955980224609375,0.006876814644783735,0.13557514548301697,0.0794556736946106
1751013422485923300,8.96592333984375,0.010601777583360672,0.10244781523942947,0.09719552844762802
1751013422495866400,8.975866455078124,0.005848035216331482,0.07373414188623428,0.1039370521903038
1751013422505809400,8.985809326171875,-0.0046818372793495655,0.05290902033448219,0.09983737766742706
1751013422515753200,8.995753173828126,-0.01296426821500063,0.04393097385764122,0.08758657425642014
1751013422525696300,9.0056962890625,-0.01733078621327877,0.04493791237473488,0.05777648091316223
1751013422535639300,9.015639404296875,-0.01164360623806715,0.052327387034893036,0.03516464680433273
1751013422545582300,9.025582275390626,-0.007458715233951807,0.06333129853010178,0.009623066522181034
1751013422555525400,9.035525390625,0.0008098672842606902,0.05799565836787224,-0.014635934494435787
1751013422565469200,9.04546923828125,0.004709533881396055,0.04572567716240883,-0.029734991490840912
1751013422575412200,9.055412109375,0.007880826480686665,0.027778368443250656,-0.03253184258937836
1751013422585355300,9.065355224609375,0.0107682254165411,-0.008225172758102417,-0.0157651137560606
1751013422595298300,9.07529833984375,0.015061241574585438,-0.053996387869119644,0.020302075892686844
1751013422605241300,9.085241455078124,0.012953882105648518,-0.08013185113668442,0.05975227802991867
1751013422615184400,9.095184326171875,0.02124323695898056,-0.08645100146532059,0.10191171616315842
1751013422625128200,9.105128173828126,0.034570228308439255,-0.08473192900419235,0.12609241902828217
1751013422635071200,9.1150712890625,0.04704447463154793,-0.07146140187978745,0.1274634152650833
1751013422645014300,9.12501416015625,0.05993044376373291,-0.056003082543611526,0.1091238260269165
1751013422654957300,9.134957275390626,0.05682599917054176,-0.03569994121789932,0.07299351692199707
1751013422664900400,9.144900390625,0.04688521847128868,-0.03086150996387005,0.029335517436265945
1751013422674844200,9.15484423828125,0.03984514996409416,-0.031680699437856674,-0.0035217641852796078
1751013422684787200,9.164787109375,0.027814853936433792,-0.022888803854584694,-0.020968930795788765
1751013422694730200,9.174730224609375,0.015184013172984123,-0.008921323344111443,-0.020203271880745888
1751013422704673300,9.18467333984375,0.0015691345324739814,-0.006471215281635523,-0.024264859035611153
1751013422714616300,9.1946162109375,-0.010053698904812336,-0.02419881336390972,-0.032345954328775406
1751013422724560400,9.204560302734375,-0.01565486006438732,-0.03194275125861168,-0.045049767941236496
1751013422734503200,9.214503173828126,-0.018371550366282463,-0.030711306259036064,-0.06690073758363724
1751013422744446200,9.2244462890625,-0.028291825205087662,-0.02347576431930065,-0.08692078292369843
1751013422754389200,9.23438916015625,-0.035719115287065506,-0.0117940753698349,-0.10445690155029297
1751013422764332300,9.244332275390626,-0.02659805491566658,-0.005769738461822271,-0.11044155806303024
1751013422774276400,9.2542763671875,-0.019534818828105927,0.00006498113361885771,-0.10204008221626282
1751013422784219400,9.264219482421876,-0.01522609032690525,-0.0016106797847896814,-0.07503456622362137
1751013422794162200,9.274162109375,-0.01134107168763876,-0.01209847442805767,-0.04591209813952446
1751013422804105200,9.284105224609375,-0.01025503408163786,-0.0170250553637743,-0.018015485256910324
1751013422814048300,9.29404833984375,-0.007833422161638737,-0.023361781612038612,0.003129480639472604
1751013422823992300,9.303992431640625,-0.009352489374577999,-0.01690947450697422,0.00950881652534008
1751013422833935400,9.313935302734375,-0.008812133222818375,0.004640558268874884,-0.0024639565963298082
1751013422843878100,9.323878173828126,-0.004575843457132578,0.021199828013777733,-0.026917634531855583
1751013422853821200,9.3338212890625,-0.006730606779456139,0.04710705950856209,-0.055330365896224976
1751013422863764200,9.34376416015625,-0.002287122653797269,0.073961041867733,-0.07974596321582794
1751013422873708300,9.353708251953124,0.0114369448274374,0.08631784468889236,-0.08679747581481934
1751013422883651300,9.3636513671875,0.035723909735679626,0.09019380807876587,-0.08780628442764282
1751013422893594400,9.373594482421876,0.0534893237054348,0.08339369297027588,-0.08446082472801208
1751013422903537200,9.383537109375,0.06093791872262955,0.07174529135227203,-0.07809294015169144
1751013422913480200,9.393480224609375,0.06286471337080002,0.055158328264951706,-0.07518423348665237
1751013422923424300,9.40342431640625,0.05567338317632675,0.04760213941335678,-0.07018601149320602
1751013422933367300,9.4133671875,0.0433698445558548,0.03976152837276459,-0.0764998346567154
1751013422943310300,9.423310302734375,0.023968182504177094,0.025353027507662773,-0.0844712108373642
1751013422953253400,9.43325341796875,0.00484349112957716,0.0009001484140753746,-0.09044760465621948
1751013422963196200,9.443196044921875,-0.007949535734951496,-0.018631208688020706,-0.09566793590784073
1751013422973140200,9.45314013671875,-0.011232147924602032,-0.033903107047080994,-0.08826301991939545
1751013422983083300,9.463083251953124,-0.003879160387441516,-0.028596756979823112,-0.0790301039814949
1751013422993026300,9.4730263671875,0.01654302328824997,-0.006168679799884558,-0.05823800712823868
1751013423002969300,9.48296923828125,0.03363119810819626,0.02484356425702572,-0.04488278552889824
1751013423012912400,9.492912353515624,0.04075542092323303,0.03801342844963074,-0.03230547532439232
1751013423022855200,9.502855224609375,0.028593560680747032,0.04207315295934677,-0.022852584719657898
1751013423032799200,9.51279931640625,0.002252235310152173,0.030962442979216576,-0.01176264975219965
1751013423042742300,9.5227421875,-0.03453001379966736,0.01968102715909481,0.0087807085365057
1751013423052685300,9.532685302734375,-0.0682552233338356,-0.015724102035164833,0.026729615405201912
1751013423062628400,9.54262841796875,-0.0805254653096199,-0.041241712868213654,0.041845452040433884
1751013423072571400,9.5525712890625,-0.06190198287367821,-0.06865575909614563,0.055988699197769165
1751013423082515200,9.56251513671875,-0.02155456133186817,-0.07716722041368484,0.06551695615053177
1751013423092458200,9.572458251953124,0.011422297917306423,-0.07225661724805832,0.06439176946878433
1751013423102401300,9.5824013671875,0.03014112450182438,-0.05597139149904251,0.0561482235789299
1751013423112344300,9.59234423828125,0.041488055139780045,-0.01877741515636444,0.035229891538619995
1751013423122287400,9.602287353515624,0.03809066116809845,0.021516477689146996,0.01684582605957985
1751013423132231200,9.612231201171875,0.036191560328006744,0.05501265078783035,-0.004923918284475803
1751013423142174200,9.62217431640625,0.038061898201704025,0.07467982918024063,-0.014779744669795036
1751013423152117200,9.6321171875,0.052731387317180634,0.08690293878316879,-0.017970478162169456
1751013423162060300,9.642060302734375,0.0644005611538887,0.0930710881948471,-0.00971760880202055
1751013423172003300,9.65200341796875,0.06255073100328445,0.0872853696346283,0.010273676365613937
1751013423181947100,9.661947021484375,0.04728202894330025,0.06830954551696777,0.035345207899808884
1751013423191890200,9.67189013671875,0.03302479535341263,0.04710173234343529,0.06673455238342285
1751013423201833200,9.681833251953124,0.021168667823076248,0.029202360659837723,0.1016206368803978
1751013423211776300,9.6917763671875,0.02058889903128147,0.022484535351395607,0.1345146745443344
1751013423221719300,9.70171923828125,0.029089441522955894,0.009873669594526291,0.1549200713634491
1751013423231663000,9.7116630859375,0.034143853932619095,0.0015686018159613013,0.1665908396244049
1751013423241606100,9.721606201171875,0.03796256333589554,0.012508600950241089,0.15764369070529938
1751013423251549200,9.731549072265626,0.050327617675065994,0.008836368098855019,0.13031965494155884
1751013423261492200,9.7414921875,0.05252046510577202,0.00863023940473795,0.0892087072134018
1751013423271435300,9.751435302734375,0.050753992050886154,0.023558322340250015,0.04163239896297455
1751013423281379300,9.76137939453125,0.03955459967255592,0.028978122398257256,-0.004455468617379665
1751013423291322000,9.771322021484375,0.018930016085505486,0.029224198311567307,-0.03134620562195778
1751013423301265200,9.78126513671875,-0.007134075742214918,0.029874809086322784,-0.05107862874865532
1751013423311208200,9.791208251953124,-0.028017785400152206,0.03674949333071709,-0.05533915385603905
1751013423321151200,9.801151123046875,-0.03804592043161392,0.04538000002503395,-0.04689160734415054
1751013423331095300,9.81109521484375,-0.04620131850242615,0.04722264036536217,-0.02046346291899681
1751013423341041400,9.82104150390625,-0.06063511595129967,0.04927061125636101,0.00917139369994402
1751013423350984400,9.830984375,-0.08130470663309097,0.04682689532637596,0.04042705148458481
1751013423360927200,9.84092724609375,-0.09131339937448502,0.04405933618545532,0.05739191919565201
1751013423370870300,9.850870361328125,-0.09018022567033768,0.041011083871126175,0.06752391904592514
1751013423380814300,9.860814453125,-0.07954861968755722,0.0352029949426651,0.0631621927022934
1751013423390757400,9.87075732421875,-0.06513532996177673,0.05137530714273453,0.04609265923500061
1751013423400700400,9.880700439453125,-0.045640453696250916,0.0696328729391098,0.020590495318174362
1751013423410643500,9.8906435546875,-0.023677632212638855,0.052679188549518585,-0.008808937855064869
1751013423420586200,9.900586181640625,-0.0062547000125050545,0.016272446140646935,-0.03620380908250809
1751013423430529000,9.910529052734375,0.002712962217628956,-0.014594389125704765,-0.03429272770881653
1751013423440473300,9.920473388671875,0.00866006687283516,-0.03202823922038078,-0.014177071861922741
1751013423450416400,9.93041650390625,0.0057678744196891785,-0.04695099592208862,0.01660880446434021
1751013423460359400,9.940359375,-0.000027430558475316502,-0.04833823814988136,0.06391400098800659
1751013423470302500,9.950302490234375,-0.0003685815026983619,-0.03573429584503174,0.11024394631385803
1751013423480245200,9.960245361328125,-0.0036456012167036533,-0.02388163097202778,0.14441044628620148
1751013423490189300,9.970189208984374,-0.0012029499048367143,-0.022757243365049362,0.16647739708423615
1751013423500132400,9.98013232421875,0.00430207047611475,-0.02539057843387127,0.16637752950191498
1751013423510075400,9.990075439453125,0.011247062124311924,-0.03635534271597862,0.1432194709777832
1751013423520018400,10.000018310546874,0.018634937703609467,-0.03453986719250679,0.10938987135887146
1751013423529961500,10.00996142578125,0.022218219935894012,-0.024880848824977875,0.0666421428322792
1751013423539905300,10.0199052734375,0.015681225806474686,-0.012677179649472237,0.022372150793671608
1751013423549848300,10.029848388671875,0.0012154667638242245,-0.010145312175154686,-0.027758393436670303
1751013423559791400,10.039791259765625,-0.010294183157384396,-0.01619681343436241,-0.062072426080703735
1751013423569734400,10.049734375,-0.022374281659722328,-0.038966041058301926,-0.07799013704061508
1751013423579677400,10.059677490234375,-0.029574936255812645,-0.050286341458559036,-0.0728616863489151
1751013423589621200,10.069621337890625,-0.04176395758986473,-0.0686911791563034,-0.06340853124856949
1751013423599564300,10.079564208984374,-0.05249037221074104,-0.09330544620752335,-0.04882426559925079
1751013423609507300,10.08950732421875,-0.056419868022203445,-0.10382626205682755,-0.042504582554101944
1751013423619450400,10.099450439453125,-0.05966892093420029,-0.12585273385047913,-0.03935326635837555
1751013423629393400,10.109393310546874,-0.05451970174908638,-0.14564988017082214,-0.027571173384785652
1751013423639337200,10.119337158203125,-0.05383500084280968,-0.13138598203659058,-0.005405151750892401
1751013423649280300,10.1292802734375,-0.06308096647262573,-0.09929089993238449,0.03344450891017914
1751013423659223300,10.139223388671875,-0.08326452970504761,-0.045817822217941284,0.08107541501522064
1751013423669166300,10.149166259765625,-0.09109768271446228,-0.014639129862189293,0.1299944818019867
1751013423679109400,10.159109375,-0.08796154707670212,0.010369017720222473,0.17396487295627594
1751013423689053200,10.16905322265625,-0.07645269483327866,0.021878933534026146,0.20797397196292877
1751013423698996200,10.178996337890625,-0.06262636184692383,0.022364161908626556,0.23717260360717773
1751013423708939300,10.188939208984374,-0.05482756346464157,0.026193520054221153,0.2503725588321686
1751013423718882300,10.19888232421875,-0.04270138964056969,0.03633643686771393,0.2423199564218521
1751013423728825300,10.208825439453125,-0.02978426031768322,0.04717417061328888,0.20646262168884277
1751013423738769400,10.218769287109374,-0.014684404246509075,0.0707724392414093,0.15326012670993805
1751013423748712200,10.228712158203125,0.0012152004055678844,0.08437613397836685,0.09163165092468262
1751013423758655200,10.2386552734375,0.009354619309306145,0.09044068306684494,0.031191742047667503
1751013423768598300,10.248598388671875,0.021760955452919006,0.08991257846355438,-0.02063523791730404
1751013423778541300,10.258541259765625,0.03524453938007355,0.08669547736644745,-0.04498798027634621
1751013423788485400,10.2684853515625,0.04706205055117607,0.08381926268339157,-0.040047284215688705
1751013423798428400,10.278428466796875,0.04773103818297386,0.07709052413702011,-0.02130262553691864
1751013423808371200,10.28837109375,0.043001264333724976,0.06775853782892227,-0.005301288329064846
1751013423818314200,10.298314208984374,0.04111441224813461,0.034761443734169006,0.018365956842899323
1751013423828257300,10.30825732421875,0.03272572159767151,-0.011515508405864239,0.03127589821815491
1751013423838200300,10.318200439453125,0.017005082219839096,-0.07401058077812195,0.042271822690963745
1751013423848144400,10.328144287109374,0.006339388433843851,-0.12671826779842377,0.04707296937704086
1751013423858087400,10.33808740234375,-0.007996673695743084,-0.14841078221797943,0.04153492674231529
1751013423868030200,10.3480302734375,-0.016046345233917236,-0.14280349016189575,0.02147466503083706
1751013423877973200,10.35797314453125,-0.017430922016501427,-0.11640410870313644,-0.0011398328933864832
1751013423887916300,10.367916259765625,-0.01738964207470417,-0.0849955826997757,-0.028845230117440224
1751013423897860400,10.3778603515625,0.001859152689576149,-0.0507689043879509,-0.057607635855674744
1751013423907803400,10.387803466796875,0.02636129967868328,-0.01955053210258484,-0.07800105959177017
1751013423917746400,10.397746337890625,0.05122643709182739,-0.0010378338629379869,-0.09340424835681915
1751013423927689200,10.407689208984374,0.06351213157176971,0.005877862684428692,-0.1018557921051979
1751013423937632300,10.41763232421875,0.06058505177497864,0.00911733228713274,-0.11410686373710632
1751013423947576300,10.427576416015626,0.05110659450292587,0.02004321664571762,-0.12090858072042465
1751013423957519400,10.437519287109374,0.04513498768210411,0.02015959657728672,-0.1339077353477478
1751013423967462400,10.44746240234375,0.04104037582874298,-0.0010239854454994202,-0.1445436030626297
1751013423977405200,10.4574052734375,0.037825144827365875,-0.0007099987124092877,-0.15275119245052338
1751013423987348200,10.46734814453125,0.025492843240499496,0.01107502169907093,-0.1573811024427414
1751013423997292300,10.477292236328125,0.016634903848171234,0.030284136533737183,-0.15716485679149628
1751013424007235300,10.4872353515625,0.010574613697826862,0.04791506007313728,-0.1435486376285553
1751013424017178400,10.497178466796875,0.013728861697018147,0.0585503950715065,-0.12059645354747772
1751013424027121400,10.507121337890625,0.02461160346865654,0.04524284601211548,-0.09914282709360123
1751013424037064200,10.517064208984374,0.03742220625281334,0.01209554448723793,-0.07266541570425034
1751013424047008300,10.52700830078125,0.05176252871751785,-0.011440407484769821,-0.060447629541158676
1751013424056951300,10.536951416015626,0.055151935666799545,-0.027397535741329193,-0.05416443571448326
1751013424066894300,10.546894287109374,0.04796299710869789,-0.014328339137136936,-0.0469970703125
1751013424076837400,10.55683740234375,0.04370327293872833,0.026700319722294807,-0.04719387739896774
1751013424086780400,10.566780517578126,0.038307175040245056,0.07641514390707016,-0.041914161294698715
1751013424096724200,10.57672412109375,0.026460103690624237,0.13277855515480042,-0.03868560865521431
1751013424106667300,10.586667236328125,0.00854235514998436,0.2115793526172638,-0.04069896042346954
1751013424116610300,10.5966103515625,0.0029854036401957273,0.3272494971752167,0.002525209216400981
1751013424126553300,10.60655322265625,-0.04180949926376343,0.36068761348724365,0.216864675283432
1751013424136496400,10.616496337890625,-0.06187774986028671,0.078770712018013,0.3277576267719269
1751013424146440200,10.626440185546874,-0.024635039269924164,-0.1571214497089386,0.39732205867767334
1751013424156383200,10.63638330078125,0.010607636533677578,-0.33052173256874084,0.41886064410209656
1751013424166326300,10.646326171875,0.01395869255065918,-0.3930692672729492,0.4103100299835205
1751013424176269300,10.656269287109374,0.0031103058718144894,-0.3622543513774872,0.3545892536640167
1751013424186212400,10.66621240234375,0.007223558146506548,-0.26907116174697876,0.2511312961578369
1751013424196156200,10.67615625,0.02622787468135357,-0.11724113672971725,0.11648347228765488
1751013424206099200,10.68609912109375,0.06582295894622803,0.04045261815190315,-0.04874197393655777
1751013424216042200,10.696042236328125,0.09873616695404053,0.18370485305786133,-0.22927765548229218
1751013424225985300,10.7059853515625,0.11026658862829208,0.2941488027572632,-0.39835643768310547
1751013424235928300,10.71592822265625,0.0932503193616867,0.3562332093715668,-0.4853741526603699
