time,seconds_elapsed,z,y,x
1751013486734017000,0.11501708984375,-0.9840240478515625,-0.2259063720703125,0.0235137939453125
1751013486743960000,0.1249599609375,-0.984039306640625,-0.2297210693359375,0.0276641845703125
1751013486753904000,0.134904052734375,-0.9853973388671875,-0.2306671142578125,0.030975341796875
1751013486763847200,0.14484716796875,-0.9834136962890625,-0.2300872802734375,0.0379638671875
1751013486773790200,0.154790283203125,-0.983154296875,-0.2306976318359375,0.050201416015625
1751013486783734000,0.164734130859375,-0.9865570068359375,-0.2283935546875,0.056549072265625
1751013486793677000,0.174677001953125,-0.9924774169921875,-0.2262420654296875,0.0613555908203125
1751013486803620000,0.1846201171875,-0.992156982421875,-0.22479248046875,0.0542755126953125
1751013486813564200,0.194564208984375,-0.9928436279296875,-0.221343994140625,0.046905517578125
1751013486823507000,0.2045068359375,-0.9934844970703125,-0.2207183837890625,0.044677734375
1751013486833450000,0.214449951171875,-0.99749755859375,-0.219512939453125,0.0469512939453125
1751013486843394000,0.22439404296875,-0.992523193359375,-0.218353271484375,0.0457916259765625
1751013486853337000,0.234337158203125,-0.98968505859375,-0.2156982421875,0.0343170166015625
1751013486863280000,0.244280029296875,-1.0092010498046875,-0.20599365234375,0.021087646484375
1751013486873224000,0.254223876953125,-1.0440826416015625,-0.21282958984375,0.0375213623046875
1751013486883167000,0.2641669921875,-1.0532073974609375,-0.21527099609375,0.0554656982421875
1751013486893110000,0.274110107421875,-1.026123046875,-0.21551513671875,0.063232421875
1751013486903054000,0.28405419921875,-0.9940338134765625,-0.217010498046875,0.060455322265625
1751013486912997000,0.2939970703125,-0.97991943359375,-0.2197723388671875,0.060516357421875
1751013486922940000,0.30393994140625,-0.982269287109375,-0.2227935791015625,0.0609893798828125
1751013486932884000,0.313884033203125,-0.984344482421875,-0.2279052734375,0.064697265625
1751013486942827000,0.323826904296875,-0.9802703857421875,-0.2305145263671875,0.0676727294921875
1751013486952770000,0.33377001953125,-0.9777374267578125,-0.228759765625,0.0633544921875
1751013486962713900,0.3437138671875,-0.9745941162109375,-0.2289581298828125,0.0590057373046875
1751013486972657000,0.353656982421875,-0.9763641357421875,-0.2321929931640625,0.052886962890625
1751013486982600000,0.363599853515625,-0.9889984130859375,-0.235504150390625,0.05096435546875
1751013486992544300,0.373544189453125,-0.9904327392578125,-0.233367919921875,0.052642822265625
1751013487002487300,0.3834873046875,-0.984893798828125,-0.226165771484375,0.0492401123046875
1751013487012430000,0.39343017578125,-0.984130859375,-0.221527099609375,0.041656494140625
1751013487022374100,0.4033740234375,-0.9853363037109375,-0.222686767578125,0.0344696044921875
1751013487032317200,0.413317138671875,-0.9836578369140625,-0.223663330078125,0.0317230224609375
1751013487042260200,0.42326025390625,-0.9830322265625,-0.2252044677734375,0.0201263427734375
1751013487052204000,0.4332041015625,-0.975128173828125,-0.226898193359375,0.02349853515625
1751013487062147000,0.44314697265625,-0.9740753173828125,-0.226531982421875,0.0341339111328125
1751013487072090000,0.453090087890625,-0.9794158935546875,-0.2296142578125,0.0334625244140625
1751013487082034200,0.4630341796875,-0.970703125,-0.231170654296875,0.02740478515625
1751013487091977200,0.472977294921875,-0.96844482421875,-0.2303009033203125,0.025360107421875
1751013487101920000,0.482919921875,-0.971923828125,-0.2340545654296875,0.0350494384765625
1751013487111864000,0.492864013671875,-0.97381591796875,-0.2369384765625,0.05035400390625
1751013487121807000,0.50280712890625,-0.971710205078125,-0.238555908203125,0.0555419921875
1751013487131750100,0.512750244140625,-0.9749298095703125,-0.237762451171875,0.0587615966796875
1751013487141694000,0.52269384765625,-0.978515625,-0.2386474609375,0.0558624267578125
1751013487151637000,0.532636962890625,-0.9794158935546875,-0.241729736328125,0.0479736328125
1751013487161580000,0.542580078125,-0.977203369140625,-0.243682861328125,0.0408172607421875
1751013487171524000,0.552524169921875,-0.97747802734375,-0.2431182861328125,0.04052734375
1751013487181467100,0.562467041015625,-0.972625732421875,-0.2425689697265625,0.04388427734375
1751013487191410200,0.57241015625,-0.9642486572265625,-0.2407989501953125,0.045684814453125
1751013487201354000,0.58235400390625,-0.9655914306640625,-0.2378082275390625,0.0482177734375
1751013487211297000,0.592297119140625,-0.96612548828125,-0.23675537109375,0.0474090576171875
1751013487221240000,0.602239990234375,-0.9618072509765625,-0.235565185546875,0.047698974609375
1751013487231184100,0.61218408203125,-0.963470458984375,-0.234100341796875,0.0480804443359375
1751013487241127000,0.622126953125,-0.9751434326171875,-0.232635498046875,0.0522918701171875
1751013487251070000,0.632070068359375,-0.9827880859375,-0.2311859130859375,0.0525054931640625
1751013487261014000,0.642013916015625,-0.98748779296875,-0.229217529296875,0.0462646484375
1751013487270957000,0.65195703125,-0.9911041259765625,-0.2216033935546875,0.0353240966796875
1751013487280900000,0.661900146484375,-1.0061492919921875,-0.21868896484375,0.034210205078125
1751013487290844000,0.671843994140625,-1.0181884765625,-0.22076416015625,0.0416259765625
1751013487300787000,0.681786865234375,-1.0068206787109375,-0.21923828125,0.052490234375
1751013487310730000,0.69172998046875,-0.997772216796875,-0.21728515625,0.0588531494140625
1751013487320674300,0.70167431640625,-0.9907684326171875,-0.2214508056640625,0.059906005859375
1751013487330617000,0.7116171875,-0.98248291015625,-0.2230377197265625,0.0601806640625
1751013487340560000,0.721559814453125,-0.9752044677734375,-0.2253570556640625,0.0559844970703125
1751013487350504200,0.731504150390625,-0.97003173828125,-0.2264556884765625,0.0482940673828125
1751013487360447200,0.741447265625,-0.968994140625,-0.2312774658203125,0.045074462890625
1751013487370390300,0.751390380859375,-0.966888427734375,-0.23785400390625,0.0432891845703125
1751013487380334000,0.761333984375,-0.972503662109375,-0.239166259765625,0.0445556640625
1751013487390277000,0.771277099609375,-0.9798583984375,-0.2439117431640625,0.0445098876953125
1751013487400219000,0.781218994140625,-0.9827423095703125,-0.2391357421875,0.0433807373046875
1751013487410163000,0.791162841796875,-0.99273681640625,-0.231109619140625,0.0395965576171875
1751013487420106000,0.80110595703125,-0.9882659912109375,-0.2319488525390625,0.0425567626953125
1751013487430049000,0.811049072265625,-0.9900665283203125,-0.23388671875,0.04229736328125
1751013487439992800,0.820992919921875,-0.9937591552734375,-0.2353973388671875,0.0416259765625
1751013487449936000,0.830935791015625,-0.9889984130859375,-0.233551025390625,0.043243408203125
1751013487459879000,0.84087890625,-0.9852447509765625,-0.2289276123046875,0.0461883544921875
1751013487469823000,0.850822998046875,-0.985382080078125,-0.2293853759765625,0.0399627685546875
1751013487479766000,0.86076611328125,-0.98541259765625,-0.2324676513671875,0.0345916748046875
1751013487489708800,0.870708740234375,-0.98724365234375,-0.233856201171875,0.0358734130859375
1751013487499652900,0.88065283203125,-0.9910430908203125,-0.235443115234375,0.0337677001953125
1751013487509596000,0.890595947265625,-0.991912841796875,-0.2368011474609375,0.0314788818359375
1751013487519539000,0.9005390625,-0.99151611328125,-0.2357940673828125,0.03253173828125
1751013487529482800,0.910482666015625,-0.99786376953125,-0.23663330078125,0.0354766845703125
1751013487539425800,0.92042578125,-1.0054473876953125,-0.2396697998046875,0.038360595703125
1751013487549368800,0.930368896484375,-1.0011749267578125,-0.2390289306640625,0.037872314453125
1751013487559313000,0.94031298828125,-0.9923248291015625,-0.236602783203125,0.0363006591796875
1751013487569256000,0.950255859375,-0.985809326171875,-0.235595703125,0.0350799560546875
1751013487579198700,0.96019873046875,-0.9933013916015625,-0.2375335693359375,0.0297088623046875
1751013487589142800,0.970142822265625,-0.995880126953125,-0.2389373779296875,0.026397705078125
1751013487599085800,0.9800859375,-0.9931793212890625,-0.2363739013671875,0.0316925048828125
1751013487609028900,0.99002880859375,-0.999237060546875,-0.2366790771484375,0.0377044677734375
1751013487618973000,0.999972900390625,-1.0001068115234375,-0.2386627197265625,0.0394287109375
1751013487628915700,1.009915771484375,-0.9871978759765625,-0.2331390380859375,0.0467071533203125
1751013487638858800,1.019858642578125,-0.9827880859375,-0.2332305908203125,0.0446014404296875
1751013487648803000,1.029802978515625,-0.9844818115234375,-0.24273681640625,0.0358123779296875
1751013487658746000,1.03974609375,-0.97955322265625,-0.24200439453125,0.0388336181640625
1751013487668689000,1.04968896484375,-0.971893310546875,-0.2368927001953125,0.03900146484375
1751013487678633000,1.059633056640625,-0.9658050537109375,-0.2376708984375,0.0356597900390625
1751013487688576000,1.069575927734375,-0.96685791015625,-0.2362823486328125,0.0347442626953125
1751013487698519000,1.07951904296875,-0.9784698486328125,-0.2392730712890625,0.0300445556640625
1751013487708462800,1.089462890625,-0.980621337890625,-0.2407989501953125,0.028045654296875
1751013487718406000,1.099406005859375,-0.975982666015625,-0.233795166015625,0.033782958984375
1751013487728349000,1.109348876953125,-0.9855194091796875,-0.2279052734375,0.032928466796875
1751013487738293000,1.11929296875,-0.9873199462890625,-0.2301788330078125,0.028533935546875
1751013487748236000,1.129236083984375,-0.9835662841796875,-0.2322540283203125,0.0283203125
1751013487758179000,1.139178955078125,-0.98065185546875,-0.2283172607421875,0.0254364013671875
1751013487768123000,1.149122802734375,-0.977508544921875,-0.2242889404296875,0.0238189697265625
1751013487778066000,1.15906591796875,-0.9774169921875,-0.226593017578125,0.0257110595703125
1751013487788009000,1.169009033203125,-0.9781646728515625,-0.23126220703125,0.02349853515625
1751013487797952800,1.178952880859375,-0.9738616943359375,-0.2326202392578125,0.019134521484375
1751013487807895800,1.188895751953125,-0.97137451171875,-0.236907958984375,0.01593017578125
1751013487817838800,1.1988388671875,-0.9747467041015625,-0.24420166015625,0.0142059326171875
1751013487827783000,1.208782958984375,-0.9801177978515625,-0.2469482421875,0.015106201171875
1751013487837726000,1.218725830078125,-0.9836883544921875,-0.2467803955078125,0.01837158203125
1751013487847669000,1.2286689453125,-0.984375,-0.24383544921875,0.021881103515625
1751013487857612800,1.23861279296875,-0.98260498046875,-0.240081787109375,0.0229339599609375
1751013487867555800,1.248555908203125,-0.9824371337890625,-0.2398529052734375,0.0231170654296875
1751013487877499000,1.258498779296875,-0.9879150390625,-0.2418365478515625,0.02044677734375
1751013487887443000,1.26844287109375,-0.98907470703125,-0.2373504638671875,0.019866943359375
1751013487897385700,1.2783857421875,-0.98870849609375,-0.2332916259765625,0.021392822265625
1751013487907328800,1.288328857421875,-0.989349365234375,-0.2349853515625,0.024444580078125
1751013487917272800,1.29827294921875,-0.9893035888671875,-0.23504638671875,0.0272369384765625
1751013487927215900,1.3082158203125,-0.9904632568359375,-0.236907958984375,0.02960205078125
1751013487937159000,1.318158935546875,-0.9885711669921875,-0.2388153076171875,0.026031494140625
1751013487947103000,1.32810302734375,-0.9837646484375,-0.238006591796875,0.0193328857421875
1751013487957045800,1.338045654296875,-0.9839630126953125,-0.2369842529296875,0.01715087890625
1751013487966988800,1.34798876953125,-0.9866180419921875,-0.2371826171875,0.010589599609375
1751013487976933000,1.35793310546875,-0.9882354736328125,-0.2342681884765625,0.0138397216796875
1751013487986876000,1.3678759765625,-0.9952545166015625,-0.23114013671875,0.0206756591796875
1751013487996819000,1.37781884765625,-1.0064239501953125,-0.2302703857421875,0.022674560546875
1751013488006763000,1.387762939453125,-1.0109710693359375,-0.230499267578125,0.02203369140625
1751013488016706000,1.3977060546875,-1.0106353759765625,-0.23095703125,0.0166473388671875
1751013488026649000,1.407649169921875,-1.0061492919921875,-0.229248046875,0.016265869140625
1751013488036593000,1.417593017578125,-1.0081787109375,-0.2246856689453125,0.02008056640625
1751013488046536000,1.427535888671875,-1.00653076171875,-0.222503662109375,0.024871826171875
1751013488056479000,1.43747900390625,-1.002197265625,-0.222076416015625,0.0306396484375
1751013488066423000,1.447423095703125,-0.998077392578125,-0.22235107421875,0.0328521728515625
1751013488076365800,1.45736572265625,-0.98956298828125,-0.220855712890625,0.035125732421875
1751013488086308900,1.467308837890625,-0.97784423828125,-0.21966552734375,0.033721923828125
1751013488096253000,1.4772529296875,-0.9711761474609375,-0.218414306640625,0.0316162109375
1751013488106196000,1.487196044921875,-0.969268798828125,-0.22076416015625,0.0305633544921875
1751013488116139000,1.497138916015625,-0.968017578125,-0.222930908203125,0.030670166015625
1751013488126082800,1.507082763671875,-0.9721832275390625,-0.22283935546875,0.0318756103515625
1751013488136025900,1.51702587890625,-0.9779510498046875,-0.22265625,0.0319976806640625
1751013488145969000,1.526968994140625,-0.9793243408203125,-0.221923828125,0.0324249267578125
1751013488155913000,1.536912841796875,-0.9767608642578125,-0.2195281982421875,0.0319671630859375
1751013488165856000,1.54685595703125,-0.9760284423828125,-0.219512939453125,0.0316162109375
1751013488175798800,1.556798828125,-0.9791412353515625,-0.2211761474609375,0.032470703125
1751013488185742800,1.566742919921875,-0.980438232421875,-0.2227630615234375,0.0345001220703125
1751013488195686000,1.576685791015625,-0.9788360595703125,-0.2227630615234375,0.03118896484375
1751013488205630000,1.5866298828125,-0.9761505126953125,-0.22271728515625,0.0279693603515625
1751013488215572700,1.59657275390625,-0.97564697265625,-0.221221923828125,0.0273284912109375
1751013488225515800,1.606515869140625,-0.979827880859375,-0.219482421875,0.0290985107421875
1751013488235459800,1.6164599609375,-0.9840850830078125,-0.2189178466796875,0.03570556640625
1751013488245403000,1.62640283203125,-0.98028564453125,-0.218017578125,0.035675048828125
1751013488255346000,1.636345947265625,-0.979583740234375,-0.2129669189453125,0.0318450927734375
1751013488265290000,1.6462900390625,-0.983001708984375,-0.2100830078125,0.031585693359375
1751013488275232800,1.656232666015625,-0.9902496337890625,-0.213165283203125,0.03179931640625
1751013488285175800,1.66617578125,-0.99102783203125,-0.2153472900390625,0.031341552734375
1751013488295120100,1.6761201171875,-0.9922027587890625,-0.2154083251953125,0.029205322265625
1751013488305063000,1.68606298828125,-0.99237060546875,-0.21807861328125,0.029144287109375
1751013488315006000,1.696005859375,-0.9912567138671875,-0.222686767578125,0.0277099609375
1751013488324950000,1.705949951171875,-0.9918060302734375,-0.225830078125,0.0282135009765625
1751013488334893000,1.71589306640625,-0.9945068359375,-0.2269287109375,0.0304412841796875
1751013488344836000,1.725836181640625,-0.996307373046875,-0.2260894775390625,0.0306243896484375
1751013488354780000,1.73577978515625,-0.9969482421875,-0.224578857421875,0.031829833984375
1751013488364723000,1.745722900390625,-0.9989471435546875,-0.22308349609375,0.03076171875
1751013488374666000,1.755666015625,-1.000030517578125,-0.2206878662109375,0.0290985107421875
1751013488384610000,1.765610107421875,-0.9995574951171875,-0.21759033203125,0.0304412841796875
1751013488394553300,1.77555322265625,-0.997528076171875,-0.2181396484375,0.03009033203125
1751013488404496400,1.785496337890625,-0.9976348876953125,-0.21917724609375,0.0283660888671875
1751013488414440400,1.7954404296875,-0.9946136474609375,-0.218658447265625,0.028839111328125
1751013488424383500,1.805383544921875,-0.9888153076171875,-0.2183380126953125,0.0297393798828125
1751013488434326500,1.815326416015625,-0.98858642578125,-0.2187042236328125,0.0294189453125
1751013488444270300,1.825270263671875,-0.9923553466796875,-0.2208404541015625,0.027191162109375
1751013488454213400,1.83521337890625,-0.9957275390625,-0.224761962890625,0.02423095703125
1751013488464156400,1.845156494140625,-0.995819091796875,-0.229583740234375,0.0254669189453125
1751013488474100200,1.855100341796875,-0.9961395263671875,-0.22991943359375,0.03057861328125
1751013488484043300,1.865043212890625,-0.994537353515625,-0.2282257080078125,0.0363922119140625
1751013488493986300,1.874986328125,-0.9930877685546875,-0.225372314453125,0.040802001953125
1751013488503930400,1.884930419921875,-0.9894561767578125,-0.2226715087890625,0.03936767578125
1751013488513873400,1.894873291015625,-0.985076904296875,-0.221221923828125,0.0387725830078125
1751013488523816400,1.90481640625,-0.9824676513671875,-0.2218780517578125,0.038177490234375
1751013488533760500,1.914760498046875,-0.97808837890625,-0.22265625,0.036285400390625
1751013488543703600,1.92470361328125,-0.971710205078125,-0.222503662109375,0.0323486328125
1751013488553646600,1.934646484375,-0.9725189208984375,-0.2232818603515625,0.0281524658203125
1751013488563590400,1.94459033203125,-0.9792938232421875,-0.2231292724609375,0.0260009765625
1751013488573533400,1.954533447265625,-0.9883575439453125,-0.2224273681640625,0.028228759765625
1751013488583476500,1.9644765625,-0.9955596923828125,-0.220703125,0.0333099365234375
1751013488593420500,1.974420654296875,-0.9955902099609375,-0.2165985107421875,0.03759765625
1751013488603363600,1.984363525390625,-0.9912567138671875,-0.2129058837890625,0.0391693115234375
1751013488613306600,1.994306640625,-0.9932861328125,-0.2129058837890625,0.0392303466796875
1751013488623250400,2.00425048828125,-0.993011474609375,-0.211944580078125,0.038360595703125
1751013488633193500,2.014193359375,-0.985931396484375,-0.2113037109375,0.0355072021484375
1751013488643136500,2.024136474609375,-0.981903076171875,-0.210906982421875,0.0355377197265625
1751013488653080600,2.03408056640625,-0.9835357666015625,-0.2119598388671875,0.0352325439453125
1751013488663023400,2.0440234375,-0.9874267578125,-0.212158203125,0.0360870361328125
1751013488672966400,2.05396630859375,-0.9904327392578125,-0.213287353515625,0.03485107421875
1751013488682910500,2.063910400390625,-0.9961700439453125,-0.2120208740234375,0.0311737060546875
1751013488692853500,2.073853515625,-0.9991302490234375,-0.21142578125,0.0298004150390625
1751013488702796500,2.083796630859375,-0.9984130859375,-0.211181640625,0.0283660888671875
1751013488712740400,2.093740234375,-0.9917449951171875,-0.21173095703125,0.0233917236328125
1751013488722683400,2.103683349609375,-0.9859466552734375,-0.2122039794921875,0.02044677734375
1751013488732626400,2.11362646484375,-0.98486328125,-0.2117156982421875,0.0223846435546875
1751013488742570500,2.123570556640625,-0.9862060546875,-0.2109527587890625,0.025604248046875
1751013488752513500,2.133513427734375,-0.9854583740234375,-0.2110443115234375,0.0287933349609375
1751013488762456300,2.143456298828125,-0.9870147705078125,-0.210906982421875,0.0296783447265625
1751013488772400400,2.153400390625,-0.9884490966796875,-0.20867919921875,0.029937744140625
1751013488782343400,2.163343505859375,-0.9902191162109375,-0.20989990234375,0.0285186767578125
1751013488792287200,2.173287353515625,-0.9921112060546875,-0.2112884521484375,0.0279541015625
1751013488802230300,2.183230224609375,-0.99066162109375,-0.210235595703125,0.02874755859375
1751013488812173300,2.19317333984375,-0.9818572998046875,-0.20916748046875,0.027801513671875
1751013488822117400,2.203117431640625,-0.9829864501953125,-0.2083282470703125,0.0308990478515625
1751013488832060400,2.213060302734375,-0.992034912109375,-0.207672119140625,0.03466796875
1751013488842003500,2.22300341796875,-0.996978759765625,-0.2069091796875,0.0345306396484375
1751013488851947500,2.232947509765625,-0.9997100830078125,-0.2052764892578125,0.030120849609375
1751013488861890600,2.242890625,-1.000732421875,-0.205322265625,0.025909423828125
1751013488871833600,2.25283349609375,-0.99957275390625,-0.206451416015625,0.0228271484375
1751013488881777400,2.26277734375,-0.9983978271484375,-0.2075347900390625,0.0211639404296875
1751013488891720400,2.272720458984375,-0.9978485107421875,-0.2076568603515625,0.023284912109375
1751013488901663500,2.28266357421875,-0.999481201171875,-0.207305908203125,0.0265960693359375
1751013488911607600,2.292607666015625,-0.99755859375,-0.20806884765625,0.027191162109375
1751013488921550600,2.302550537109375,-0.993438720703125,-0.2079315185546875,0.0275115966796875
1751013488931493600,2.31249365234375,-0.990997314453125,-0.2075653076171875,0.02978515625
1751013488941437400,2.3224375,-0.990478515625,-0.2065887451171875,0.0345916748046875
1751013488951380500,2.33238037109375,-0.993133544921875,-0.206268310546875,0.0358123779296875
1751013488961323500,2.342323486328125,-0.9945526123046875,-0.205291748046875,0.034332275390625
1751013488971267600,2.352267578125,-0.99688720703125,-0.20159912109375,0.0318603515625
1751013488981210400,2.36221044921875,-1.00164794921875,-0.1996917724609375,0.0301666259765625
1751013488991153400,2.3721533203125,-1.003692626953125,-0.1990509033203125,0.0295562744140625
1751013489001097500,2.382097412109375,-1.0042877197265625,-0.198272705078125,0.0322265625
1751013489011040500,2.39204052734375,-1.0006561279296875,-0.195068359375,0.037353515625
1751013489020983600,2.401983642578125,-0.99298095703125,-0.1925201416015625,0.039520263671875
1751013489030927400,2.41192724609375,-0.985504150390625,-0.19390869140625,0.0373382568359375
1751013489040870400,2.421870361328125,-0.9825286865234375,-0.1978759765625,0.034454345703125
1751013489050813400,2.4318134765625,-0.9856719970703125,-0.2023773193359375,0.034820556640625
1751013489060757500,2.441757568359375,-0.9881591796875,-0.2053070068359375,0.038238525390625
1751013489070700300,2.4517001953125,-0.9884490966796875,-0.20672607421875,0.0408172607421875
1751013489080643300,2.461643310546875,-0.987457275390625,-0.2055511474609375,0.040008544921875
1751013489090587400,2.47158740234375,-0.986724853515625,-0.2064361572265625,0.0397796630859375
1751013489100530400,2.481530517578125,-0.988616943359375,-0.20977783203125,0.0406951904296875
1751013489110473500,2.491473388671875,-0.9889678955078125,-0.2096710205078125,0.044921875
1751013489120417300,2.501417236328125,-0.9860076904296875,-0.2071990966796875,0.0447540283203125
1751013489130360300,2.5113603515625,-0.98193359375,-0.2047576904296875,0.0439605712890625
1751013489140304600,2.5213046875,-0.98321533203125,-0.2055511474609375,0.0435638427734375
1751013489150247400,2.531247314453125,-0.987640380859375,-0.2081756591796875,0.0428466796875
1751013489160190500,2.5411904296875,-0.988128662109375,-0.20709228515625,0.0433197021484375
1751013489170134500,2.551134521484375,-0.991424560546875,-0.20660400390625,0.0434112548828125
1751013489180077600,2.56107763671875,-0.9937744140625,-0.20703125,0.0436859130859375
1751013489190020600,2.5710205078125,-0.9963226318359375,-0.2052764892578125,0.0436553955078125
1751013489199964400,2.58096435546875,-1.0036163330078125,-0.205230712890625,0.042572021484375
1751013489209907500,2.590907470703125,-1.009368896484375,-0.20733642578125,0.041656494140625
1751013489219850500,2.6008505859375,-1.0091094970703125,-0.206634521484375,0.0413970947265625
1751013489229794600,2.610794677734375,-1.0058746337890625,-0.2065277099609375,0.043609619140625
1751013489239737600,2.620737548828125,-0.999786376953125,-0.2071380615234375,0.0435638427734375
1751013489249680600,2.6306806640625,-0.988983154296875,-0.2082672119140625,0.041534423828125
1751013489259624400,2.64062451171875,-0.9788970947265625,-0.20880126953125,0.0399017333984375
1751013489269567500,2.6505673828125,-0.9720916748046875,-0.2094268798828125,0.0403289794921875
1751013489279510500,2.660510498046875,-0.97186279296875,-0.2108917236328125,0.04010009765625
1751013489289454300,2.670454345703125,-0.9775238037109375,-0.2109527587890625,0.0426483154296875
1751013489299397400,2.6803974609375,-0.9851226806640625,-0.208953857421875,0.0429229736328125
1751013489309340400,2.69034033203125,-0.9882659912109375,-0.2064056396484375,0.0445709228515625
1751013489319284500,2.700284423828125,-0.98974609375,-0.203643798828125,0.0453643798828125
1751013489329227500,2.7102275390625,-0.9924774169921875,-0.19854736328125,0.043853759765625
1751013489339170600,2.720170654296875,-0.9921722412109375,-0.19708251953125,0.0416259765625
1751013489349114400,2.7301142578125,-0.9944915771484375,-0.1976318359375,0.04168701171875
1751013489359057400,2.740057373046875,-0.999481201171875,-0.1978912353515625,0.0413360595703125
1751013489369000400,2.75000048828125,-0.9988555908203125,-0.1982879638671875,0.041229248046875
1751013489378944500,2.759944580078125,-0.997528076171875,-0.197845458984375,0.0420989990234375
1751013489388887300,2.76988720703125,-0.9982452392578125,-0.2010650634765625,0.04278564453125
1751013489398830000,2.779830078125,-0.99493408203125,-0.2028350830078125,0.043426513671875
1751013489408774100,2.789774169921875,-0.9891357421875,-0.2030792236328125,0.04486083984375
1751013489418717200,2.79971728515625,-0.987945556640625,-0.2024993896484375,0.045379638671875
1751013489428660200,2.80966015625,-0.991546630859375,-0.2038116455078125,0.0481414794921875
1751013489438604000,2.81960400390625,-0.9933624267578125,-0.2052764892578125,0.049591064453125
1751013489448547000,2.829547119140625,-0.993072509765625,-0.2057952880859375,0.0508270263671875
1751013489458490000,2.839489990234375,-0.9933929443359375,-0.20367431640625,0.04986572265625
1751013489468434200,2.84943408203125,-0.9930572509765625,-0.205352783203125,0.0503692626953125
1751013489478377200,2.859377197265625,-0.9922332763671875,-0.2075347900390625,0.0503387451171875
1751013489488321000,2.869321044921875,-0.99090576171875,-0.20672607421875,0.0501556396484375
1751013489498264000,2.87926416015625,-0.9886322021484375,-0.20440673828125,0.04925537109375
1751013489508207000,2.88920703125,-0.9890899658203125,-0.203765869140625,0.048858642578125
1751013489518151200,2.899151123046875,-0.9893341064453125,-0.2039337158203125,0.048187255859375
1751013489528094000,2.909093994140625,-0.991485595703125,-0.2032318115234375,0.0461273193359375
1751013489538037000,2.919037109375,-0.9959869384765625,-0.20343017578125,0.0444488525390625
1751013489547981000,2.92898095703125,-1.0004119873046875,-0.2033843994140625,0.0460205078125
1751013489557924000,2.938924072265625,-1.0046539306640625,-0.2056732177734375,0.0469207763671875
1751013489567867100,2.9488671875,-1.007568359375,-0.204376220703125,0.0450897216796875
1751013489577811000,2.95881103515625,-1.006805419921875,-0.2046661376953125,0.044464111328125
1751013489587754000,2.96875390625,-1.0043182373046875,-0.204315185546875,0.0475616455078125
1751013489597697000,2.978697021484375,-1.0018463134765625,-0.201202392578125,0.0472259521484375
1751013489607641000,2.98864111328125,-0.997344970703125,-0.2008819580078125,0.046722412109375
1751013489617583900,2.998583984375,-0.99371337890625,-0.2024688720703125,0.045928955078125
1751013489627527000,3.00852685546875,-0.989593505859375,-0.2040557861328125,0.0469818115234375
1751013489637471000,3.018470947265625,-0.9887237548828125,-0.2041473388671875,0.0479583740234375
1751013489647414000,3.0284140625,-0.9928741455078125,-0.2045135498046875,0.04913330078125
1751013489657357000,3.038357177734375,-0.9972686767578125,-0.2044219970703125,0.0488739013671875
1751013489667301000,3.048301025390625,-0.998870849609375,-0.203765869140625,0.051025390625
1751013489677244200,3.058244140625,-0.9955596923828125,-0.2034912109375,0.054412841796875
1751013489687187000,3.06818701171875,-0.989013671875,-0.20538330078125,0.0536956787109375
1751013489697131300,3.07813134765625,-0.9885406494140625,-0.20458984375,0.0534210205078125
1751013489707074000,3.088073974609375,-0.9903717041015625,-0.2049560546875,0.0523681640625
1751013489717017000,3.09801708984375,-0.992584228515625,-0.2073516845703125,0.05267333984375
1751013489726961200,3.107961181640625,-0.9934234619140625,-0.2095794677734375,0.053680419921875
1751013489736904200,3.117904296875,-0.9908599853515625,-0.2087554931640625,0.0544586181640625
1751013489746847200,3.12784716796875,-0.989715576171875,-0.2057037353515625,0.05328369140625
1751013489756791000,3.137791015625,-0.991180419921875,-0.204498291015625,0.053131103515625
1751013489766734000,3.147734130859375,-0.9925384521484375,-0.2059783935546875,0.0513763427734375
1751013489776678100,3.15767822265625,-0.99267578125,-0.2032928466796875,0.050201416015625
1751013489786621200,3.16762109375,-0.9910125732421875,-0.201385498046875,0.05169677734375
1751013489796564200,3.177564208984375,-0.9923095703125,-0.199554443359375,0.052490234375
1751013489806508000,3.187508056640625,-0.9912567138671875,-0.200897216796875,0.0534210205078125
1751013489816451000,3.197451171875,-0.98797607421875,-0.2028656005859375,0.0548553466796875
1751013489826394000,3.20739404296875,-0.98260498046875,-0.2037811279296875,0.0569610595703125
1751013489836338000,3.217337890625,-0.98040771484375,-0.203338623046875,0.05950927734375
1751013489846281000,3.227281005859375,-0.9797821044921875,-0.20440673828125,0.057403564453125
1751013489856224000,3.23722412109375,-0.9792938232421875,-0.2064056396484375,0.05364990234375
1751013489866168000,3.24716796875,-0.982177734375,-0.207305908203125,0.0525665283203125
1751013489876111000,3.257111083984375,-0.9856109619140625,-0.2070159912109375,0.0559539794921875
1751013489886054100,3.26705419921875,-0.985504150390625,-0.21002197265625,0.0528717041015625
1751013489895998000,3.276998046875,-0.9837646484375,-0.2113800048828125,0.048614501953125
1751013489905941000,3.28694091796875,-0.983642578125,-0.2122802734375,0.0467529296875
1751013489915884000,3.296884033203125,-0.98358154296875,-0.212493896484375,0.043975830078125
1751013489925828000,3.306828125,-0.9863739013671875,-0.2120819091796875,0.0428009033203125
1751013489935771000,3.31677099609375,-0.9915618896484375,-0.2123565673828125,0.0462493896484375
1751013489945714000,3.3267138671875,-0.9908294677734375,-0.21185302734375,0.046142578125
1751013489955658000,3.336657958984375,-0.991851806640625,-0.2084808349609375,0.0446624755859375
1751013489965601000,3.34660107421875,-0.9969940185546875,-0.2080230712890625,0.04443359375
1751013489975544000,3.3565439453125,-0.997314453125,-0.210357666015625,0.0431976318359375
1751013489985488100,3.366488037109375,-0.990478515625,-0.21026611328125,0.0430908203125
1751013489995431200,3.37643115234375,-0.98687744140625,-0.2092437744140625,0.0400848388671875
1751013490005374000,3.3863740234375,-0.9923248291015625,-0.2082061767578125,0.0408782958984375
1751013490015318300,3.396318359375,-0.995941162109375,-0.2097930908203125,0.0429229736328125
1751013490025261000,3.406260986328125,-0.9933319091796875,-0.2108306884765625,0.0439300537109375
1751013490035205000,3.416205078125,-0.9912109375,-0.2099609375,0.0462646484375
1751013490045148200,3.426148193359375,-0.990081787109375,-0.208526611328125,0.0468902587890625
1751013490055091200,3.43609130859375,-0.9886016845703125,-0.2069549560546875,0.0477294921875
1751013490065035000,3.446034912109375,-0.9843597412109375,-0.20782470703125,0.0482025146484375
1751013490074978000,3.45597802734375,-0.98028564453125,-0.2108612060546875,0.04779052734375
1751013490084921000,3.465921142578125,-0.977294921875,-0.20989990234375,0.0471954345703125
1751013490094865200,3.475865234375,-0.978179931640625,-0.210601806640625,0.0486297607421875
1751013490104808200,3.48580810546875,-0.98114013671875,-0.2117767333984375,0.04998779296875
1751013490114751000,3.4957509765625,-0.9832916259765625,-0.213043212890625,0.050384521484375
1751013490124695000,3.505695068359375,-0.9867401123046875,-0.2119293212890625,0.0507049560546875
1751013490134638000,3.51563818359375,-0.9919586181640625,-0.2103271484375,0.049285888671875
1751013490144581000,3.5255810546875,-0.9968109130859375,-0.2109832763671875,0.048187255859375
1751013490154525000,3.53552490234375,-1.0011138916015625,-0.210296630859375,0.0473175048828125
1751013490164468000,3.545468017578125,-1.0001983642578125,-0.2082672119140625,0.04693603515625
1751013490174411000,3.555410888671875,-0.9985504150390625,-0.2079620361328125,0.0461883544921875
1751013490184355000,3.56535498046875,-0.99481201171875,-0.2088165283203125,0.0463714599609375
1751013490194298000,3.575298095703125,-0.9943084716796875,-0.2101287841796875,0.050201416015625
1751013490204242000,3.585241943359375,-0.994049072265625,-0.2103118896484375,0.052459716796875
1751013490214185000,3.59518505859375,-0.9932861328125,-0.2099761962890625,0.05352783203125
1751013490224128000,3.6051279296875,-0.9943389892578125,-0.211090087890625,0.0550994873046875
1751013490234072000,3.615072021484375,-0.997344970703125,-0.212066650390625,0.0556640625
1751013490244015000,3.62501513671875,-0.9991455078125,-0.215728759765625,0.055328369140625
1751013490253958000,3.6349580078125,-1.000457763671875,-0.2183990478515625,0.051910400390625
1751013490263902200,3.644902099609375,-0.9981689453125,-0.2200775146484375,0.04632568359375
1751013490273845000,3.654844970703125,-0.9921722412109375,-0.220794677734375,0.0428924560546875
1751013490283788000,3.6647880859375,-0.98980712890625,-0.2218017578125,0.040008544921875
1751013490293732000,3.674732177734375,-0.9895782470703125,-0.22149658203125,0.03955078125
1751013490303675100,3.684675048828125,-0.9892425537109375,-0.21826171875,0.041259765625
1751013490313618200,3.6946181640625,-0.984649658203125,-0.215057373046875,0.0424346923828125
1751013490323562200,3.704562255859375,-0.985107421875,-0.2124176025390625,0.0449981689453125
1751013490333505300,3.71450537109375,-0.9864654541015625,-0.21044921875,0.0461578369140625
1751013490343448000,3.724447998046875,-0.9879302978515625,-0.209442138671875,0.04705810546875
1751013490353392000,3.73439208984375,-0.9876251220703125,-0.210968017578125,0.048492431640625
1751013490363335200,3.744335205078125,-0.987152099609375,-0.2110137939453125,0.0487213134765625
1751013490373278200,3.7542783203125,-0.9864654541015625,-0.2113189697265625,0.0485687255859375
1751013490383222000,3.764221923828125,-0.9857025146484375,-0.21185302734375,0.0472412109375
1751013490393165000,3.7741650390625,-0.982177734375,-0.212738037109375,0.045684814453125
1751013490403112400,3.784112548828125,-0.9805908203125,-0.2134857177734375,0.044158935546875
1751013490413056300,3.79405615234375,-0.984588623046875,-0.2116241455078125,0.0430755615234375
1751013490422999300,3.803999267578125,-0.988861083984375,-0.210845947265625,0.047821044921875
1751013490432943400,3.813943359375,-0.98895263671875,-0.212371826171875,0.0518798828125
1751013490442886400,3.823886474609375,-0.9886016845703125,-0.21112060546875,0.0512542724609375
1751013490452829400,3.833829345703125,-0.9882049560546875,-0.2082061767578125,0.0524749755859375
1751013490462773200,3.843773193359375,-0.9871978759765625,-0.20770263671875,0.05474853515625
1751013490472716300,3.85371630859375,-0.9874420166015625,-0.20758056640625,0.05517578125
1751013490482659300,3.863659423828125,-0.985748291015625,-0.2061920166015625,0.0532073974609375
1751013490492603400,3.873603271484375,-0.984161376953125,-0.206756591796875,0.0523223876953125
1751013490502546400,3.88354638671875,-0.9855499267578125,-0.2065582275390625,0.05426025390625
1751013490512489200,3.8934892578125,-0.983551025390625,-0.2069854736328125,0.055877685546875
1751013490522433500,3.90343359375,-0.98175048828125,-0.2074737548828125,0.05743408203125
1751013490532376300,3.913376220703125,-0.98040771484375,-0.207763671875,0.0566253662109375
1751013490542319400,3.9233193359375,-0.978546142578125,-0.2093963623046875,0.0557708740234375
1751013490552263400,3.933263427734375,-0.9774322509765625,-0.2116546630859375,0.0558624267578125
1751013490562206500,3.94320654296875,-0.97491455078125,-0.2146148681640625,0.0563812255859375
1751013490572149500,3.9531494140625,-0.9763946533203125,-0.2176971435546875,0.0572357177734375
1751013490582093600,3.963093505859375,-0.983001708984375,-0.217529296875,0.05987548828125
1751013490592036600,3.97303662109375,-0.9896240234375,-0.2161712646484375,0.063446044921875
1751013490601979400,3.9829794921875,-0.9921875,-0.21502685546875,0.0662078857421875
1751013490611923500,3.99292333984375,-0.9917449951171875,-0.21429443359375,0.066986083984375
1751013490621866500,4.002866455078125,-0.9935302734375,-0.2132720947265625,0.0641937255859375
1751013490631810300,4.012810302734375,-0.9915771484375,-0.214019775390625,0.0599822998046875
1751013490641753300,4.02275341796875,-0.9917449951171875,-0.214691162109375,0.0570220947265625
1751013490651696400,4.0326962890625,-0.99420166015625,-0.213714599609375,0.0541534423828125
1751013490661640400,4.042640380859375,-0.9986724853515625,-0.21484375,0.0549468994140625
1751013490671583500,4.05258349609375,-1.0050048828125,-0.2136383056640625,0.0579376220703125
1751013490681526500,4.062526611328125,-1.0130462646484375,-0.2111358642578125,0.0578765869140625
1751013490691470300,4.07247021484375,-1.0110626220703125,-0.2108001708984375,0.0572509765625
1751013490701413400,4.082413330078125,-1.0082550048828125,-0.208709716796875,0.0568389892578125
1751013490711356400,4.0923564453125,-1.0059356689453125,-0.206146240234375,0.059234619140625
1751013490721300500,4.102300537109375,-1.00238037109375,-0.2058868408203125,0.06024169921875
1751013490731243300,4.1122431640625,-0.9990692138671875,-0.2068634033203125,0.0574188232421875
1751013490741186300,4.122186279296875,-0.994140625,-0.2066802978515625,0.05645751953125
1751013490751130400,4.13213037109375,-0.9906005859375,-0.2082061767578125,0.0561370849609375
1751013490761073400,4.142073486328125,-0.9885406494140625,-0.2099456787109375,0.0549774169921875
1751013490771016400,4.152016357421875,-0.9845123291015625,-0.2104644775390625,0.0544891357421875
1751013490780960300,4.161960205078125,-0.9794158935546875,-0.2122802734375,0.054595947265625
1751013490790903300,4.1719033203125,-0.976226806640625,-0.212066650390625,0.05462646484375
1751013490800846300,4.181846435546875,-0.976226806640625,-0.2102508544921875,0.055694580078125
1751013490810790400,4.191790283203125,-0.9754638671875,-0.2100830078125,0.056671142578125
1751013490820733200,4.201733154296875,-0.977813720703125,-0.20855712890625,0.0587005615234375
1751013490830677500,4.211677490234375,-0.98095703125,-0.206573486328125,0.0614166259765625
1751013490840620500,4.22162060546875,-0.9823150634765625,-0.20501708984375,0.0609893798828125
1751013490850563300,4.231563232421875,-0.98541259765625,-0.20556640625,0.062835693359375
1751013490860507400,4.24150732421875,-0.985321044921875,-0.20611572265625,0.06341552734375
1751013490870450400,4.251450439453125,-0.981964111328125,-0.2058258056640625,0.0629425048828125
1751013490880393500,4.2613935546875,-0.98187255859375,-0.2056732177734375,0.0610198974609375
1751013490890337500,4.271337646484375,-0.984954833984375,-0.2068634033203125,0.059417724609375
1751013490900280600,4.281280517578125,-0.990966796875,-0.2068328857421875,0.0597381591796875
1751013490910223400,4.291223388671875,-0.9987945556640625,-0.2074737548828125,0.0587310791015625
1751013490920167400,4.30116748046875,-1.0002899169921875,-0.2085723876953125,0.0564117431640625
1751013490930110500,4.3111103515625,-0.9982757568359375,-0.2089080810546875,0.0576934814453125
1751013490940053500,4.321053466796875,-0.994659423828125,-0.2089385986328125,0.0594329833984375
1751013490949997300,4.330997314453125,-0.99371337890625,-0.2089996337890625,0.058074951171875
1751013490959940400,4.3409404296875,-0.9924163818359375,-0.2112274169921875,0.0574951171875
1751013490969883400,4.35088330078125,-0.99005126953125,-0.2111053466796875,0.0571136474609375
1751013490979827500,4.360827392578125,-0.9902191162109375,-0.2099609375,0.0570220947265625
1751013490989770500,4.3707705078125,-0.9933929443359375,-0.2090301513671875,0.05841064453125
1751013490999714300,4.38071435546875,-0.9953155517578125,-0.2090301513671875,0.05712890625
1751013491009657300,4.3906572265625,-0.9943695068359375,-0.2086334228515625,0.0546417236328125
1751013491019600400,4.400600341796875,-0.9952392578125,-0.20648193359375,0.0527801513671875
1751013491029544400,4.41054443359375,-0.9957122802734375,-0.2061309814453125,0.0499420166015625
1751013491039487500,4.420487548828125,-0.995513916015625,-0.2063446044921875,0.04693603515625
1751013491049430300,4.43043017578125,-0.9935302734375,-0.207275390625,0.046295166015625
1751013491059374300,4.440374267578125,-0.99395751953125,-0.207977294921875,0.0447235107421875
1751013491069317400,4.4503173828125,-0.9948883056640625,-0.208740234375,0.0446624755859375
1751013491079260400,4.460260498046875,-0.994140625,-0.2063446044921875,0.0431671142578125
1751013491089204200,4.470204345703125,-0.9984588623046875,-0.20367431640625,0.043212890625
1751013491099147300,4.480147216796875,-1.0032958984375,-0.2030181884765625,0.044342041015625
1751013491109090300,4.49009033203125,-1.001617431640625,-0.202667236328125,0.04339599609375
1751013491119034400,4.500034423828125,-0.996612548828125,-0.20166015625,0.0443267822265625
1751013491128977400,4.509977294921875,-0.9942474365234375,-0.20166015625,0.04840087890625
1751013491138920200,4.519920166015625,-0.99395751953125,-0.201690673828125,0.04901123046875
1751013491148864500,4.529864501953125,-0.991302490234375,-0.202545166015625,0.0495758056640625
1751013491158807600,4.5398076171875,-0.99041748046875,-0.20404052734375,0.051116943359375
1751013491168751400,4.54975146484375,-0.993865966796875,-0.202392578125,0.0515899658203125
1751013491178694400,4.5596943359375,-0.9981689453125,-0.2005767822265625,0.0567779541015625
1751013491188637400,4.569637451171875,-0.99566650390625,-0.2039031982421875,0.058441162109375
1751013491198581500,4.57958154296875,-0.988067626953125,-0.2028961181640625,0.0561065673828125
1751013491208524500,4.589524658203125,-0.9857635498046875,-0.1999359130859375,0.0543975830078125
1751013491218467600,4.599467529296875,-0.98809814453125,-0.199676513671875,0.0544891357421875
1751013491228411400,4.609411376953125,-0.989410400390625,-0.2003173828125,0.0542144775390625
1751013491238354400,4.6193544921875,-0.990325927734375,-0.2003173828125,0.0559539794921875
1751013491248297500,4.62929736328125,-0.98712158203125,-0.202484130859375,0.05584716796875
1751013491258241500,4.639241455078125,-0.9855194091796875,-0.2039337158203125,0.054931640625
1751013491268184300,4.649184326171875,-0.986480712890625,-0.2037811279296875,0.0538330078125
1751013491278127400,4.65912744140625,-0.9863739013671875,-0.20391845703125,0.0527191162109375
1751013491288071400,4.669071533203125,-0.9844818115234375,-0.2050628662109375,0.0525665283203125
1751013491298014500,4.679014404296875,-0.984771728515625,-0.2056121826171875,0.055511474609375
1751013491307957500,4.68895751953125,-0.98681640625,-0.2059326171875,0.05694580078125
1751013491317901300,4.6989013671875,-0.987213134765625,-0.2049560546875,0.0590667724609375
1751013491327844400,4.70884423828125,-0.98968505859375,-0.2041015625,0.0567169189453125
1751013491337788400,4.718788330078125,-0.9913482666015625,-0.2037506103515625,0.058746337890625
1751013491347731500,4.7287314453125,-0.9941558837890625,-0.2016448974609375,0.0609130859375
1751013491357674200,4.73867431640625,-0.9967193603515625,-0.200347900390625,0.06036376953125
1751013491367618300,4.748618408203125,-0.99603271484375,-0.2017822265625,0.061004638671875
1751013491377561300,4.758561279296875,-0.9952239990234375,-0.20404052734375,0.059234619140625
1751013491387504400,4.76850439453125,-0.9973907470703125,-0.2093048095703125,0.0630645751953125
1751013491397448000,4.778447998046875,-0.996612548828125,-0.2091522216796875,0.06390380859375
1751013491407390700,4.788390625,-0.998077392578125,-0.2072296142578125,0.0627593994140625
1751013491417333800,4.798333740234375,-1.0039215087890625,-0.212493896484375,0.06024169921875
1751013491427277800,4.80827783203125,-0.9907379150390625,-0.210906982421875,0.0597381591796875
1751013491437220900,4.818220947265625,-0.990692138671875,-0.2102203369140625,0.0652923583984375
1751013491447165000,4.8281650390625,-0.992706298828125,-0.2114715576171875,0.0635223388671875
1751013491457108000,4.83810791015625,-0.9899749755859375,-0.2137451171875,0.0611724853515625
1751013491467050800,4.84805078125,-0.989837646484375,-0.2132110595703125,0.06134033203125
1751013491476995000,4.8579951171875,-0.991363525390625,-0.2137603759765625,0.0647735595703125
1751013491486938000,4.867938232421875,-0.992767333984375,-0.21197509765625,0.0654449462890625
1751013491496881000,4.877880859375,-0.98760986328125,-0.2119293212890625,0.0643463134765625
1751013491506825000,4.887824951171875,-0.9888916015625,-0.2142486572265625,0.0631866455078125
1751013491516768000,4.89776806640625,-0.9918365478515625,-0.214874267578125,0.0613861083984375
1751013491526711000,4.9077109375,-0.992462158203125,-0.21502685546875,0.0604095458984375
1751013491536654800,4.91765478515625,-0.989288330078125,-0.2141876220703125,0.0600128173828125
1751013491546598000,4.927597900390625,-0.9895477294921875,-0.21221923828125,0.061004638671875
1751013491556541000,4.937541015625,-0.991180419921875,-0.2135162353515625,0.0625762939453125
1751013491566485000,4.947485107421875,-0.991485595703125,-0.2134857177734375,0.0641632080078125
1751013491576428000,4.957427978515625,-0.992767333984375,-0.21282958984375,0.0651092529296875
1751013491586371000,4.96737109375,-0.9930267333984375,-0.210052490234375,0.064727783203125
1751013491596315000,4.97731494140625,-0.991546630859375,-0.2099609375,0.059539794921875
1751013491606258000,4.9872578125,-0.9893798828125,-0.2138671875,0.054840087890625
1751013491616202000,4.997201904296875,-0.9846343994140625,-0.2169036865234375,0.0526885986328125
1751013491626144800,5.007144775390625,-0.9839019775390625,-0.2173309326171875,0.04986572265625
1751013491636087800,5.017087890625,-0.9862060546875,-0.2198944091796875,0.0477752685546875
1751013491646032000,5.027031982421875,-0.9909515380859375,-0.222503662109375,0.047760009765625
1751013491655975000,5.036974853515625,-0.9922332763671875,-0.2179107666015625,0.0508270263671875
1751013491665918000,5.04691796875,-0.99005126953125,-0.2125396728515625,0.0525054931640625
1751013491675861800,5.05686181640625,-0.9870147705078125,-0.2130279541015625,0.0513763427734375
1751013491685804800,5.0668046875,-0.9861297607421875,-0.2143707275390625,0.050689697265625
1751013491695747800,5.076747802734375,-0.98779296875,-0.216156005859375,0.0498199462890625
1751013491705692000,5.08669189453125,-0.987396240234375,-0.2192230224609375,0.0479278564453125
1751013491715635000,5.096635009765625,-0.98480224609375,-0.2212066650390625,0.0465545654296875
1751013491725577700,5.10657763671875,-0.981475830078125,-0.2214508056640625,0.0465850830078125
1751013491735521800,5.116521728515625,-0.9785003662109375,-0.221343994140625,0.0467376708984375
1751013491745464800,5.12646484375,-0.9808807373046875,-0.21990966796875,0.049163818359375
1751013491755409000,5.136408935546875,-0.9865264892578125,-0.216552734375,0.051666259765625
1751013491765352000,5.14635205078125,-0.9889678955078125,-0.213836669921875,0.0529632568359375
1751013491775295000,5.156294921875,-0.987823486328125,-0.2105255126953125,0.0530242919921875
1751013491785239000,5.166239013671875,-0.9909210205078125,-0.20953369140625,0.0550537109375
1751013491795182000,5.17618212890625,-0.9943389892578125,-0.2098236083984375,0.0550537109375
1751013491805125000,5.186125,-0.9932403564453125,-0.210662841796875,0.0527191162109375
1751013491815069000,5.19606884765625,-0.9899749755859375,-0.2096099853515625,0.0519256591796875
1751013491825012000,5.206011962890625,-0.9837799072265625,-0.210723876953125,0.0517120361328125
1751013491834955000,5.215955078125,-0.979217529296875,-0.214630126953125,0.0508880615234375
1751013491844898800,5.22589892578125,-0.980133056640625,-0.21881103515625,0.0465087890625
1751013491854841900,5.235841796875,-0.9811248779296875,-0.223419189453125,0.0430450439453125
1751013491864786000,5.245785888671875,-0.9816131591796875,-0.225189208984375,0.041748046875
1751013491874729000,5.25572900390625,-0.985504150390625,-0.22406005859375,0.045501708984375
1751013491884672000,5.265672119140625,-0.9913330078125,-0.2196807861328125,0.050506591796875
1751013491894615800,5.27561572265625,-0.9984893798828125,-0.21563720703125,0.0529022216796875
1751013491904558800,5.285558837890625,-1.0008392333984375,-0.2124176025390625,0.0538330078125
1751013491914502000,5.295501953125,-0.999603271484375,-0.2093048095703125,0.0531768798828125
1751013491924446000,5.305446044921875,-0.9951324462890625,-0.2086029052734375,0.0483245849609375
1751013491934389000,5.315388916015625,-0.9899139404296875,-0.210479736328125,0.0485076904296875
1751013491944331800,5.325331787109375,-0.9857635498046875,-0.2118072509765625,0.050201416015625
1751013491954275800,5.33527587890625,-0.9853973388671875,-0.21514892578125,0.0532684326171875
1751013491964219000,5.345218994140625,-0.9835968017578125,-0.2176971435546875,0.0533905029296875
1751013491974162000,5.355161865234375,-0.985076904296875,-0.218963623046875,0.052978515625
1751013491984105700,5.365105712890625,-0.988616943359375,-0.2190399169921875,0.052459716796875
1751013491994048800,5.375048828125,-0.99169921875,-0.2167510986328125,0.05126953125
1751013492003991800,5.38499169921875,-0.9902191162109375,-0.2143402099609375,0.052032470703125
1751013492013935900,5.394935791015625,-0.9869232177734375,-0.213714599609375,0.05364990234375
1751013492023879000,5.40487890625,-0.983184814453125,-0.2130126953125,0.052154541015625
1751013492033823000,5.414822998046875,-0.9812164306640625,-0.212066650390625,0.04925537109375
1751013492043766000,5.42476611328125,-0.984222412109375,-0.2133636474609375,0.049560546875
1751013492053708800,5.434708740234375,-0.9866943359375,-0.215118408203125,0.050018310546875
1751013492063653000,5.444653076171875,-0.984527587890625,-0.2158355712890625,0.0491180419921875
1751013492073596000,5.454595947265625,-0.9857177734375,-0.2152252197265625,0.0491790771484375
1751013492083539000,5.4645390625,-0.9860992431640625,-0.217071533203125,0.047271728515625
1751013492093483000,5.47448291015625,-0.9860687255859375,-0.2189483642578125,0.04693603515625
1751013492103426000,5.484426025390625,-0.9880828857421875,-0.220306396484375,0.04742431640625
1751013492113369000,5.494369140625,-0.9914093017578125,-0.2189483642578125,0.0493927001953125
1751013492123313000,5.50431298828125,-0.995208740234375,-0.21734619140625,0.0498504638671875
1751013492133256000,5.514255859375,-0.9933319091796875,-0.2176513671875,0.051605224609375
1751013492143200000,5.524199951171875,-0.9909820556640625,-0.2154693603515625,0.0507965087890625
1751013492153143000,5.53414306640625,-0.98822021484375,-0.2140045166015625,0.0495452880859375
1751013492163085800,5.5440859375,-0.9837493896484375,-0.212738037109375,0.04876708984375
1751013492173030000,5.55402978515625,-0.986541748046875,-0.212066650390625,0.04949951171875
1751013492182973000,5.563972900390625,-0.99017333984375,-0.21307373046875,0.0516357421875
1751013492192916000,5.573916015625,-0.9934844970703125,-0.213592529296875,0.0529937744140625
1751013492202859800,5.58385986328125,-0.99371337890625,-0.2143707275390625,0.0541839599609375
1751013492212802800,5.593802734375,-0.993011474609375,-0.2138214111328125,0.05291748046875
1751013492222745900,5.603745849609375,-0.989959716796875,-0.2147064208984375,0.0517425537109375
1751013492232690000,5.61368994140625,-0.98516845703125,-0.2137298583984375,0.0510711669921875
1751013492242633000,5.623633056640625,-0.984344482421875,-0.2126922607421875,0.05169677734375
1751013492252576800,5.63357666015625,-0.9857330322265625,-0.21331787109375,0.0533447265625
1751013492262519800,5.643519775390625,-0.9859771728515625,-0.212738037109375,0.0558929443359375
1751013492272462800,5.653462890625,-0.985198974609375,-0.2128143310546875,0.055755615234375
1751013492282407000,5.663406982421875,-0.985321044921875,-0.2130126953125,0.0551300048828125
1751013492292349700,5.673349609375,-0.984039306640625,-0.2140960693359375,0.0521240234375
1751013492302292700,5.683292724609375,-0.98095703125,-0.21710205078125,0.05078125
1751013492312237000,5.693237060546875,-0.9795684814453125,-0.21771240234375,0.0503387451171875
1751013492322179800,5.703179931640625,-0.9821929931640625,-0.217193603515625,0.0512542724609375
1751013492332123000,5.713122802734375,-0.9918365478515625,-0.21600341796875,0.0530548095703125
1751013492342067000,5.72306689453125,-0.999114990234375,-0.21246337890625,0.0559844970703125
1751013492352010000,5.733010009765625,-0.9997100830078125,-0.2102508544921875,0.056304931640625
1751013492361953000,5.742953125,-0.9952392578125,-0.209014892578125,0.0539398193359375
1751013492371897000,5.75289697265625,-0.9930572509765625,-0.2083740234375,0.052947998046875
1751013492381840000,5.76283984375,-0.99127197265625,-0.20941162109375,0.0529022216796875
1751013492391784000,5.772783935546875,-0.9873046875,-0.21099853515625,0.052642822265625
1751013492401723600,5.7827236328125,-0.9859771728515625,-0.2141876220703125,0.0505828857421875
1751013492411666700,5.792666748046875,-0.9839324951171875,-0.2149505615234375,0.05145263671875
1751013492421610500,5.802610595703125,-0.9848785400390625,-0.2151641845703125,0.053497314453125
1751013492431553500,5.812553466796875,-0.9901275634765625,-0.2136993408203125,0.0536956787109375
1751013492441496600,5.82249658203125,-0.994598388671875,-0.2139739990234375,0.0518951416015625
1751013492451440600,5.832440673828125,-0.9979705810546875,-0.2118988037109375,0.053314208984375
1751013492461383700,5.8423837890625,-0.9974212646484375,-0.20880126953125,0.05596923828125
1751013492471326500,5.852326416015625,-0.9947052001953125,-0.207427978515625,0.056243896484375
1751013492481270500,5.8622705078125,-0.992034912109375,-0.20904541015625,0.0567474365234375
1751013492491213600,5.872213623046875,-0.9918975830078125,-0.2086639404296875,0.055877685546875
1751013492501156600,5.882156494140625,-0.9885711669921875,-0.20654296875,0.0554962158203125
1751013492511100400,5.892100341796875,-0.985595703125,-0.2079620361328125,0.055328369140625
1751013492521043500,5.90204345703125,-0.9847412109375,-0.2095794677734375,0.0551910400390625
1751013492530987500,5.911987548828125,-0.98504638671875,-0.2091522216796875,0.055999755859375
1751013492540930600,5.9219306640625,-0.9886016845703125,-0.2098541259765625,0.0564727783203125
1751013492550873600,5.93187353515625,-0.990142822265625,-0.2091064453125,0.0548248291015625
1751013492560817400,5.9418173828125,-0.989837646484375,-0.209808349609375,0.057098388671875
1751013492570760400,5.951760498046875,-0.9913330078125,-0.2086639404296875,0.0579833984375
1751013492580703500,5.961703369140625,-0.99078369140625,-0.2069549560546875,0.05889892578125
1751013492590647600,5.9716474609375,-0.9888153076171875,-0.2067718505859375,0.059173583984375
1751013492600590600,5.981590576171875,-0.988555908203125,-0.2049407958984375,0.0589141845703125
1751013492610533400,5.991533447265625,-0.9893798828125,-0.204742431640625,0.057586669921875
1751013492620477400,6.0014775390625,-0.984954833984375,-0.206329345703125,0.0558929443359375
1751013492630420500,6.01142041015625,-0.9865264892578125,-0.2068023681640625,0.055999755859375
1751013492640364500,6.021364501953125,-0.992584228515625,-0.2076416015625,0.055633544921875
1751013492650307300,6.031307373046875,-0.9945526123046875,-0.2089691162109375,0.0565948486328125
1751013492660250400,6.04125048828125,-0.998626708984375,-0.208404541015625,0.056243896484375
1751013492670194700,6.051194580078125,-1.0008392333984375,-0.20916748046875,0.0581207275390625
1751013492680137700,6.0611376953125,-0.997894287109375,-0.2092132568359375,0.0609283447265625
1751013492690080800,6.071080810546875,-0.992462158203125,-0.2076263427734375,0.0616302490234375
1751013492700024600,6.081024658203125,-0.989227294921875,-0.2070465087890625,0.0592041015625
1751013492709967600,6.090967529296875,-0.985595703125,-0.2064971923828125,0.0571441650390625
1751013492719910700,6.10091064453125,-0.98394775390625,-0.20965576171875,0.054443359375
1751013492729854500,6.1108544921875,-0.9814605712890625,-0.209686279296875,0.052398681640625
1751013492739797500,6.120797607421875,-0.9849700927734375,-0.209381103515625,0.0558319091796875
1751013492749741600,6.130741455078125,-0.9892578125,-0.2069091796875,0.058563232421875
1751013492759684600,6.1406845703125,-0.9927215576171875,-0.2043914794921875,0.05914306640625
1751013492769627600,6.150627685546875,-0.99517822265625,-0.2052154541015625,0.058319091796875
1751013492779571500,6.160571533203125,-0.995208740234375,-0.2061309814453125,0.0560302734375
1751013492789514500,6.170514404296875,-0.9928436279296875,-0.2068939208984375,0.05517578125
1751013492799457500,6.18045751953125,-0.9913787841796875,-0.2046661376953125,0.0548095703125
1751013492809401600,6.190401611328125,-0.9912261962890625,-0.204132080078125,0.056915283203125
1751013492819344600,6.2003447265625,-0.9912567138671875,-0.205078125,0.0572509765625
1751013492829287400,6.210287353515625,-0.9929656982421875,-0.2039031982421875,0.05767822265625
1751013492839231500,6.2202314453125,-0.991943359375,-0.2042388916015625,0.0566864013671875
1751013492849174500,6.230174560546875,-0.989898681640625,-0.204986572265625,0.0572662353515625
1751013492859118300,6.240118408203125,-0.989349365234375,-0.205230712890625,0.0564727783203125
1751013492869061400,6.250061279296875,-0.9863433837890625,-0.2066192626953125,0.0557403564453125
1751013492879004400,6.26000439453125,-0.983673095703125,-0.2073211669921875,0.0598602294921875
1751013492888948500,6.269948486328125,-0.98651123046875,-0.20556640625,0.06439208984375
1751013492898891500,6.2798916015625,-0.9916229248046875,-0.2039947509765625,0.065704345703125
1751013492908834600,6.28983447265625,-0.992431640625,-0.2042236328125,0.06402587890625
1751013492918778400,6.2997783203125,-0.9928131103515625,-0.202728271484375,0.061187744140625
1751013492928721400,6.309721435546875,-0.9929046630859375,-0.204071044921875,0.0594635009765625
1751013492938664400,6.31966455078125,-0.992889404296875,-0.2044830322265625,0.0592193603515625
1751013492948608500,6.3296083984375,-0.994873046875,-0.203521728515625,0.0606842041015625
1751013492958551600,6.339551513671875,-0.9949798583984375,-0.20361328125,0.0613250732421875
1751013492968495600,6.34949560546875,-0.9910125732421875,-0.204010009765625,0.0603179931640625
1751013492978438700,6.359438720703125,-0.98944091796875,-0.2037811279296875,0.0595245361328125
1751013492988381700,6.369381591796875,-0.9917755126953125,-0.204315185546875,0.0578765869140625
1751013492998325500,6.379325439453125,-0.9930267333984375,-0.2074737548828125,0.058990478515625
1751013493008268500,6.3892685546875,-0.9931182861328125,-0.2088775634765625,0.06005859375
1751013493018211600,6.399211669921875,-0.9949493408203125,-0.2070159912109375,0.0612640380859375
1751013493028155600,6.40915576171875,-1.00018310546875,-0.2028656005859375,0.06036376953125
1751013493038098700,6.4190986328125,-0.99835205078125,-0.2017364501953125,0.060211181640625
1751013493048041500,6.42904150390625,-0.99639892578125,-0.201995849609375,0.058868408203125
1751013493057985500,6.438985595703125,-0.997650146484375,-0.19964599609375,0.0580596923828125
1751013493067928600,6.448928466796875,-0.997802734375,-0.2013702392578125,0.058349609375
1751013493077871600,6.45887158203125,-0.99200439453125,-0.203399658203125,0.058990478515625
1751013493087815400,6.4688154296875,-0.9872894287109375,-0.20379638671875,0.061370849609375
1751013493097758500,6.478758544921875,-0.9878082275390625,-0.2033233642578125,0.0624237060546875
1751013493107702500,6.48870263671875,-0.9902496337890625,-0.2037200927734375,0.0622100830078125
1751013493117645600,6.4986455078125,-0.991668701171875,-0.2045440673828125,0.0626068115234375
1751013493127588600,6.508588623046875,-0.9925537109375,-0.204742431640625,0.0635833740234375
1751013493137532400,6.518532470703125,-0.993438720703125,-0.20538330078125,0.064697265625
1751013493147475500,6.528475341796875,-0.995147705078125,-0.2054290771484375,0.0649566650390625
1751013493157418500,6.53841845703125,-0.9945220947265625,-0.205474853515625,0.0641021728515625
1751013493167362600,6.548362548828125,-0.9912109375,-0.207550048828125,0.0640869140625
1751013493177305300,6.558305419921875,-0.989990234375,-0.208099365234375,0.061676025390625
1751013493187248400,6.568248291015625,-0.99005126953125,-0.2073974609375,0.0592498779296875
1751013493197192400,6.5781923828125,-0.9863739013671875,-0.2056732177734375,0.0572967529296875
1751013493207135500,6.588135498046875,-0.9858245849609375,-0.20611572265625,0.0572662353515625
1751013493217079600,6.59807958984375,-0.9903106689453125,-0.2064056396484375,0.0591278076171875
1751013493227022600,6.608022705078125,-0.9951629638671875,-0.206878662109375,0.0616455078125
1751013493236965400,6.61796533203125,-0.9983367919921875,-0.205413818359375,0.064208984375
1751013493246909700,6.62790966796875,-1.0026702880859375,-0.2045440673828125,0.0662078857421875
1751013493256852700,6.637852783203125,-1.00177001953125,-0.201873779296875,0.0657806396484375
1751013493266795500,6.64779541015625,-0.9976043701171875,-0.198577880859375,0.065216064453125
1751013493276739600,6.657739501953125,-0.99334716796875,-0.198699951171875,0.0621490478515625
1751013493286682600,6.6676826171875,-0.9876251220703125,-0.202301025390625,0.061553955078125
1751013493296625700,6.677625732421875,-0.9858551025390625,-0.205291748046875,0.0604705810546875
1751013493306569500,6.687569580078125,-0.98419189453125,-0.207275390625,0.0592498779296875
1751013493316512500,6.697512451171875,-0.981658935546875,-0.20782470703125,0.0601806640625
1751013493326456600,6.70745654296875,-0.98443603515625,-0.2057342529296875,0.0623016357421875
1751013493336399600,6.717399658203125,-0.9900970458984375,-0.206787109375,0.0646820068359375
1751013493346342700,6.7273427734375,-0.9915771484375,-0.2071075439453125,0.0653533935546875
1751013493356286500,6.737286376953125,-0.989959716796875,-0.2054595947265625,0.06561279296875
1751013493366229500,6.7472294921875,-0.9865264892578125,-0.203277587890625,0.0644989013671875
1751013493376172500,6.757172607421875,-0.985504150390625,-0.2036285400390625,0.065277099609375
1751013493386116600,6.76711669921875,-0.9833831787109375,-0.2063140869140625,0.06219482421875
1751013493396059400,6.777059326171875,-0.983551025390625,-0.2073211669921875,0.0606536865234375
1751013493406002400,6.78700244140625,-0.9839630126953125,-0.2073211669921875,0.060943603515625
1751013493415946500,6.796946533203125,-0.9854736328125,-0.208465576171875,0.060699462890625
1751013493425889500,6.8068896484375,-0.9839935302734375,-0.209320068359375,0.0599517822265625
1751013493435833300,6.816833251953125,-0.98382568359375,-0.209228515625,0.0606689453125
1751013493445776400,6.8267763671875,-0.984130859375,-0.2082366943359375,0.0621490478515625
1751013493455719400,6.836719482421875,-0.986053466796875,-0.2071990966796875,0.063751220703125
1751013493465663500,6.84666357421875,-0.988800048828125,-0.2064056396484375,0.064727783203125
1751013493475606500,6.8566064453125,-0.9933929443359375,-0.2053985595703125,0.0669403076171875
1751013493485549600,6.866549560546875,-0.9984130859375,-0.205291748046875,0.0678253173828125
1751013493495493400,6.876493408203125,-1.0031585693359375,-0.2042388916015625,0.06817626953125
1751013493505436400,6.8864365234375,-1.001678466796875,-0.2059783935546875,0.0681304931640625
1751013493515379500,6.89637939453125,-0.9999237060546875,-0.2082977294921875,0.066986083984375
1751013493525323300,6.9063232421875,-0.99749755859375,-0.20733642578125,0.0652313232421875
1751013493535266300,6.916266357421875,-0.9904327392578125,-0.2068634033203125,0.063873291015625
1751013493545210400,6.92621044921875,-0.9876861572265625,-0.2068939208984375,0.06427001953125
1751013493555153400,6.9361533203125,-0.98919677734375,-0.2076263427734375,0.0637359619140625
1751013493565096400,6.946096435546875,-0.991546630859375,-0.2074127197265625,0.06536865234375
1751013493575040300,6.956040283203125,-0.99237060546875,-0.208984375,0.064208984375
1751013493584983300,6.9659833984375,-0.996368408203125,-0.209197998046875,0.0624542236328125
1751013493594926300,6.97592626953125,-0.99957275390625,-0.2067718505859375,0.0624847412109375
1751013493604870400,6.985870361328125,-0.999664306640625,-0.2066497802734375,0.0632476806640625
1751013493614813400,6.9958134765625,-0.9981689453125,-0.20703125,0.0619659423828125
1751013493624756200,7.005756103515625,-0.995635986328125,-0.2036590576171875,0.0601043701171875
1751013493634700300,7.0157001953125,-0.9875640869140625,-0.2011871337890625,0.0604400634765625
1751013493644643300,7.025643310546875,-0.979766845703125,-0.2027740478515625,0.0608978271484375
1751013493654587400,7.03558740234375,-0.97515869140625,-0.2044219970703125,0.0613861083984375
1751013493664530400,7.045530517578125,-0.977203369140625,-0.2056121826171875,0.0634613037109375
1751013493674473500,7.055473388671875,-0.9829864501953125,-0.2076263427734375,0.0658416748046875
1751013493684417500,7.06541748046875,-0.9871826171875,-0.20904541015625,0.06640625
1751013493694360600,7.075360595703125,-0.9927978515625,-0.2088775634765625,0.0668792724609375
1751013493704303600,7.0853037109375,-0.9937286376953125,-0.208831787109375,0.0674285888671875
1751013493714247400,7.095247314453125,-0.9934234619140625,-0.207122802734375,0.066864013671875
1751013493724190500,7.1051904296875,-0.991851806640625,-0.205352783203125,0.0686492919921875
1751013493734133500,7.115133544921875,-0.989166259765625,-0.2060546875,0.06768798828125
1751013493744077600,7.12507763671875,-0.9863739013671875,-0.2066192626953125,0.0650634765625
1751013493754020400,7.135020263671875,-0.9876861572265625,-0.2057037353515625,0.066436767578125
1751013493763964400,7.14496435546875,-0.990081787109375,-0.20648193359375,0.066131591796875
1751013493773907500,7.154907470703125,-0.98785400390625,-0.208221435546875,0.06536865234375
1751013493783850500,7.1648505859375,-0.987701416015625,-0.20806884765625,0.0645904541015625
1751013493793794300,7.174794189453125,-0.9884185791015625,-0.207305908203125,0.0656890869140625
1751013493803737300,7.1847373046875,-0.986541748046875,-0.2069091796875,0.063507080078125
1751013493813680400,7.194680419921875,-0.9852294921875,-0.20635986328125,0.064300537109375
1751013493823624400,7.20462451171875,-0.9876708984375,-0.2073516845703125,0.0664215087890625
1751013493833567500,7.2145673828125,-0.9899444580078125,-0.2076568603515625,0.066375732421875
1751013493843510300,7.22451025390625,-0.992889404296875,-0.2065277099609375,0.0661163330078125
1751013493853454300,7.234454345703125,-0.993408203125,-0.2049560546875,0.0669097900390625
1751013493863397400,7.2443974609375,-0.9950714111328125,-0.203277587890625,0.067413330078125
1751013493873341400,7.254341552734375,-0.9971771240234375,-0.20208740234375,0.0687713623046875
1751013493883284200,7.2642841796875,-0.9967803955078125,-0.2033843994140625,0.068695068359375
1751013493893227300,7.274227294921875,-0.9891204833984375,-0.2039947509765625,0.06396484375
1751013493903171300,7.28417138671875,-0.9908294677734375,-0.205810546875,0.0645294189453125
1751013493913114400,7.2941142578125,-0.99285888671875,-0.20904541015625,0.0635528564453125
1751013493923057400,7.304057373046875,-0.98577880859375,-0.210296630859375,0.063568115234375
1751013493933001500,7.31400146484375,-0.9832763671875,-0.20941162109375,0.06243896484375
1751013493942944300,7.3239443359375,-0.9879302978515625,-0.2099609375,0.064117431640625
1751013493952887300,7.33388720703125,-0.993408203125,-0.209869384765625,0.0627288818359375
1751013493962831600,7.34383154296875,-0.992706298828125,-0.2076416015625,0.0625457763671875
1751013493972774400,7.3537744140625,-0.9891510009765625,-0.2051849365234375,0.0638275146484375
1751013493982718500,7.363718505859375,-0.9882354736328125,-0.206268310546875,0.062103271484375
1751013493992661500,7.37366162109375,-0.989471435546875,-0.2083587646484375,0.059600830078125
1751013494002604500,7.3836044921875,-0.988006591796875,-0.2100830078125,0.0595855712890625
1751013494012548400,7.39354833984375,-0.988037109375,-0.2099609375,0.061279296875
1751013494022491400,7.403491455078125,-0.9892425537109375,-0.209716796875,0.0634918212890625
1751013494032434400,7.413434326171875,-0.9906463623046875,-0.2086029052734375,0.065673828125
1751013494042378500,7.42337841796875,-0.992767333984375,-0.205780029296875,0.0684967041015625
1751013494052321500,7.433321533203125,-0.9930419921875,-0.2039794921875,0.06817626953125
1751013494062264300,7.443264404296875,-0.9921722412109375,-0.2043914794921875,0.06707763671875
1751013494072208400,7.45320849609375,-0.98870849609375,-0.206268310546875,0.0680389404296875
1751013494082151400,7.4631513671875,-0.9840240478515625,-0.2084503173828125,0.066314697265625
1751013494092095500,7.473095458984375,-0.9841156005859375,-0.2102203369140625,0.0618743896484375
1751013494102038300,7.483038330078125,-0.9850006103515625,-0.2125396728515625,0.0576171875
1751013494111981300,7.492981201171875,-0.988128662109375,-0.2125091552734375,0.05877685546875
1751013494121925400,7.50292529296875,-0.9931640625,-0.211151123046875,0.0614166259765625
1751013494131868400,7.512868408203125,-0.998046875,-0.2088470458984375,0.065216064453125
1751013494141811500,7.5228115234375,-1.0009002685546875,-0.2065582275390625,0.0669403076171875
1751013494151755300,7.53275537109375,-1.0006866455078125,-0.2049407958984375,0.0656585693359375
1751013494161698300,7.5426982421875,-0.9984283447265625,-0.2023468017578125,0.0633087158203125
1751013494171641300,7.552641357421875,-0.994964599609375,-0.2021026611328125,0.0638275146484375
1751013494181585400,7.56258544921875,-0.9920654296875,-0.20196533203125,0.0647430419921875
1751013494191528400,7.572528564453125,-0.9912261962890625,-0.2011871337890625,0.0649871826171875
1751013494201472500,7.582472412109375,-0.989288330078125,-0.203369140625,0.063079833984375
1751013494211415300,7.592415283203125,-0.988555908203125,-0.2071533203125,0.063812255859375
1751013494221358300,7.6023583984375,-0.989959716796875,-0.2096710205078125,0.064910888671875
1751013494231302400,7.612302490234375,-0.989501953125,-0.2117767333984375,0.06463623046875
1751013494241245400,7.622245361328125,-0.9875335693359375,-0.2132720947265625,0.06268310546875
1751013494251188500,7.6321884765625,-0.9855804443359375,-0.2143096923828125,0.0609893798828125
1751013494261132500,7.642132568359375,-0.9839019775390625,-0.214111328125,0.0623931884765625
1751013494271075600,7.65207568359375,-0.982391357421875,-0.213775634765625,0.0640716552734375
1751013494281018400,7.662018310546875,-0.9807281494140625,-0.2133331298828125,0.0638580322265625
1751013494290962400,7.67196240234375,-0.9844512939453125,-0.2109527587890625,0.06494140625
1751013494300905500,7.681905517578125,-0.9898834228515625,-0.208740234375,0.065093994140625
1751013494310849500,7.691849609375,-0.993072509765625,-0.2082061767578125,0.0621490478515625
1751013494320792300,7.701792236328125,-0.99542236328125,-0.2079010009765625,0.0621185302734375
1751013494330735400,7.7117353515625,-0.9971771240234375,-0.2072296142578125,0.0633697509765625
1751013494340679400,7.721679443359375,-0.998291015625,-0.208160400390625,0.063201904296875
1751013494350622500,7.73162255859375,-0.997772216796875,-0.21014404296875,0.06103515625
1751013494360565500,7.7415654296875,-0.999053955078125,-0.2103424072265625,0.0627288818359375
1751013494370509300,7.75150927734375,-1,-0.210235595703125,0.064971923828125
1751013494380452400,7.761452392578125,-0.998260498046875,-0.210906982421875,0.063323974609375
1751013494390395400,7.7713955078125,-0.9970703125,-0.210205078125,0.063690185546875
1751013494400339500,7.78133935546875,-0.992523193359375,-0.2115478515625,0.0641326904296875
1751013494410282500,7.791282470703125,-0.9856719970703125,-0.2124786376953125,0.063018798828125
1751013494420226300,7.801226318359375,-0.98150634765625,-0.2111663818359375,0.064666748046875
1751013494430169300,7.81116943359375,-0.9805145263671875,-0.2111053466796875,0.06622314453125
1751013494440112400,7.8211123046875,-0.98162841796875,-0.2104034423828125,0.0648193359375
1751013494450056200,7.83105615234375,-0.983917236328125,-0.2112579345703125,0.0644989013671875
1751013494459999200,7.840999267578125,-0.98419189453125,-0.2117919921875,0.0646209716796875
1751013494469942300,7.8509423828125,-0.9846343994140625,-0.2129669189453125,0.0620269775390625
1751013494479886300,7.86088623046875,-0.986663818359375,-0.2119140625,0.0595855712890625
1751013494489829400,7.870829345703125,-0.9878082275390625,-0.2126617431640625,0.05865478515625
1751013494499773400,7.8807734375,-0.9864349365234375,-0.2140045166015625,0.0582733154296875
1751013494509716500,7.890716552734375,-0.9850921630859375,-0.211669921875,0.0617828369140625
1751013494519659500,7.900659423828125,-0.9853363037109375,-0.21173095703125,0.06658935546875
1751013494529603600,7.910603515625,-0.9869842529296875,-0.2098236083984375,0.0680694580078125
1751013494539546400,7.92054638671875,-0.98931884765625,-0.20904541015625,0.0692901611328125
1751013494549489400,7.930489501953125,-0.990966796875,-0.209014892578125,0.0670623779296875
1751013494559433500,7.94043359375,-0.9906768798828125,-0.2104034423828125,0.0637969970703125
1751013494569376500,7.95037646484375,-0.98785400390625,-0.2116241455078125,0.0641326904296875
1751013494579319600,7.960319580078125,-0.9844207763671875,-0.211669921875,0.0634918212890625
1751013494589263400,7.970263427734375,-0.98468017578125,-0.2110137939453125,0.0644378662109375
1751013494599206400,7.980206298828125,-0.9856109619140625,-0.211761474609375,0.0661468505859375
1751013494609150500,7.990150390625,-0.9869537353515625,-0.21295166015625,0.0671539306640625
1751013494619093500,8.000093505859375,-0.9876556396484375,-0.2123870849609375,0.0670166015625
1751013494629036500,8.01003662109375,-0.9889068603515625,-0.211822509765625,0.06591796875
1751013494638980400,8.01998046875,-0.98797607421875,-0.2099456787109375,0.066650390625
1751013494648923400,8.02992333984375,-0.98858642578125,-0.2100830078125,0.0672454833984375
1751013494658866400,8.039866455078124,-0.9892578125,-0.211395263671875,0.067657470703125
1751013494668810200,8.049810302734375,-0.9869232177734375,-0.2128753662109375,0.06610107421875
1751013494678753300,8.059753173828126,-0.9867095947265625,-0.2137603759765625,0.063018798828125
1751013494688696300,8.0696962890625,-0.9881134033203125,-0.2147216796875,0.0635833740234375
1751013494698640400,8.079640380859376,-0.9885711669921875,-0.2145843505859375,0.0621337890625
1751013494708583400,8.08958349609375,-0.9889678955078125,-0.212188720703125,0.0592498779296875
1751013494718527200,8.09952734375,-0.99163818359375,-0.209808349609375,0.0581512451171875
1751013494728470300,8.10947021484375,-0.99493408203125,-0.208770751953125,0.0589447021484375
1751013494738413300,8.119413330078125,-0.99560546875,-0.2071380615234375,0.0610809326171875
1751013494748357400,8.129357421875,-0.9954681396484375,-0.2066497802734375,0.0621490478515625
1751013494758300400,8.139300537109374,-0.996734619140625,-0.2077484130859375,0.062713623046875
1751013494768243200,8.1492431640625,-0.9931640625,-0.207275390625,0.0612640380859375
1751013494778187500,8.1591875,-0.9885101318359375,-0.2073822021484375,0.0602874755859375
1751013494788130600,8.169130615234375,-0.9878387451171875,-0.20782470703125,0.061431884765625
1751013494798074400,8.179074462890625,-0.9918365478515625,-0.20904541015625,0.0616607666015625
1751013494808017400,8.189017333984374,-0.9912261962890625,-0.2119293212890625,0.0628814697265625
1751013494817960400,8.19896044921875,-0.9902801513671875,-0.21307373046875,0.0621337890625
1751013494827904500,8.208904541015626,-0.99237060546875,-0.213165283203125,0.0639495849609375
1751013494837847600,8.21884765625,-0.9918670654296875,-0.2132720947265625,0.0664520263671875
1751013494847790600,8.22879052734375,-0.9868011474609375,-0.2135467529296875,0.065704345703125
1751013494857734400,8.238734375,-0.9828643798828125,-0.212738037109375,0.06195068359375
1751013494867677400,8.248677490234375,-0.97979736328125,-0.2134857177734375,0.0608062744140625
1751013494877620500,8.258620361328125,-0.9822235107421875,-0.2139892578125,0.061981201171875
1751013494887564500,8.268564453125,-0.9858856201171875,-0.21270751953125,0.0618896484375
1751013494897507300,8.27850732421875,-0.989410400390625,-0.211761474609375,0.0617828369140625
1751013494907451400,8.288451416015626,-0.992034912109375,-0.211700439453125,0.061126708984375
1751013494917394400,8.29839453125,-0.9946136474609375,-0.2107086181640625,0.0630340576171875
1751013494927337500,8.30833740234375,-0.99713134765625,-0.2080230712890625,0.06439208984375
1751013494937281300,8.31828125,-0.9956207275390625,-0.206390380859375,0.06475830078125
1751013494947224300,8.328224365234375,-0.992095947265625,-0.2052459716796875,0.063446044921875
1751013494957167400,8.33816748046875,-0.99005126953125,-0.2070770263671875,0.059539794921875
1751013494967111400,8.348111328125,-0.9901580810546875,-0.2099456787109375,0.0568084716796875
1751013494977054500,8.358054443359375,-0.98809814453125,-0.209014892578125,0.0567626953125
1751013494986998300,8.367998291015626,-0.9843292236328125,-0.209320068359375,0.0595245361328125
1751013494996941300,8.37794140625,-0.983856201171875,-0.2092132568359375,0.0612640380859375
1751013495006884400,8.38788427734375,-0.986358642578125,-0.210968017578125,0.065338134765625
1751013495016828400,8.397828369140624,-0.9834747314453125,-0.2107086181640625,0.0672149658203125
1751013495026771200,8.407771240234375,-0.9804229736328125,-0.2101593017578125,0.06951904296875
1751013495036714200,8.41771435546875,-0.9817657470703125,-0.209381103515625,0.06890869140625
1751013495046658600,8.427658447265625,-0.9837188720703125,-0.2084197998046875,0.0680999755859375
1751013495056601600,8.4376015625,-0.9866790771484375,-0.2078704833984375,0.0690765380859375
1751013495066544400,8.44754443359375,-0.9886932373046875,-0.20892333984375,0.06903076171875
1751013495076488400,8.457488525390625,-0.990936279296875,-0.209991455078125,0.066619873046875
1751013495086431500,8.467431396484375,-0.9915313720703125,-0.210784912109375,0.0641326904296875
1751013495096375600,8.47737548828125,-0.989410400390625,-0.2102508544921875,0.0632781982421875
1751013495106318600,8.487318603515625,-0.993133544921875,-0.210357666015625,0.0645294189453125
1751013495116261400,8.497261474609376,-0.9960784912109375,-0.209320068359375,0.066070556640625
1751013495126205400,8.507205322265625,-0.995086669921875,-0.207733154296875,0.06683349609375
1751013495136148500,8.5171484375,-0.9944610595703125,-0.208343505859375,0.0677337646484375
1751013495146091500,8.527091552734374,-0.995086669921875,-0.2083587646484375,0.065826416015625
1751013495156035300,8.537035400390625,-0.9951019287109375,-0.2098846435546875,0.0625457763671875
1751013495165978400,8.546978271484376,-0.9876251220703125,-0.20916748046875,0.062957763671875
1751013495175922400,8.55692236328125,-0.97979736328125,-0.2082061767578125,0.062408447265625
1751013495185865500,8.566865478515625,-0.9814605712890625,-0.2083740234375,0.0619354248046875
1751013495195808500,8.57680859375,-0.9900665283203125,-0.2097625732421875,0.06475830078125
1751013495205752300,8.58675244140625,-0.995880126953125,-0.2099609375,0.06597900390625
1751013495215695400,8.5966953125,-0.9958343505859375,-0.2089996337890625,0.0651092529296875
1751013495225638400,8.606638427734374,-0.9965057373046875,-0.2064056396484375,0.0665130615234375
1751013495235582500,8.61658251953125,-0.9964141845703125,-0.2060546875,0.0677032470703125
1751013495245525200,8.626525146484376,-0.9927215576171875,-0.204681396484375,0.0660247802734375
1751013495255468300,8.63646826171875,-0.9907989501953125,-0.2048797607421875,0.063201904296875
1751013495265412400,8.646412353515625,-0.98699951171875,-0.2066192626953125,0.0621185302734375
1751013495275355400,8.65635546875,-0.9849700927734375,-0.209075927734375,0.06121826171875
1751013495285299200,8.66629931640625,-0.983489990234375,-0.211639404296875,0.0622711181640625
1751013495295242200,8.6762421875,-0.9844512939453125,-0.2122344970703125,0.0623016357421875
1751013495305185300,8.686185302734375,-0.992340087890625,-0.21087646484375,0.062255859375
1751013495315129600,8.696129638671875,-0.9995880126953125,-0.2092132568359375,0.0628814697265625
1751013495325072400,8.706072265625,-1.0037384033203125,-0.206878662109375,0.06341552734375
1751013495335015400,8.716015380859375,-1.00164794921875,-0.20172119140625,0.0637664794921875
1751013495344959500,8.72595947265625,-0.9967498779296875,-0.1996612548828125,0.0638885498046875
1751013495354902500,8.735902587890624,-0.993438720703125,-0.19866943359375,0.0624237060546875
1751013495364846600,8.7458466796875,-0.99005126953125,-0.199462890625,0.0599822998046875
1751013495374789400,8.755789306640626,-0.987884521484375,-0.2004852294921875,0.0603179931640625
1751013495384732400,8.765732421875,-0.9894256591796875,-0.202728271484375,0.0622406005859375
1751013495394676500,8.775676513671876,-0.9896697998046875,-0.2051849365234375,0.0647735595703125
1751013495404623600,8.78562353515625,-0.98931884765625,-0.2052001953125,0.0659637451171875
1751013495414566400,8.79556640625,-0.9889373779296875,-0.2065582275390625,0.0652313232421875
1751013495424510500,8.805510498046875,-0.9872894287109375,-0.209259033203125,0.062835693359375
1751013495434453500,8.81545361328125,-0.983673095703125,-0.2095794677734375,0.06280517578125
1751013495444397600,8.8253974609375,-0.981231689453125,-0.2086639404296875,0.0632476806640625
1751013495454340400,8.83534033203125,-0.98272705078125,-0.208099365234375,0.062652587890625
1751013495464283400,8.845283447265626,-0.985870361328125,-0.2085113525390625,0.0627288818359375
1751013495474227700,8.855227783203125,-0.9892425537109375,-0.2076873779296875,0.062347412109375
1751013495484170800,8.865170654296875,-0.9922332763671875,-0.2056427001953125,0.063385009765625
1751013495494113800,8.87511376953125,-0.9942474365234375,-0.203948974609375,0.0635223388671875
1751013495504057600,8.8850576171875,-0.995086669921875,-0.204071044921875,0.0632171630859375
1751013495514000600,8.895000732421876,-0.993804931640625,-0.2040863037109375,0.0604705810546875
1751013495523944700,8.90494482421875,-0.9948272705078125,-0.204742431640625,0.059051513671875
1751013495533887700,8.9148876953125,-0.997161865234375,-0.2060089111328125,0.06146240234375
1751013495543830500,8.92483056640625,-0.99688720703125,-0.2067413330078125,0.0659942626953125
1751013495553774600,8.934774658203125,-0.9972686767578125,-0.2060546875,0.0673828125
1751013495563717600,8.944717529296875,-0.9979095458984375,-0.20587158203125,0.0671539306640625
1751013495573660700,8.95466064453125,-0.9990692138671875,-0.207275390625,0.066162109375
1751013495583604500,8.9646044921875,-0.996368408203125,-0.2084503173828125,0.06341552734375
1751013495593547500,8.974547607421876,-0.9899749755859375,-0.208343505859375,0.0616302490234375
1751013495603491600,8.98449169921875,-0.987030029296875,-0.2081756591796875,0.0593719482421875
1751013495613434600,8.9944345703125,-0.986663818359375,-0.2075958251953125,0.0594940185546875
1751013495623377700,9.004377685546874,-0.985321044921875,-0.208221435546875,0.0585784912109375
1751013495633321500,9.014321533203125,-0.986053466796875,-0.2093963623046875,0.0577239990234375
1751013495643264500,9.024264404296876,-0.9857025146484375,-0.2090911865234375,0.06036376953125
1751013495653207600,9.03420751953125,-0.9870147705078125,-0.2078399658203125,0.0618133544921875
1751013495663151600,9.044151611328125,-0.98687744140625,-0.207763671875,0.0634613037109375
1751013495673094400,9.054094482421876,-0.989349365234375,-0.2078704833984375,0.0636749267578125
1751013495683038500,9.06403857421875,-0.9934844970703125,-0.2057342529296875,0.0634307861328125
1751013495692981500,9.0739814453125,-0.9920196533203125,-0.2041168212890625,0.0627288818359375
1751013495702924500,9.083924560546874,-0.9888458251953125,-0.20379638671875,0.06427001953125
1751013495712868600,9.09386865234375,-0.9893341064453125,-0.203887939453125,0.064453125
1751013495722811400,9.103811279296876,-0.99029541015625,-0.2044525146484375,0.063751220703125
1751013495732754400,9.11375439453125,-0.9894866943359375,-0.203521728515625,0.061981201171875
1751013495742698800,9.12369873046875,-0.9900360107421875,-0.20367431640625,0.0595703125
1751013495752641800,9.133641845703124,-0.9907379150390625,-0.205230712890625,0.0589752197265625
1751013495762585600,9.143585693359375,-0.98870849609375,-0.2038421630859375,0.0595855712890625
1751013495772528600,9.153528564453126,-0.9865875244140625,-0.203399658203125,0.0605621337890625
1751013495782471700,9.1634716796875,-0.9840850830078125,-0.20428466796875,0.061492919921875
1751013495792415700,9.173415771484375,-0.985321044921875,-0.203887939453125,0.06402587890625
1751013495802358500,9.183358642578124,-0.9897613525390625,-0.2035675048828125,0.064208984375
1751013495812301600,9.193301513671875,-0.992034912109375,-0.2034149169921875,0.06298828125
1751013495822245600,9.20324560546875,-0.9902496337890625,-0.202056884765625,0.0631866455078125
1751013495832188700,9.213188720703124,-0.9901275634765625,-0.201934814453125,0.0621795654296875
1751013495842132500,9.223132568359375,-0.9894256591796875,-0.2014923095703125,0.06207275390625
1751013495852075500,9.233075439453126,-0.9854736328125,-0.20318603515625,0.0627593994140625
1751013495862018600,9.2430185546875,-0.9862060546875,-0.203704833984375,0.061187744140625
1751013495871962600,9.252962646484375,-0.989013671875,-0.2051849365234375,0.0589599609375
1751013495881905700,9.26290576171875,-0.991851806640625,-0.20684814453125,0.05938720703125
1751013495891848400,9.272848388671875,-0.9937591552734375,-0.2073211669921875,0.0587005615234375
1751013495901792500,9.28279248046875,-0.995758056640625,-0.2067413330078125,0.057098388671875
1751013495911735600,9.292735595703125,-0.9957427978515625,-0.2064056396484375,0.057098388671875
1751013495921679600,9.3026796875,-0.99578857421875,-0.20452880859375,0.05743408203125
1751013495931622400,9.312622314453124,-0.9943695068359375,-0.2024993896484375,0.05938720703125
1751013495941565400,9.3225654296875,-0.99560546875,-0.199798583984375,0.06414794921875
1751013495951509500,9.332509521484376,-0.99786376953125,-0.200836181640625,0.0651397705078125
1751013495961452500,9.34245263671875,-0.999420166015625,-0.201202392578125,0.0637969970703125
1751013495971395600,9.3523955078125,-0.992401123046875,-0.2019805908203125,0.0605926513671875
1751013495981339400,9.36233935546875,-0.987457275390625,-0.203643798828125,0.0601959228515625
1751013495991282400,9.372282470703125,-0.986480712890625,-0.204986572265625,0.060302734375
1751013496001226800,9.382226806640626,-0.9883270263671875,-0.2059173583984375,0.0614776611328125
1751013496011169800,9.392169677734374,-0.98992919921875,-0.2079620361328125,0.0606231689453125
1751013496021112600,9.402112548828125,-0.99102783203125,-0.208038330078125,0.0627288818359375
1751013496031056600,9.412056640625,-0.9905242919921875,-0.2058563232421875,0.0646209716796875
1751013496040999700,9.421999755859375,-0.988433837890625,-0.2056732177734375,0.064483642578125
1751013496050942700,9.431942626953125,-0.98431396484375,-0.204345703125,0.06329345703125
1751013496060886500,9.441886474609374,-0.9852294921875,-0.203369140625,0.0631103515625
1751013496070829600,9.45182958984375,-0.985809326171875,-0.2040863037109375,0.0618896484375
1751013496080773600,9.461773681640626,-0.9830169677734375,-0.2050018310546875,0.059326171875
1751013496090716700,9.471716552734375,-0.9857330322265625,-0.20220947265625,0.0623931884765625
1751013496100659700,9.48165966796875,-0.9899444580078125,-0.202850341796875,0.066131591796875
1751013496110603500,9.491603515625,-0.994537353515625,-0.2032928466796875,0.0661773681640625
1751013496120546600,9.501546630859375,-0.9983673095703125,-0.2032623291015625,0.06591796875
1751013496130489600,9.511489501953125,-0.998138427734375,-0.2030487060546875,0.0648040771484375
1751013496140433700,9.52143359375,-0.996002197265625,-0.2028350830078125,0.064178466796875
1751013496150376400,9.53137646484375,-0.99346923828125,-0.2033233642578125,0.063140869140625
1751013496160320500,9.541320556640626,-0.9914398193359375,-0.201934814453125,0.0631866455078125
1751013496170263600,9.551263671875,-0.991180419921875,-0.1984405517578125,0.062225341796875
1751013496180206600,9.56120654296875,-0.9933624267578125,-0.19720458984375,0.0634613037109375
1751013496190150400,9.571150390625,-0.9923553466796875,-0.197845458984375,0.061920166015625
1751013496200093400,9.581093505859375,-0.9898834228515625,-0.199798583984375,0.0613861083984375
1751013496210036500,9.591036376953125,-0.9893951416015625,-0.20135498046875,0.0626983642578125
1751013496219980500,9.60098046875,-0.9879608154296875,-0.2041015625,0.06365966796875
1751013496229923600,9.610923583984375,-0.9874114990234375,-0.2053070068359375,0.0612945556640625
1751013496239867600,9.62086767578125,-0.9882049560546875,-0.206756591796875,0.0585479736328125
1751013496249810400,9.630810546875,-0.9901885986328125,-0.2073822021484375,0.0556640625
1751013496259753500,9.64075341796875,-0.9886322021484375,-0.2044525146484375,0.0547332763671875
1751013496269697800,9.65069775390625,-0.990997314453125,-0.203521728515625,0.0556793212890625
1751013496279640600,9.660640625,-0.989715576171875,-0.2068328857421875,0.054443359375
1751013496289583600,9.67058349609375,-0.9894561767578125,-0.208709716796875,0.055755615234375
1751013496299527700,9.680527587890625,-0.9908599853515625,-0.207183837890625,0.059539794921875
1751013496309470700,9.690470703125,-0.9915313720703125,-0.2042236328125,0.061309814453125
1751013496319414500,9.70041455078125,-0.9953460693359375,-0.2030029296875,0.062744140625
1751013496329357600,9.710357666015625,-0.99566650390625,-0.2020263671875,0.065277099609375
1751013496339300600,9.720300537109376,-0.9940032958984375,-0.2022857666015625,0.0619964599609375
1751013496349244700,9.73024462890625,-0.994140625,-0.202606201171875,0.058837890625
1751013496359187700,9.740187744140625,-0.9923858642578125,-0.20465087890625,0.0546875
1751013496369130500,9.750130615234376,-0.987884521484375,-0.2067108154296875,0.052734375
1751013496379074600,9.760074462890625,-0.9857025146484375,-0.2066497802734375,0.0548553466796875
1751013496389017600,9.770017578125,-0.990753173828125,-0.20654296875,0.0588531494140625
1751013496398961700,9.779961669921875,-0.9960174560546875,-0.2041015625,0.06011962890625
1751013496408899800,9.78989990234375,-1.001708984375,-0.199859619140625,0.0618438720703125
1751013496418843000,9.7998427734375,-1.0014801025390625,-0.201202392578125,0.0628814697265625
1751013496428786700,9.80978662109375,-0.9979400634765625,-0.2028656005859375,0.06396484375
1751013496438729700,9.819729736328124,-0.9937896728515625,-0.202301025390625,0.0626373291015625
1751013496448673800,9.829673828125,-0.985321044921875,-0.2012481689453125,0.060821533203125
1751013496458616800,9.839616943359376,-0.9824676513671875,-0.20306396484375,0.0621337890625
1751013496468559600,9.8495595703125,-0.983978271484375,-0.204376220703125,0.06317138671875
1751013496478503700,9.859503662109375,-0.984832763671875,-0.204376220703125,0.0626678466796875
1751013496488446700,9.86944677734375,-0.989501953125,-0.204986572265625,0.06207275390625
1751013496498389800,9.8793896484375,-0.9968414306640625,-0.2058868408203125,0.062591552734375
1751013496508333600,9.88933349609375,-0.997650146484375,-0.207855224609375,0.061798095703125
1751013496518276600,9.899276611328125,-0.9978790283203125,-0.20751953125,0.06243896484375
1751013496528221000,9.909220947265625,-0.9940032958984375,-0.2039947509765625,0.0612640380859375
1751013496538163700,9.919163818359374,-0.9871673583984375,-0.2021026611328125,0.0605010986328125
1751013496548106800,9.929106689453125,-0.9847564697265625,-0.20013427734375,0.0630645751953125
1751013496558050800,9.93905078125,-0.9842376708984375,-0.1983489990234375,0.06207275390625
1751013496567993900,9.948993896484374,-0.9848785400390625,-0.197998046875,0.0617828369140625
1751013496577937000,9.95893701171875,-0.9871978759765625,-0.2012176513671875,0.0626678466796875
1751013496587881000,9.968880859375,-0.9873046875,-0.2049713134765625,0.0648193359375
1751013496597823700,9.97882373046875,-0.988922119140625,-0.206451416015625,0.065521240234375
1751013496607767800,9.988767822265626,-0.9878997802734375,-0.207000732421875,0.0649871826171875
1751013496617710800,9.9987109375,-0.98895263671875,-0.2061614990234375,0.0650787353515625
1751013496627654000,10.00865380859375,-0.99334716796875,-0.2048187255859375,0.0683746337890625
1751013496637597700,10.01859765625,-0.992156982421875,-0.204345703125,0.069061279296875
1751013496647540700,10.028540771484375,-0.9870147705078125,-0.20477294921875,0.0648040771484375
1751013496657483800,10.03848388671875,-0.9850311279296875,-0.20654296875,0.0618133544921875
1751013496667427800,10.048427734375,-0.9837646484375,-0.2078704833984375,0.05975341796875
1751013496677371000,10.058370849609375,-0.9862518310546875,-0.2090606689453125,0.0577392578125
1751013496687314700,10.068314697265626,-0.9915924072265625,-0.2083282470703125,0.0581817626953125
1751013496697257700,10.0782578125,-0.998809814453125,-0.2068634033203125,0.0608978271484375
1751013496707200800,10.08820068359375,-1.0030517578125,-0.2050628662109375,0.061798095703125
1751013496717144800,10.098144775390624,-1.0034332275390625,-0.202911376953125,0.0614471435546875
1751013496727087600,10.108087646484375,-1.001953125,-0.201385498046875,0.0621490478515625
1751013496737030700,10.11803076171875,-0.9997406005859375,-0.1999664306640625,0.062713623046875
1751013496746974700,10.127974609375,-0.989471435546875,-0.19708251953125,0.0640106201171875
1751013496756917800,10.137917724609375,-1.002227783203125,-0.199615478515625,0.0638427734375
1751013496766861600,10.147861572265626,-0.9967193603515625,-0.20147705078125,0.07037353515625
1751013496776804600,10.1578046875,-0.989105224609375,-0.1991119384765625,0.07073974609375
1751013496786747600,10.16774755859375,-0.990509033203125,-0.1963958740234375,0.0689849853515625
1751013496796692000,10.17769189453125,-0.9934234619140625,-0.19879150390625,0.0665740966796875
1751013496806634800,10.187634765625,-0.9923858642578125,-0.200531005859375,0.0650177001953125
1751013496816578800,10.197578857421876,-0.9858245849609375,-0.2002716064453125,0.0643157958984375
1751013496826521900,10.20752197265625,-0.98126220703125,-0.197296142578125,0.065155029296875
1751013496836465000,10.21746484375,-0.9792633056640625,-0.197052001953125,0.064697265625
1751013496846409000,10.227408935546874,-0.980316162109375,-0.1989898681640625,0.0618743896484375
1751013496856351700,10.237351806640625,-0.983062744140625,-0.19842529296875,0.0613555908203125
1751013496866294800,10.247294677734375,-0.98712158203125,-0.19940185546875,0.063446044921875
1751013496876238800,10.25723876953125,-0.988037109375,-0.199798583984375,0.06256103515625
1751013496886182000,10.267181884765625,-0.98846435546875,-0.200531005859375,0.0602569580078125
1751013496896125700,10.277125732421876,-0.990142822265625,-0.20068359375,0.060272216796875
1751013496906068700,10.28706884765625,-0.9893646240234375,-0.20098876953125,0.063629150390625
1751013496916011800,10.29701171875,-0.9917755126953125,-0.19866943359375,0.066375732421875
1751013496925955800,10.306955810546874,-0.9917755126953125,-0.19854736328125,0.0653839111328125
1751013496935899000,10.31689892578125,-0.9941558837890625,-0.1974334716796875,0.0631256103515625
1751013496945842700,10.3268427734375,-0.997344970703125,-0.1985626220703125,0.061431884765625
1751013496955785700,10.33678564453125,-0.9937286376953125,-0.19964599609375,0.0618133544921875
1751013496965728800,10.346728759765625,-0.9912109375,-0.19842529296875,0.05975341796875
1751013496975672800,10.3566728515625,-0.9907073974609375,-0.199676513671875,0.0606689453125
1751013496985615600,10.36661572265625,-0.99114990234375,-0.200958251953125,0.064239501953125
1751013496995558700,10.37655859375,-0.9962158203125,-0.200653076171875,0.0659942626953125
1751013497005502700,10.386502685546875,-1.0001373291015625,-0.1988983154296875,0.066650390625
1751013497015445800,10.39644580078125,-0.998687744140625,-0.200469970703125,0.06549072265625
1751013497025389600,10.4063896484375,-0.995361328125,-0.2026519775390625,0.0622100830078125
1751013497035332600,10.41633251953125,-0.9913482666015625,-0.2029876708984375,0.061065673828125
1751013497045275600,10.426275634765625,-0.98529052734375,-0.2043304443359375,0.0613250732421875
1751013497055220000,10.436219970703124,-0.983367919921875,-0.20440673828125,0.060882568359375
1751013497065163000,10.4461630859375,-0.986663818359375,-0.203277587890625,0.0594940185546875
1751013497075105800,10.456105712890626,-0.992340087890625,-0.2022247314453125,0.067657470703125
1751013497085049900,10.4660498046875,-0.998748779296875,-0.1983642578125,0.0678558349609375
1751013497094993000,10.475992919921875,-1.0020294189453125,-0.1968994140625,0.0668487548828125
1751013497104937000,10.48593701171875,-1.0022735595703125,-0.197265625,0.0643768310546875
1751013497114879700,10.495879638671875,-1.0021820068359375,-0.196044921875,0.0658721923828125
1751013497124822800,10.50582275390625,-1.002685546875,-0.195709228515625,0.0636749267578125
1751013497134766800,10.515766845703125,-1.0005035400390625,-0.1969451904296875,0.0608367919921875
1751013497144710000,10.5257099609375,-0.998809814453125,-0.198974609375,0.0600738525390625
1751013497154653000,10.53565283203125,-0.9967803955078125,-0.200592041015625,0.05926513671875
1751013497164596700,10.5455966796875,-0.9910736083984375,-0.199737548828125,0.0592193603515625
1751013497174539800,10.555539794921875,-0.9803924560546875,-0.1974029541015625,0.0598297119140625
1751013497184483800,10.56548388671875,-0.9791107177734375,-0.1958465576171875,0.06365966796875
1751013497194427000,10.575427001953125,-0.98114013671875,-0.197479248046875,0.0709991455078125
1751013497204369700,10.58536962890625,-0.978851318359375,-0.197998046875,0.0725250244140625
1751013497214313700,10.595313720703125,-0.9759521484375,-0.200286865234375,0.068817138671875
1751013497224256800,10.6052568359375,-0.93157958984375,-0.2047882080078125,0.07086181640625
1751013497234200800,10.615200927734374,-0.9649810791015625,-0.2043914794921875,0.076416015625
1751013497244143600,10.6251435546875,-1.0098876953125,-0.2057342529296875,0.0807037353515625
1751013497254086700,10.635086669921876,-1.0101470947265625,-0.2145843505859375,0.0686798095703125
1751013497264030700,10.64503076171875,-1.0139923095703125,-0.210235595703125,0.0674285888671875
1751013497273973800,10.654973876953125,-1.0082244873046875,-0.205230712890625,0.06475830078125
1751013497283916800,10.664916748046876,-1.0037078857421875,-0.2032470703125,0.061981201171875
1751013497293860600,10.674860595703125,-1.009368896484375,-0.2071685791015625,0.0580291748046875
1751013497303803600,10.6848037109375,-1.01141357421875,-0.2114410400390625,0.0560760498046875
1751013497313748000,10.694748046875,-1.0133056640625,-0.2112884521484375,0.0616607666015625
1751013497323691000,10.70469091796875,-1.005767822265625,-0.206787109375,0.0703582763671875
1751013497333633800,10.7146337890625,-0.996337890625,-0.20269775390625,0.077606201171875
